stimulusID,stimulus_JPG,stimulusPath,stimulusPath2,stimulusPath3,stimulusPath4,stimulusPath5,stimulusPath6,xRayOriginal,xRayPath,Blocks.thisRepN,Blocks.thisTrialN,Blocks.thisN,Blocks.thisIndex,Trials.thisRepN,Trials.thisTrialN,Trials.thisN,Trials.thisIndex,text_2.started,text_2.stopped,xrayID,blockNumber,trialNumber,stimLocationDeg,stimXCoord,stimYCoord,stimulusID,xray1.started,xray1.stopped,tumors.started,tumors.stopped,trialCorrect%,startRespTime,endRespTime,RT,morphTrack,morphID,errorRaw,errorCorrected,startStimTime,endStimTime,key_resp.keys,key_resp.rt,participant,session,age,gender,status,date,expName,psychopyVersion,frameRate,blockType
104,Stimuli/Morph104.JPG,Stimuli/Morph104.png,Stimuli/BlurLevel5/BlurEditedMorph104,Stimuli/BlurLevel5/BlurEditedMorph104.png,Stimuli/BlurLevel5/NumberedMorphs/BlurEditedMorph104.png,Stimuli/BlurLevel5/OriginalBlur/BlurEditedMorph104.png,Stimuli/BlurMorphTrio/EditedMorph104.png,None,None,0,0,0,0,0,0,0,103,86.50115744,None,26,1,1,284,0.604804739,-2.425739316,104,101.5411658,102.0338964,101.5411658,102.0338964,33.33333333,1574359847,1574359850,3.75118804,11,55,49,49,1574359845,1574359847,,,AR,1,21,M,Undergrad,2019_Nov_21_1010,AdjustExp1,3.1.5,59.69497028,Experiment
103,Stimuli/Morph103.JPG,Stimuli/Morph103.png,Stimuli/BlurLevel5/BlurEditedMorph103,Stimuli/BlurLevel5/BlurEditedMorph103.png,Stimuli/BlurLevel5/NumberedMorphs/BlurEditedMorph103.png,Stimuli/BlurLevel5/OriginalBlur/BlurEditedMorph103.png,Stimuli/BlurMorphTrio/EditedMorph103.png,None,None,0,0,0,0,0,1,1,102,,,28,1,2,340,2.349231552,-0.855050358,103,107.6682451,108.1674829,107.6682451,108.1674829,97.27891156,1574359853,1574359856,3.283439875,111,105,-2,-2,1574359851,1574359853,,,AR,1,21,M,Undergrad,2019_Nov_21_1010,AdjustExp1,3.1.5,59.69497028,Experiment
56,Stimuli/Morph56.JPG,Stimuli/Morph56.png,Stimuli/BlurLevel5/BlurEditedMorph56,Stimuli/BlurLevel5/BlurEditedMorph56.png,Stimuli/BlurLevel5/NumberedMorphs/BlurEditedMorph56.png,Stimuli/BlurLevel5/OriginalBlur/BlurEditedMorph56.png,Stimuli/BlurMorphTrio/EditedMorph56.png,010157right.gif,Stimuli/normal_thumbnails/56right.gif,0,0,0,0,0,2,2,55,,,26,1,3,158,-2.317959636,0.936516484,56,113.1542169,113.6506754,113.1542169,113.6506754,86.39455782,1574359858,1574359863,4.350790024,90,46,10,10,1574359856,1574359858,,,AR,1,21,M,Undergrad,2019_Nov_21_1010,AdjustExp1,3.1.5,59.69497028,Experiment
131,Stimuli/Morph131.JPG,Stimuli/Morph131.png,Stimuli/BlurLevel5/BlurEditedMorph131,Stimuli/BlurLevel5/BlurEditedMorph131.png,Stimuli/BlurLevel5/NumberedMorphs/BlurEditedMorph131.png,Stimuli/BlurLevel5/OriginalBlur/BlurEditedMorph131.png,Stimuli/BlurMorphTrio/EditedMorph131.png,None,None,0,0,0,0,0,3,3,130,,,3,1,4,68,0.936516484,2.317959636,131,119.8676091,120.3671416,119.8676091,120.3671416,70.06802721,1574359865,1574359869,4.30011797,79,6,125,-22,1574359863,1574359865,,,AR,1,21,M,Undergrad,2019_Nov_21_1010,AdjustExp1,3.1.5,59.69497028,Experiment
18,Stimuli/Morph18.JPG,Stimuli/Morph18.png,Stimuli/BlurLevel5/BlurEditedMorph18,Stimuli/BlurLevel5/BlurEditedMorph18.png,Stimuli/BlurLevel5/NumberedMorphs/BlurEditedMorph18.png,Stimuli/BlurLevel5/OriginalBlur/BlurEditedMorph18.png,Stimuli/BlurMorphTrio/EditedMorph18.png,010039right.gif,Stimuli/normal_thumbnails/18right.gif,0,0,0,0,0,4,4,17,,,10,1,5,263,-0.304673359,-2.481365379,18,126.4724475,126.966867,126.4724475,126.966867,100,1574359871,1574359877,5.049957991,88,18,0,0,1574359869,1574359871,,,AR,1,21,M,Undergrad,2019_Nov_21_1010,AdjustExp1,3.1.5,59.69497028,Experiment
141,Stimuli/Morph141.JPG,Stimuli/Morph141.png,Stimuli/BlurLevel5/BlurEditedMorph141,Stimuli/BlurLevel5/BlurEditedMorph141.png,Stimuli/BlurLevel5/NumberedMorphs/BlurEditedMorph141.png,Stimuli/BlurLevel5/OriginalBlur/BlurEditedMorph141.png,Stimuli/BlurMorphTrio/EditedMorph141.png,None,None,0,0,0,0,0,5,5,140,,,40,1,6,55,1.433941091,2.047880111,141,133.9664141,134.4669117,133.9664141,134.4669117,90.47619048,1574359879,1574359883,4.400868654,23,134,7,7,1574359877,1574359879,,,AR,1,21,M,Undergrad,2019_Nov_21_1010,AdjustExp1,3.1.5,59.69497028,Experiment
92,Stimuli/Morph92.JPG,Stimuli/Morph92.png,Stimuli/BlurLevel5/BlurEditedMorph92,Stimuli/BlurLevel5/BlurEditedMorph92.png,Stimuli/BlurLevel5/NumberedMorphs/BlurEditedMorph92.png,Stimuli/BlurLevel5/OriginalBlur/BlurEditedMorph92.png,Stimuli/BlurMorphTrio/EditedMorph92.png,020277right.gif,Stimuli/normal_thumbnails/92right.gif,0,0,0,0,0,6,6,91,,,97,1,7,46,1.736645926,1.798349501,92,141.3672415,141.8663476,141.3672415,141.8663476,80.95238095,1574359886,1574359889,2.850490808,118,106,-14,-14,1574359884,1574359886,,,AR,1,21,M,Undergrad,2019_Nov_21_1010,AdjustExp1,3.1.5,59.69497028,Experiment
112,Stimuli/Morph112.JPG,Stimuli/Morph112.png,Stimuli/BlurLevel5/BlurEditedMorph112,Stimuli/BlurLevel5/BlurEditedMorph112.png,Stimuli/BlurLevel5/NumberedMorphs/BlurEditedMorph112.png,Stimuli/BlurLevel5/OriginalBlur/BlurEditedMorph112.png,Stimuli/BlurMorphTrio/EditedMorph112.png,None,None,0,0,0,0,0,7,7,111,,,8,1,8,146,-2.072593931,1.397982259,112,146.800025,147.3002139,146.800025,147.3002139,94.55782313,1574359892,1574359895,3.416882753,146,108,4,4,1574359890,1574359892,,,AR,1,21,M,Undergrad,2019_Nov_21_1010,AdjustExp1,3.1.5,59.69497028,Experiment
144,Stimuli/Morph144.JPG,Stimuli/Morph144.png,Stimuli/BlurLevel5/BlurEditedMorph144,Stimuli/BlurLevel5/BlurEditedMorph144.png,Stimuli/BlurLevel5/NumberedMorphs/BlurEditedMorph144.png,Stimuli/BlurLevel5/OriginalBlur/BlurEditedMorph144.png,Stimuli/BlurMorphTrio/EditedMorph144.png,None,None,0,0,0,0,0,8,8,143,,,67,1,9,63,1.134976249,2.22751631,144,152.7998421,153.30007,152.7998421,153.30007,93.19727891,1574359898,1574359906,8.616770983,41,2,142,-5,1574359895,1574359898,,,AR,1,21,M,Undergrad,2019_Nov_21_1010,AdjustExp1,3.1.5,59.69497028,Experiment
14,Stimuli/Morph14.JPG,Stimuli/Morph14.png,Stimuli/BlurLevel5/BlurEditedMorph14,Stimuli/BlurLevel5/BlurEditedMorph14.png,Stimuli/BlurLevel5/NumberedMorphs/BlurEditedMorph14.png,Stimuli/BlurLevel5/OriginalBlur/BlurEditedMorph14.png,Stimuli/BlurMorphTrio/EditedMorph14.png,010030right.gif,Stimuli/normal_thumbnails/14right.gif,0,0,0,0,0,9,9,13,,,7,1,10,112,-0.936516484,2.317959636,14,164.000053,164.499444,164.000053,164.499444,97.27891156,1574359909,1574359913,3.700862885,90,16,-2,-2,1574359907,1574359909,,,AR,1,21,M,Undergrad,2019_Nov_21_1010,AdjustExp1,3.1.5,59.69497028,Experiment
102,Stimuli/Morph102.JPG,Stimuli/Morph102.png,Stimuli/BlurLevel5/BlurEditedMorph102,Stimuli/BlurLevel5/BlurEditedMorph102.png,Stimuli/BlurLevel5/NumberedMorphs/BlurEditedMorph102.png,Stimuli/BlurLevel5/OriginalBlur/BlurEditedMorph102.png,Stimuli/BlurMorphTrio/EditedMorph102.png,None,None,0,0,0,0,0,10,10,101,,,91,1,11,25,2.265769468,1.056545654,102,170.0902189,170.5834096,170.0902189,170.5834096,95.91836735,1574359915,1574359919,3.900828838,73,99,3,3,1574359913,1574359915,,,AR,1,21,M,Undergrad,2019_Nov_21_1010,AdjustExp1,3.1.5,59.69497028,Experiment
82,Stimuli/Morph82.JPG,Stimuli/Morph82.png,Stimuli/BlurLevel5/BlurEditedMorph82,Stimuli/BlurLevel5/BlurEditedMorph82.png,Stimuli/BlurLevel5/NumberedMorphs/BlurEditedMorph82.png,Stimuli/BlurLevel5/OriginalBlur/BlurEditedMorph82.png,Stimuli/BlurMorphTrio/EditedMorph82.png,020247right.gif,Stimuli/normal_thumbnails/82right.gif,0,0,0,0,0,11,11,81,,,10,1,12,275,0.217889357,-2.490486745,82,176.3535404,176.8501381,176.3535404,176.8501381,89.11564626,1574359921,1574359926,4.933287144,127,90,-8,-8,1574359919,1574359921,,,AR,1,21,M,Undergrad,2019_Nov_21_1010,AdjustExp1,3.1.5,59.69497028,Experiment
39,Stimuli/Morph39.JPG,Stimuli/Morph39.png,Stimuli/BlurLevel5/BlurEditedMorph39,Stimuli/BlurLevel5/BlurEditedMorph39.png,Stimuli/BlurLevel5/NumberedMorphs/BlurEditedMorph39.png,Stimuli/BlurLevel5/OriginalBlur/BlurEditedMorph39.png,Stimuli/BlurMorphTrio/EditedMorph39.png,010109right.gif,Stimuli/normal_thumbnails/39right.gif,0,0,0,0,0,12,12,38,,,23,1,13,220,-1.915111108,-1.606969024,39,183.8825287,184.3828293,183.8825287,184.3828293,95.91836735,1574359929,1574359935,5.649729967,59,42,-3,-3,1574359927,1574359929,,,AR,1,21,M,Undergrad,2019_Nov_21_1010,AdjustExp1,3.1.5,59.69497028,Experiment
26,Stimuli/Morph26.JPG,Stimuli/Morph26.png,Stimuli/BlurLevel5/BlurEditedMorph26,Stimuli/BlurLevel5/BlurEditedMorph26.png,Stimuli/BlurLevel5/NumberedMorphs/BlurEditedMorph26.png,Stimuli/BlurLevel5/OriginalBlur/BlurEditedMorph26.png,Stimuli/BlurMorphTrio/EditedMorph26.png,010070right.gif,Stimuli/normal_thumbnails/26right.gif,0,0,0,0,0,13,13,25,,,38,1,14,214,-2.072593931,-1.397982259,26,192.2161519,192.716369,192.2161519,192.716369,98.63945578,1574359937,1574359942,4.533187151,69,25,1,1,1574359935,1574359937,,,AR,1,21,M,Undergrad,2019_Nov_21_1010,AdjustExp1,3.1.5,59.69497028,Experiment
7,Stimuli/Morph7.JPG,Stimuli/Morph7.png,Stimuli/BlurLevel5/BlurEditedMorph7,Stimuli/BlurLevel5/BlurEditedMorph7.png,Stimuli/BlurLevel5/NumberedMorphs/BlurEditedMorph7.png,Stimuli/BlurLevel5/OriginalBlur/BlurEditedMorph7.png,Stimuli/BlurMorphTrio/EditedMorph7.png,010013right.gif,Stimuli/normal_thumbnails/7right.gif,0,0,0,0,0,14,14,6,,,61,1,15,187,-2.481365379,-0.304673359,7,199.5162392,200.0159772,199.5162392,200.0159772,94.55782313,1574359945,1574359950,5.23391223,81,11,-4,-4,1574359942,1574359945,,,AR,1,21,M,Undergrad,2019_Nov_21_1010,AdjustExp1,3.1.5,59.69497028,Experiment
94,Stimuli/Morph94.JPG,Stimuli/Morph94.png,Stimuli/BlurLevel5/BlurEditedMorph94,Stimuli/BlurLevel5/BlurEditedMorph94.png,Stimuli/BlurLevel5/NumberedMorphs/BlurEditedMorph94.png,Stimuli/BlurLevel5/OriginalBlur/BlurEditedMorph94.png,Stimuli/BlurMorphTrio/EditedMorph94.png,020286right.gif,Stimuli/normal_thumbnails/94right.gif,0,0,0,0,0,15,15,93,,,57,1,16,261,-0.391086163,-2.469220851,94,207.59872,208.0990939,207.59872,208.0990939,97.27891156,1574359953,1574359956,3.317517996,134,92,2,2,1574359950,1574359953,,,AR,1,21,M,Undergrad,2019_Nov_21_1010,AdjustExp1,3.1.5,59.69497028,Experiment
133,Stimuli/Morph133.JPG,Stimuli/Morph133.png,Stimuli/BlurLevel5/BlurEditedMorph133,Stimuli/BlurLevel5/BlurEditedMorph133.png,Stimuli/BlurLevel5/NumberedMorphs/BlurEditedMorph133.png,Stimuli/BlurLevel5/OriginalBlur/BlurEditedMorph133.png,Stimuli/BlurMorphTrio/EditedMorph133.png,None,None,0,0,0,0,0,16,16,132,,,59,1,17,138,-1.857862064,1.672826516,133,213.2489944,213.7492587,213.2489944,213.7492587,85.03401361,1574359958,1574359962,4.083718061,23,144,-11,-11,1574359956,1574359958,,,AR,1,21,M,Undergrad,2019_Nov_21_1010,AdjustExp1,3.1.5,59.69497028,Experiment
49,Stimuli/Morph49.JPG,Stimuli/Morph49.png,Stimuli/BlurLevel5/BlurEditedMorph49,Stimuli/BlurLevel5/BlurEditedMorph49.png,Stimuli/BlurLevel5/NumberedMorphs/BlurEditedMorph49.png,Stimuli/BlurLevel5/OriginalBlur/BlurEditedMorph49.png,Stimuli/BlurMorphTrio/EditedMorph49.png,010135right.gif,Stimuli/normal_thumbnails/49right.gif,0,0,0,0,0,17,17,48,,,76,1,18,237,-1.361597588,-2.09667642,49,219.398686,219.8993647,219.398686,219.8993647,94.55782313,1574359964,1574359966,1.500247002,15,45,4,4,1574359963,1574359964,,,AR,1,21,M,Undergrad,2019_Nov_21_1010,AdjustExp1,3.1.5,59.69497028,Experiment
60,Stimuli/Morph60.JPG,Stimuli/Morph60.png,Stimuli/BlurLevel5/BlurEditedMorph60,Stimuli/BlurLevel5/BlurEditedMorph60.png,Stimuli/BlurLevel5/NumberedMorphs/BlurEditedMorph60.png,Stimuli/BlurLevel5/OriginalBlur/BlurEditedMorph60.png,Stimuli/BlurMorphTrio/EditedMorph60.png,020200right.gif,Stimuli/normal_thumbnails/60right.gif,0,0,0,0,0,18,18,59,,,26,1,19,195,-2.414814566,-0.647047613,60,223.2825827,223.7827064,223.2825827,223.7827064,98.63945578,1574359969,1574359975,6.050153255,110,59,1,1,1574359966,1574359969,,,AR,1,21,M,Undergrad,2019_Nov_21_1010,AdjustExp1,3.1.5,59.69497028,Experiment
146,Stimuli/Morph146.JPG,Stimuli/Morph146.png,Stimuli/BlurLevel5/BlurEditedMorph146,Stimuli/BlurLevel5/BlurEditedMorph146.png,Stimuli/BlurLevel5/NumberedMorphs/BlurEditedMorph146.png,Stimuli/BlurLevel5/OriginalBlur/BlurEditedMorph146.png,Stimuli/BlurMorphTrio/EditedMorph146.png,None,None,0,0,0,0,0,19,19,145,,,49,1,20,180,-2.5,3.06E-16,146,231.8995845,232.399321,231.8995845,232.399321,94.55782313,1574359977,1574359984,6.700216055,15,3,143,-4,1574359975,1574359977,,,AR,1,21,M,Undergrad,2019_Nov_21_1010,AdjustExp1,3.1.5,59.69497028,Experiment
121,Stimuli/Morph121.JPG,Stimuli/Morph121.png,Stimuli/BlurLevel5/BlurEditedMorph121,Stimuli/BlurLevel5/BlurEditedMorph121.png,Stimuli/BlurLevel5/NumberedMorphs/BlurEditedMorph121.png,Stimuli/BlurLevel5/OriginalBlur/BlurEditedMorph121.png,Stimuli/BlurMorphTrio/EditedMorph121.png,None,None,0,0,0,0,0,20,20,120,,,82,1,21,238,-1.324798161,-2.12012024,121,240.9037747,241.3987254,240.9037747,241.3987254,61.9047619,1574359986,1574359988,2.167600155,14,2,119,-28,1574359984,1574359986,,,AR,1,21,M,Undergrad,2019_Nov_21_1010,AdjustExp1,3.1.5,59.69497028,Experiment
77,Stimuli/Morph77.JPG,Stimuli/Morph77.png,Stimuli/BlurLevel5/BlurEditedMorph77,Stimuli/BlurLevel5/BlurEditedMorph77.png,Stimuli/BlurLevel5/NumberedMorphs/BlurEditedMorph77.png,Stimuli/BlurLevel5/OriginalBlur/BlurEditedMorph77.png,Stimuli/BlurMorphTrio/EditedMorph77.png,020235right.gif,Stimuli/normal_thumbnails/77right.gif,0,0,0,0,0,21,21,76,,,20,1,22,79,0.477022488,2.454067959,77,245.4988072,245.9987134,245.4988072,245.9987134,68.70748299,1574359991,1574359994,3.233270168,34,100,-23,-23,1574359988,1574359990,,,AR,1,21,M,Undergrad,2019_Nov_21_1010,AdjustExp1,3.1.5,59.69497028,Experiment
127,Stimuli/Morph127.JPG,Stimuli/Morph127.png,Stimuli/BlurLevel5/BlurEditedMorph127,Stimuli/BlurLevel5/BlurEditedMorph127.png,Stimuli/BlurLevel5/NumberedMorphs/BlurEditedMorph127.png,Stimuli/BlurLevel5/OriginalBlur/BlurEditedMorph127.png,Stimuli/BlurMorphTrio/EditedMorph127.png,None,None,0,0,0,0,0,22,22,126,,,45,1,23,112,-0.936516484,2.317959636,127,251.0821445,251.5821998,251.0821445,251.5821998,94.55782313,1574359996,1574359998,2.150221825,107,131,-4,-4,1574359994,1574359996,,,AR,1,21,M,Undergrad,2019_Nov_21_1010,AdjustExp1,3.1.5,59.69497028,Experiment
43,Stimuli/Morph43.JPG,Stimuli/Morph43.png,Stimuli/BlurLevel5/BlurEditedMorph43,Stimuli/BlurLevel5/BlurEditedMorph43.png,Stimuli/BlurLevel5/NumberedMorphs/BlurEditedMorph43.png,Stimuli/BlurLevel5/OriginalBlur/BlurEditedMorph43.png,Stimuli/BlurMorphTrio/EditedMorph43.png,010124right.gif,Stimuli/normal_thumbnails/43right.gif,0,0,0,0,0,23,23,42,,,70,1,24,219,-1.942864904,-1.573300978,43,255.7146528,256.2156059,255.7146528,256.2156059,94.55782313,1574360001,1574360004,3.533443928,127,39,4,4,1574359999,1574360001,,,AR,1,21,M,Undergrad,2019_Nov_21_1010,AdjustExp1,3.1.5,59.69497028,Experiment
139,Stimuli/Morph139.JPG,Stimuli/Morph139.png,Stimuli/BlurLevel5/BlurEditedMorph139,Stimuli/BlurLevel5/BlurEditedMorph139.png,Stimuli/BlurLevel5/NumberedMorphs/BlurEditedMorph139.png,Stimuli/BlurLevel5/OriginalBlur/BlurEditedMorph139.png,Stimuli/BlurMorphTrio/EditedMorph139.png,None,None,0,0,0,0,0,24,24,138,,,25,1,25,111,-0.895919874,2.333951066,139,261.682548,262.1822676,261.682548,262.1822676,97.27891156,1574360007,1574360013,6.41688776,57,137,2,2,1574360005,1574360007,,,AR,1,21,M,Undergrad,2019_Nov_21_1010,AdjustExp1,3.1.5,59.69497028,Experiment
19,Stimuli/Morph19.JPG,Stimuli/Morph19.png,Stimuli/BlurLevel5/BlurEditedMorph19,Stimuli/BlurLevel5/BlurEditedMorph19.png,Stimuli/BlurLevel5/NumberedMorphs/BlurEditedMorph19.png,Stimuli/BlurLevel5/OriginalBlur/BlurEditedMorph19.png,Stimuli/BlurMorphTrio/EditedMorph19.png,010045right.gif,Stimuli/normal_thumbnails/19right.gif,0,0,0,0,0,25,25,18,,,43,1,26,171,-2.469220851,0.391086163,19,270.7150405,271.2153899,270.7150405,271.2153899,72.78911565,1574360016,1574360020,3.783024073,2,146,-127,20,1574360013,1574360016,,,AR,1,21,M,Undergrad,2019_Nov_21_1010,AdjustExp1,3.1.5,59.69497028,Experiment
109,Stimuli/Morph109.JPG,Stimuli/Morph109.png,Stimuli/BlurLevel5/BlurEditedMorph109,Stimuli/BlurLevel5/BlurEditedMorph109.png,Stimuli/BlurLevel5/NumberedMorphs/BlurEditedMorph109.png,Stimuli/BlurLevel5/OriginalBlur/BlurEditedMorph109.png,Stimuli/BlurMorphTrio/EditedMorph109.png,None,None,0,0,0,0,0,26,26,108,,,76,1,27,1,2.499619238,0.043631016,109,276.6325787,277.131802,276.6325787,277.131802,90.47619048,1574360022,1574360025,3.116832972,45,102,7,7,1574360020,1574360022,,,AR,1,21,M,Undergrad,2019_Nov_21_1010,AdjustExp1,3.1.5,59.69497028,Experiment
128,Stimuli/Morph128.JPG,Stimuli/Morph128.png,Stimuli/BlurLevel5/BlurEditedMorph128,Stimuli/BlurLevel5/BlurEditedMorph128.png,Stimuli/BlurLevel5/NumberedMorphs/BlurEditedMorph128.png,Stimuli/BlurLevel5/OriginalBlur/BlurEditedMorph128.png,Stimuli/BlurMorphTrio/EditedMorph128.png,None,None,0,0,0,0,0,27,27,127,,,69,1,28,288,0.772542486,-2.377641291,128,282.2977889,282.7982144,282.2977889,282.7982144,75.51020408,1574360027,1574360032,4.866333961,117,110,18,18,1574360025,1574360027,,,AR,1,21,M,Undergrad,2019_Nov_21_1010,AdjustExp1,3.1.5,59.69497028,Experiment
106,Stimuli/Morph106.JPG,Stimuli/Morph106.png,Stimuli/BlurLevel5/BlurEditedMorph106,Stimuli/BlurLevel5/BlurEditedMorph106.png,Stimuli/BlurLevel5/NumberedMorphs/BlurEditedMorph106.png,Stimuli/BlurLevel5/OriginalBlur/BlurEditedMorph106.png,Stimuli/BlurMorphTrio/EditedMorph106.png,None,None,0,0,0,0,0,28,28,105,,,91,1,29,133,-1.7049959,1.828384254,106,289.5312379,290.0316613,289.5312379,290.0316613,86.39455782,1574360035,1574360037,2.515944958,1,96,10,10,1574360032,1574360035,,,AR,1,21,M,Undergrad,2019_Nov_21_1010,AdjustExp1,3.1.5,59.69497028,Experiment
86,Stimuli/Morph86.JPG,Stimuli/Morph86.png,Stimuli/BlurLevel5/BlurEditedMorph86,Stimuli/BlurLevel5/BlurEditedMorph86.png,Stimuli/BlurLevel5/NumberedMorphs/BlurEditedMorph86.png,Stimuli/BlurLevel5/OriginalBlur/BlurEditedMorph86.png,Stimuli/BlurMorphTrio/EditedMorph86.png,020266right.gif,Stimuli/normal_thumbnails/86right.gif,0,0,0,0,0,29,29,85,,,83,1,30,267,-0.130839891,-2.496573837,86,294.464729,294.9645314,294.464729,294.9645314,87.75510204,1574360039,1574360041,1.983381033,79,95,-9,-9,1574360037,1574360039,,,AR,1,21,M,Undergrad,2019_Nov_21_1010,AdjustExp1,3.1.5,59.69497028,Experiment
42,Stimuli/Morph42.JPG,Stimuli/Morph42.png,Stimuli/BlurLevel5/BlurEditedMorph42,Stimuli/BlurLevel5/BlurEditedMorph42.png,Stimuli/BlurLevel5/NumberedMorphs/BlurEditedMorph42.png,Stimuli/BlurLevel5/OriginalBlur/BlurEditedMorph42.png,Stimuli/BlurMorphTrio/EditedMorph42.png,010121right.gif,Stimuli/normal_thumbnails/42right.gif,0,0,0,0,0,30,30,41,,,91,1,31,191,-2.454067959,-0.477022488,42,298.8487163,299.347303,298.8487163,299.347303,87.75510204,1574360044,1574360049,4.983631134,108,51,-9,-9,1574360042,1574360044,,,AR,1,21,M,Undergrad,2019_Nov_21_1010,AdjustExp1,3.1.5,59.69497028,Experiment
129,Stimuli/Morph129.JPG,Stimuli/Morph129.png,Stimuli/BlurLevel5/BlurEditedMorph129,Stimuli/BlurLevel5/BlurEditedMorph129.png,Stimuli/BlurLevel5/NumberedMorphs/BlurEditedMorph129.png,Stimuli/BlurLevel5/OriginalBlur/BlurEditedMorph129.png,Stimuli/BlurMorphTrio/EditedMorph129.png,None,None,0,0,0,0,0,31,31,128,,,97,1,32,150,-2.165063509,1.25,129,306.4818901,306.9809221,306.4818901,306.9809221,86.39455782,1574360051,1574360055,3.883392811,28,119,10,10,1574360049,1574360051,,,AR,1,21,M,Undergrad,2019_Nov_21_1010,AdjustExp1,3.1.5,59.69497028,Experiment
24,Stimuli/Morph24.JPG,Stimuli/Morph24.png,Stimuli/BlurLevel5/BlurEditedMorph24,Stimuli/BlurLevel5/BlurEditedMorph24.png,Stimuli/BlurLevel5/NumberedMorphs/BlurEditedMorph24.png,Stimuli/BlurLevel5/OriginalBlur/BlurEditedMorph24.png,Stimuli/BlurMorphTrio/EditedMorph24.png,010068right.gif,Stimuli/normal_thumbnails/24right.gif,0,0,0,0,0,32,32,23,,,96,1,33,188,-2.475670172,-0.347932752,24,313.4853226,313.9805162,313.4853226,313.9805162,90.47619048,1574360059,1574360062,3.96627593,97,31,-7,-7,1574360056,1574360058,,,AR,1,21,M,Undergrad,2019_Nov_21_1010,AdjustExp1,3.1.5,59.69497028,Experiment
63,Stimuli/Morph63.JPG,Stimuli/Morph63.png,Stimuli/BlurLevel5/BlurEditedMorph63,Stimuli/BlurLevel5/BlurEditedMorph63.png,Stimuli/BlurLevel5/NumberedMorphs/BlurEditedMorph63.png,Stimuli/BlurLevel5/OriginalBlur/BlurEditedMorph63.png,Stimuli/BlurMorphTrio/EditedMorph63.png,020206right.gif,Stimuli/normal_thumbnails/63right.gif,0,0,0,0,0,33,33,62,,,91,1,34,32,2.12012024,1.324798161,63,319.8816721,320.3805531,319.8816721,320.3805531,98.63945578,1574360065,1574360069,4.550835133,8,64,-1,-1,1574360063,1574360065,,,AR,1,21,M,Undergrad,2019_Nov_21_1010,AdjustExp1,3.1.5,59.69497028,Experiment
53,Stimuli/Morph53.JPG,Stimuli/Morph53.png,Stimuli/BlurLevel5/BlurEditedMorph53,Stimuli/BlurLevel5/BlurEditedMorph53.png,Stimuli/BlurLevel5/NumberedMorphs/BlurEditedMorph53.png,Stimuli/BlurLevel5/OriginalBlur/BlurEditedMorph53.png,Stimuli/BlurMorphTrio/EditedMorph53.png,010149right.gif,Stimuli/normal_thumbnails/53right.gif,0,0,0,0,0,34,34,52,,,27,1,35,20,2.349231552,0.855050358,53,327.0968747,327.5979749,327.0968747,327.5979749,98.63945578,1574360072,1574360076,4.116600037,104,52,1,1,1574360070,1574360072,,,AR,1,21,M,Undergrad,2019_Nov_21_1010,AdjustExp1,3.1.5,59.69497028,Experiment
72,Stimuli/Morph72.JPG,Stimuli/Morph72.png,Stimuli/BlurLevel5/BlurEditedMorph72,Stimuli/BlurLevel5/BlurEditedMorph72.png,Stimuli/BlurLevel5/NumberedMorphs/BlurEditedMorph72.png,Stimuli/BlurLevel5/OriginalBlur/BlurEditedMorph72.png,Stimuli/BlurMorphTrio/EditedMorph72.png,020227right.gif,Stimuli/normal_thumbnails/72right.gif,0,0,0,0,0,35,35,71,,,40,1,36,103,-0.562377636,2.435925162,72,333.8146803,334.3139597,333.8146803,334.3139597,97.27891156,1574360079,1574360081,2.366585255,33,74,-2,-2,1574360076,1574360079,,,AR,1,21,M,Undergrad,2019_Nov_21_1010,AdjustExp1,3.1.5,59.69497028,Experiment
119,Stimuli/Morph119.JPG,Stimuli/Morph119.png,Stimuli/BlurLevel5/BlurEditedMorph119,Stimuli/BlurLevel5/BlurEditedMorph119.png,Stimuli/BlurLevel5/NumberedMorphs/BlurEditedMorph119.png,Stimuli/BlurLevel5/OriginalBlur/BlurEditedMorph119.png,Stimuli/BlurMorphTrio/EditedMorph119.png,None,None,0,0,0,0,0,36,36,118,,,12,1,37,34,2.072593931,1.397982259,119,339.1802053,339.6812679,339.1802053,339.6812679,97.27891156,1574360084,1574360087,3.134123087,84,121,-2,-2,1574360081,1574360084,,,AR,1,21,M,Undergrad,2019_Nov_21_1010,AdjustExp1,3.1.5,59.69497028,Experiment
9,Stimuli/Morph9.JPG,Stimuli/Morph9.png,Stimuli/BlurLevel5/BlurEditedMorph9,Stimuli/BlurLevel5/BlurEditedMorph9.png,Stimuli/BlurLevel5/NumberedMorphs/BlurEditedMorph9.png,Stimuli/BlurLevel5/OriginalBlur/BlurEditedMorph9.png,Stimuli/BlurMorphTrio/EditedMorph9.png,010015right.gif,Stimuli/normal_thumbnails/9right.gif,0,0,0,0,0,37,37,8,,,70,1,38,119,-1.212024051,2.186549268,9,344.7493248,345.2471893,344.7493248,345.2471893,93.19727891,1574360090,1574360094,4.032866001,37,14,-5,-5,1574360088,1574360090,,,AR,1,21,M,Undergrad,2019_Nov_21_1010,AdjustExp1,3.1.5,59.69497028,Experiment
59,Stimuli/Morph59.JPG,Stimuli/Morph59.png,Stimuli/BlurLevel5/BlurEditedMorph59,Stimuli/BlurLevel5/BlurEditedMorph59.png,Stimuli/BlurLevel5/NumberedMorphs/BlurEditedMorph59.png,Stimuli/BlurLevel5/OriginalBlur/BlurEditedMorph59.png,Stimuli/BlurMorphTrio/EditedMorph59.png,010160right.gif,Stimuli/normal_thumbnails/59right.gif,0,0,0,0,0,38,38,58,,,17,1,39,39,1.942864904,1.573300978,59,351.2011608,351.6971241,351.2011608,351.6971241,98.63945578,1574360096,1574360099,2.949127197,61,60,-1,-1,1574360094,1574360096,,,AR,1,21,M,Undergrad,2019_Nov_21_1010,AdjustExp1,3.1.5,59.69497028,Experiment
67,Stimuli/Morph67.JPG,Stimuli/Morph67.png,Stimuli/BlurLevel5/BlurEditedMorph67,Stimuli/BlurLevel5/BlurEditedMorph67.png,Stimuli/BlurLevel5/NumberedMorphs/BlurEditedMorph67.png,Stimuli/BlurLevel5/OriginalBlur/BlurEditedMorph67.png,Stimuli/BlurMorphTrio/EditedMorph67.png,020217right.gif,Stimuli/normal_thumbnails/67right.gif,0,0,0,0,0,39,39,66,,,3,1,40,10,2.462019383,0.434120444,67,356.680857,357.1808565,356.680857,357.1808565,100,1574360102,1574360104,1.866502047,21,67,0,0,1574360099,1574360102,,,AR,1,21,M,Undergrad,2019_Nov_21_1010,AdjustExp1,3.1.5,59.69497028,Experiment
44,Stimuli/Morph44.JPG,Stimuli/Morph44.png,Stimuli/BlurLevel5/BlurEditedMorph44,Stimuli/BlurLevel5/BlurEditedMorph44.png,Stimuli/BlurLevel5/NumberedMorphs/BlurEditedMorph44.png,Stimuli/BlurLevel5/OriginalBlur/BlurEditedMorph44.png,Stimuli/BlurMorphTrio/EditedMorph44.png,010126right.gif,Stimuli/normal_thumbnails/44right.gif,0,0,0,0,0,40,40,43,,,96,1,41,260,-0.434120444,-2.462019383,44,361.3844128,361.8805661,361.3844128,361.8805661,86.39455782,1574360106,1574360113,6.434206247,131,54,-10,-10,1574360104,1574360106,,,AR,1,21,M,Undergrad,2019_Nov_21_1010,AdjustExp1,3.1.5,59.69497028,Experiment
8,Stimuli/Morph8.JPG,Stimuli/Morph8.png,Stimuli/BlurLevel5/BlurEditedMorph8,Stimuli/BlurLevel5/BlurEditedMorph8.png,Stimuli/BlurLevel5/NumberedMorphs/BlurEditedMorph8.png,Stimuli/BlurLevel5/OriginalBlur/BlurEditedMorph8.png,Stimuli/BlurMorphTrio/EditedMorph8.png,010014right.gif,Stimuli/normal_thumbnails/8right.gif,0,0,0,0,0,41,41,7,,,20,1,42,153,-2.22751631,1.134976249,8,370.43026,370.9301107,370.43026,370.9301107,93.19727891,1574360115,1574360119,3.749689817,49,13,-5,-5,1574360113,1574360115,,,AR,1,21,M,Undergrad,2019_Nov_21_1010,AdjustExp1,3.1.5,59.69497028,Experiment
12,Stimuli/Morph12.JPG,Stimuli/Morph12.png,Stimuli/BlurLevel5/BlurEditedMorph12,Stimuli/BlurLevel5/BlurEditedMorph12.png,Stimuli/BlurLevel5/NumberedMorphs/BlurEditedMorph12.png,Stimuli/BlurLevel5/OriginalBlur/BlurEditedMorph12.png,Stimuli/BlurMorphTrio/EditedMorph12.png,010026right.gif,Stimuli/normal_thumbnails/12right.gif,0,0,0,0,0,42,42,11,,,53,1,43,92,-0.087248742,2.498477068,12,376.9848616,377.4800857,376.9848616,377.4800857,91.83673469,1574360122,1574360129,6.583508968,77,18,-6,-6,1574360119,1574360122,,,AR,1,21,M,Undergrad,2019_Nov_21_1010,AdjustExp1,3.1.5,59.69497028,Experiment
32,Stimuli/Morph32.JPG,Stimuli/Morph32.png,Stimuli/BlurLevel5/BlurEditedMorph32,Stimuli/BlurLevel5/BlurEditedMorph32.png,Stimuli/BlurLevel5/NumberedMorphs/BlurEditedMorph32.png,Stimuli/BlurLevel5/OriginalBlur/BlurEditedMorph32.png,Stimuli/BlurMorphTrio/EditedMorph32.png,010080right.gif,Stimuli/normal_thumbnails/32right.gif,0,0,0,0,0,43,43,31,,,26,1,44,113,-0.976827821,2.301262134,32,386.0970782,386.5966549,386.0970782,386.5966549,91.83673469,1574360131,1574360138,7.150063276,74,26,6,6,1574360129,1574360131,,,AR,1,21,M,Undergrad,2019_Nov_21_1010,AdjustExp1,3.1.5,59.69497028,Experiment
120,Stimuli/Morph120.JPG,Stimuli/Morph120.png,Stimuli/BlurLevel5/BlurEditedMorph120,Stimuli/BlurLevel5/BlurEditedMorph120.png,Stimuli/BlurLevel5/NumberedMorphs/BlurEditedMorph120.png,Stimuli/BlurLevel5/OriginalBlur/BlurEditedMorph120.png,Stimuli/BlurMorphTrio/EditedMorph120.png,None,None,0,0,0,0,0,44,44,119,,,34,1,45,145,-2.047880111,1.433941091,120,396.086852,396.5801671,396.086852,396.5801671,90.47619048,1574360141,1574360149,7.998802185,52,127,-7,-7,1574360139,1574360141,,,AR,1,21,M,Undergrad,2019_Nov_21_1010,AdjustExp1,3.1.5,59.69497028,Experiment
95,Stimuli/Morph95.JPG,Stimuli/Morph95.png,Stimuli/BlurLevel5/BlurEditedMorph95,Stimuli/BlurLevel5/BlurEditedMorph95.png,Stimuli/BlurLevel5/NumberedMorphs/BlurEditedMorph95.png,Stimuli/BlurLevel5/OriginalBlur/BlurEditedMorph95.png,Stimuli/BlurMorphTrio/EditedMorph95.png,020287right.gif,Stimuli/normal_thumbnails/95right.gif,0,0,0,0,0,45,45,94,,,17,1,46,254,-0.68909339,-2.40315424,95,406.5165826,407.0126609,406.5165826,407.0126609,80.95238095,1574360152,1574360154,2.916240692,127,109,-14,-14,1574360149,1574360151,,,AR,1,21,M,Undergrad,2019_Nov_21_1010,AdjustExp1,3.1.5,59.69497028,Experiment
61,Stimuli/Morph61.JPG,Stimuli/Morph61.png,Stimuli/BlurLevel5/BlurEditedMorph61,Stimuli/BlurLevel5/BlurEditedMorph61.png,Stimuli/BlurLevel5/NumberedMorphs/BlurEditedMorph61.png,Stimuli/BlurLevel5/OriginalBlur/BlurEditedMorph61.png,Stimuli/BlurMorphTrio/EditedMorph61.png,020201right.gif,Stimuli/normal_thumbnails/61right.gif,0,0,0,0,0,46,46,60,,,58,1,47,10,2.462019383,0.434120444,61,411.7169148,412.2132313,411.7169148,412.2132313,97.27891156,1574360157,1574360160,3.31633997,48,63,-2,-2,1574360155,1574360157,,,AR,1,21,M,Undergrad,2019_Nov_21_1010,AdjustExp1,3.1.5,59.69497028,Experiment
27,Stimuli/Morph27.JPG,Stimuli/Morph27.png,Stimuli/BlurLevel5/BlurEditedMorph27,Stimuli/BlurLevel5/BlurEditedMorph27.png,Stimuli/BlurLevel5/NumberedMorphs/BlurEditedMorph27.png,Stimuli/BlurLevel5/OriginalBlur/BlurEditedMorph27.png,Stimuli/BlurMorphTrio/EditedMorph27.png,010072right.gif,Stimuli/normal_thumbnails/27right.gif,0,0,0,0,0,47,47,26,,,28,1,48,268,-0.087248742,-2.498477068,27,417.8464562,418.3462852,417.8464562,418.3462852,93.19727891,1574360163,1574360171,7.900045156,60,32,-5,-5,1574360160,1574360163,,,AR,1,21,M,Undergrad,2019_Nov_21_1010,AdjustExp1,3.1.5,59.69497028,Experiment
21,Stimuli/Morph21.JPG,Stimuli/Morph21.png,Stimuli/BlurLevel5/BlurEditedMorph21,Stimuli/BlurLevel5/BlurEditedMorph21.png,Stimuli/BlurLevel5/NumberedMorphs/BlurEditedMorph21.png,Stimuli/BlurLevel5/OriginalBlur/BlurEditedMorph21.png,Stimuli/BlurMorphTrio/EditedMorph21.png,010049right.gif,Stimuli/normal_thumbnails/21right.gif,0,0,0,0,0,48,48,20,,,12,1,49,350,2.462019383,-0.434120444,21,428.7295304,429.2295834,428.7295304,429.2295834,97.27891156,1574360174,1574360177,3.11707592,120,19,2,2,1574360171,1574360174,,,AR,1,21,M,Undergrad,2019_Nov_21_1010,AdjustExp1,3.1.5,59.69497028,Experiment
116,Stimuli/Morph116.JPG,Stimuli/Morph116.png,Stimuli/BlurLevel5/BlurEditedMorph116,Stimuli/BlurLevel5/BlurEditedMorph116.png,Stimuli/BlurLevel5/NumberedMorphs/BlurEditedMorph116.png,Stimuli/BlurLevel5/OriginalBlur/BlurEditedMorph116.png,Stimuli/BlurMorphTrio/EditedMorph116.png,None,None,0,0,0,0,0,49,49,115,,,60,1,50,293,0.976827821,-2.301262134,116,434.6128998,435.1130407,434.6128998,435.1130407,89.11564626,1574360180,1574360185,4.933489084,8,124,-8,-8,1574360177,1574360180,,,AR,1,21,M,Undergrad,2019_Nov_21_1010,AdjustExp1,3.1.5,59.69497028,Experiment
38,Stimuli/Morph38.JPG,Stimuli/Morph38.png,Stimuli/BlurLevel5/BlurEditedMorph38,Stimuli/BlurLevel5/BlurEditedMorph38.png,Stimuli/BlurLevel5/NumberedMorphs/BlurEditedMorph38.png,Stimuli/BlurLevel5/OriginalBlur/BlurEditedMorph38.png,Stimuli/BlurMorphTrio/EditedMorph38.png,010108right.gif,Stimuli/normal_thumbnails/38right.gif,0,0,0,0,0,50,50,37,,,16,1,51,116,-1.095927867,2.246985116,38,442.2964167,442.7963134,442.2964167,442.7963134,90.47619048,1574360187,1574360199,11.65018511,128,31,7,7,1574360185,1574360187,,,AR,1,21,M,Undergrad,2019_Nov_21_1010,AdjustExp1,3.1.5,59.69497028,Experiment
34,Stimuli/Morph34.JPG,Stimuli/Morph34.png,Stimuli/BlurLevel5/BlurEditedMorph34,Stimuli/BlurLevel5/BlurEditedMorph34.png,Stimuli/BlurLevel5/NumberedMorphs/BlurEditedMorph34.png,Stimuli/BlurLevel5/OriginalBlur/BlurEditedMorph34.png,Stimuli/BlurMorphTrio/EditedMorph34.png,010090right.gif,Stimuli/normal_thumbnails/34right.gif,0,0,0,0,0,51,51,33,,,18,1,52,257,-0.562377636,-2.435925162,34,456.3008233,456.7961298,456.3008233,456.7961298,94.55782313,1574360201,1574360205,3.683329105,129,38,-4,-4,1574360199,1574360201,,,AR,1,21,M,Undergrad,2019_Nov_21_1010,AdjustExp1,3.1.5,59.69497028,Experiment
80,Stimuli/Morph80.JPG,Stimuli/Morph80.png,Stimuli/BlurLevel5/BlurEditedMorph80,Stimuli/BlurLevel5/BlurEditedMorph80.png,Stimuli/BlurLevel5/NumberedMorphs/BlurEditedMorph80.png,Stimuli/BlurLevel5/OriginalBlur/BlurEditedMorph80.png,Stimuli/BlurMorphTrio/EditedMorph80.png,020240right.gif,Stimuli/normal_thumbnails/80right.gif,0,0,0,0,0,52,52,79,,,76,1,53,184,-2.493910126,-0.174391184,80,462.2135917,462.7125339,462.2135917,462.7125339,90.47619048,1574360207,1574360209,2.21547699,78,87,-7,-7,1574360205,1574360207,,,AR,1,21,M,Undergrad,2019_Nov_21_1010,AdjustExp1,3.1.5,59.69497028,Experiment
73,Stimuli/Morph73.JPG,Stimuli/Morph73.png,Stimuli/BlurLevel5/BlurEditedMorph73,Stimuli/BlurLevel5/BlurEditedMorph73.png,Stimuli/BlurLevel5/NumberedMorphs/BlurEditedMorph73.png,Stimuli/BlurLevel5/OriginalBlur/BlurEditedMorph73.png,Stimuli/BlurMorphTrio/EditedMorph73.png,020230right.gif,Stimuli/normal_thumbnails/73right.gif,0,0,0,0,0,53,53,72,,,12,1,54,32,2.12012024,1.324798161,73,466.8127865,467.3124756,466.8127865,467.3124756,87.75510204,1574360212,1574360216,4.28335166,133,82,-9,-9,1574360210,1574360212,,,AR,1,21,M,Undergrad,2019_Nov_21_1010,AdjustExp1,3.1.5,59.69497028,Experiment
75,Stimuli/Morph75.JPG,Stimuli/Morph75.png,Stimuli/BlurLevel5/BlurEditedMorph75,Stimuli/BlurLevel5/BlurEditedMorph75.png,Stimuli/BlurLevel5/NumberedMorphs/BlurEditedMorph75.png,Stimuli/BlurLevel5/OriginalBlur/BlurEditedMorph75.png,Stimuli/BlurMorphTrio/EditedMorph75.png,020233right.gif,Stimuli/normal_thumbnails/75right.gif,0,0,0,0,0,54,54,74,,,18,1,55,181,-2.499619238,-0.043631016,75,473.2134687,473.7121251,473.2134687,473.7121251,95.91836735,1574360218,1574360221,2.332633018,134,78,-3,-3,1574360216,1574360218,,,AR,1,21,M,Undergrad,2019_Nov_21_1010,AdjustExp1,3.1.5,59.69497028,Experiment
142,Stimuli/Morph142.JPG,Stimuli/Morph142.png,Stimuli/BlurLevel5/BlurEditedMorph142,Stimuli/BlurLevel5/BlurEditedMorph142.png,Stimuli/BlurLevel5/NumberedMorphs/BlurEditedMorph142.png,Stimuli/BlurLevel5/OriginalBlur/BlurEditedMorph142.png,Stimuli/BlurMorphTrio/EditedMorph142.png,None,None,0,0,0,0,0,55,55,141,,,48,1,56,100,-0.434120444,2.462019383,142,477.8295947,478.3291676,477.8295947,478.3291676,75.51020408,1574360223,1574360229,5.884377718,73,124,18,18,1574360221,1574360223,,,AR,1,21,M,Undergrad,2019_Nov_21_1010,AdjustExp1,3.1.5,59.69497028,Experiment
145,Stimuli/Morph145.JPG,Stimuli/Morph145.png,Stimuli/BlurLevel5/BlurEditedMorph145,Stimuli/BlurLevel5/BlurEditedMorph145.png,Stimuli/BlurLevel5/NumberedMorphs/BlurEditedMorph145.png,Stimuli/BlurLevel5/OriginalBlur/BlurEditedMorph145.png,Stimuli/BlurMorphTrio/EditedMorph145.png,None,None,0,0,0,0,0,56,56,144,,,54,1,57,161,-2.363796439,0.813920386,145,486.0008188,486.4956813,486.0008188,486.4956813,100,1574360231,1574360235,3.633235931,8,145,0,0,1574360229,1574360231,,,AR,1,21,M,Undergrad,2019_Nov_21_1010,AdjustExp1,3.1.5,59.69497028,Experiment
25,Stimuli/Morph25.JPG,Stimuli/Morph25.png,Stimuli/BlurLevel5/BlurEditedMorph25,Stimuli/BlurLevel5/BlurEditedMorph25.png,Stimuli/BlurLevel5/NumberedMorphs/BlurEditedMorph25.png,Stimuli/BlurLevel5/OriginalBlur/BlurEditedMorph25.png,Stimuli/BlurMorphTrio/EditedMorph25.png,010069right.gif,Stimuli/normal_thumbnails/25right.gif,0,0,0,0,0,57,57,24,,,67,1,58,121,-1.287595187,2.142918252,25,492.1623457,492.6618995,492.1623457,492.6618995,91.83673469,1574360237,1574360240,3.233623743,27,31,-6,-6,1574360235,1574360237,,,AR,1,21,M,Undergrad,2019_Nov_21_1010,AdjustExp1,3.1.5,59.69497028,Experiment
29,Stimuli/Morph29.JPG,Stimuli/Morph29.png,Stimuli/BlurLevel5/BlurEditedMorph29,Stimuli/BlurLevel5/BlurEditedMorph29.png,Stimuli/BlurLevel5/NumberedMorphs/BlurEditedMorph29.png,Stimuli/BlurLevel5/OriginalBlur/BlurEditedMorph29.png,Stimuli/BlurMorphTrio/EditedMorph29.png,010074right.gif,Stimuli/normal_thumbnails/29right.gif,0,0,0,0,0,58,58,28,,,98,1,59,115,-1.056545654,2.265769468,29,498.2449759,498.7452319,498.2449759,498.7452319,89.11564626,1574360243,1574360252,9.13316679,48,21,8,8,1574360241,1574360243,,,AR,1,21,M,Undergrad,2019_Nov_21_1010,AdjustExp1,3.1.5,59.69497028,Experiment
64,Stimuli/Morph64.JPG,Stimuli/Morph64.png,Stimuli/BlurLevel5/BlurEditedMorph64,Stimuli/BlurLevel5/BlurEditedMorph64.png,Stimuli/BlurLevel5/NumberedMorphs/BlurEditedMorph64.png,Stimuli/BlurLevel5/OriginalBlur/BlurEditedMorph64.png,Stimuli/BlurMorphTrio/EditedMorph64.png,020208right.gif,Stimuli/normal_thumbnails/64right.gif,0,0,0,0,0,59,59,63,,,55,1,60,118,-1.173678907,2.207368982,64,509.961162,510.462009,509.961162,510.462009,97.27891156,1574360255,1574360258,3.233314037,96,66,-2,-2,1574360253,1574360255,,,AR,1,21,M,Undergrad,2019_Nov_21_1010,AdjustExp1,3.1.5,59.69497028,Experiment
22,Stimuli/Morph22.JPG,Stimuli/Morph22.png,Stimuli/BlurLevel5/BlurEditedMorph22,Stimuli/BlurLevel5/BlurEditedMorph22.png,Stimuli/BlurLevel5/NumberedMorphs/BlurEditedMorph22.png,Stimuli/BlurLevel5/OriginalBlur/BlurEditedMorph22.png,Stimuli/BlurMorphTrio/EditedMorph22.png,010055right.gif,Stimuli/normal_thumbnails/22right.gif,0,0,0,0,0,60,60,21,,,24,1,61,69,0.895919874,2.333951066,22,515.7851622,516.2782793,515.7851622,516.2782793,100,1574360261,1574360266,5.716064692,65,22,0,0,1574360258,1574360261,,,AR,1,21,M,Undergrad,2019_Nov_21_1010,AdjustExp1,3.1.5,59.69497028,Experiment
130,Stimuli/Morph130.JPG,Stimuli/Morph130.png,Stimuli/BlurLevel5/BlurEditedMorph130,Stimuli/BlurLevel5/BlurEditedMorph130.png,Stimuli/BlurLevel5/NumberedMorphs/BlurEditedMorph130.png,Stimuli/BlurLevel5/OriginalBlur/BlurEditedMorph130.png,Stimuli/BlurMorphTrio/EditedMorph130.png,None,None,0,0,0,0,0,61,61,129,,,98,1,62,187,-2.481365379,-0.304673359,130,523.8956779,524.3953823,523.8956779,524.3953823,56.46258503,1574360269,1574360272,3.115823984,50,98,32,32,1574360267,1574360269,,,AR,1,21,M,Undergrad,2019_Nov_21_1010,AdjustExp1,3.1.5,59.69497028,Experiment
4,Stimuli/Morph4.JPG,Stimuli/Morph4.png,Stimuli/BlurLevel5/BlurEditedMorph4,Stimuli/BlurLevel5/BlurEditedMorph4.png,Stimuli/BlurLevel5/NumberedMorphs/BlurEditedMorph4.png,Stimuli/BlurLevel5/OriginalBlur/BlurEditedMorph4.png,Stimuli/BlurMorphTrio/EditedMorph4.png,010010right.gif,Stimuli/normal_thumbnails/4right.gif,0,0,0,0,0,62,62,3,,,98,1,63,95,-0.217889357,2.490486745,4,529.3988088,529.8948069,529.3988088,529.8948069,100,1574360274,1574360279,4.866294146,65,4,0,0,1574360272,1574360274,,,AR,1,21,M,Undergrad,2019_Nov_21_1010,AdjustExp1,3.1.5,59.69497028,Experiment
79,Stimuli/Morph79.JPG,Stimuli/Morph79.png,Stimuli/BlurLevel5/BlurEditedMorph79,Stimuli/BlurLevel5/BlurEditedMorph79.png,Stimuli/BlurLevel5/NumberedMorphs/BlurEditedMorph79.png,Stimuli/BlurLevel5/OriginalBlur/BlurEditedMorph79.png,Stimuli/BlurMorphTrio/EditedMorph79.png,020239right.gif,Stimuli/normal_thumbnails/79right.gif,0,0,0,0,0,63,63,78,,,87,1,64,94,-0.174391184,2.493910126,79,536.5783299,537.0784278,536.5783299,537.0784278,85.03401361,1574360282,1574360285,3.267135143,3,90,-11,-11,1574360280,1574360282,,,AR,1,21,M,Undergrad,2019_Nov_21_1010,AdjustExp1,3.1.5,59.69497028,Experiment
140,Stimuli/Morph140.JPG,Stimuli/Morph140.png,Stimuli/BlurLevel5/BlurEditedMorph140,Stimuli/BlurLevel5/BlurEditedMorph140.png,Stimuli/BlurLevel5/NumberedMorphs/BlurEditedMorph140.png,Stimuli/BlurLevel5/OriginalBlur/BlurEditedMorph140.png,Stimuli/BlurMorphTrio/EditedMorph140.png,None,None,0,0,0,0,0,64,64,139,,,61,1,65,44,1.798349501,1.736645926,140,542.2940298,542.795004,542.2940298,542.795004,90.47619048,1574360287,1574360293,5.883285046,64,133,7,7,1574360285,1574360287,,,AR,1,21,M,Undergrad,2019_Nov_21_1010,AdjustExp1,3.1.5,59.69497028,Experiment
55,Stimuli/Morph55.JPG,Stimuli/Morph55.png,Stimuli/BlurLevel5/BlurEditedMorph55,Stimuli/BlurLevel5/BlurEditedMorph55.png,Stimuli/BlurLevel5/NumberedMorphs/BlurEditedMorph55.png,Stimuli/BlurLevel5/OriginalBlur/BlurEditedMorph55.png,Stimuli/BlurMorphTrio/EditedMorph55.png,010151right.gif,Stimuli/normal_thumbnails/55right.gif,0,0,0,0,0,65,65,54,,,24,1,66,58,1.324798161,2.12012024,55,550.427905,550.9281231,550.427905,550.9281231,89.11564626,1574360295,1574360299,3.917164087,24,63,-8,-8,1574360293,1574360295,,,AR,1,21,M,Undergrad,2019_Nov_21_1010,AdjustExp1,3.1.5,59.69497028,Experiment
31,Stimuli/Morph31.JPG,Stimuli/Morph31.png,Stimuli/BlurLevel5/BlurEditedMorph31,Stimuli/BlurLevel5/BlurEditedMorph31.png,Stimuli/BlurLevel5/NumberedMorphs/BlurEditedMorph31.png,Stimuli/BlurLevel5/OriginalBlur/BlurEditedMorph31.png,Stimuli/BlurMorphTrio/EditedMorph31.png,010079right.gif,Stimuli/normal_thumbnails/31right.gif,0,0,0,0,0,66,66,30,,,58,1,67,23,2.301262134,0.976827821,31,556.6945478,557.1947702,556.6945478,557.1947702,90.47619048,1574360302,1574360305,3.132540941,85,24,7,7,1574360300,1574360302,,,AR,1,21,M,Undergrad,2019_Nov_21_1010,AdjustExp1,3.1.5,59.69497028,Experiment
37,Stimuli/Morph37.JPG,Stimuli/Morph37.png,Stimuli/BlurLevel5/BlurEditedMorph37,Stimuli/BlurLevel5/BlurEditedMorph37.png,Stimuli/BlurLevel5/NumberedMorphs/BlurEditedMorph37.png,Stimuli/BlurLevel5/OriginalBlur/BlurEditedMorph37.png,Stimuli/BlurMorphTrio/EditedMorph37.png,010097right.gif,Stimuli/normal_thumbnails/37right.gif,0,0,0,0,0,67,67,36,,,35,1,68,170,-2.462019383,0.434120444,37,562.4786344,562.9773484,562.4786344,562.9773484,65.98639456,1574360307,1574360316,8.749459267,1,12,25,25,1574360305,1574360307,,,AR,1,21,M,Undergrad,2019_Nov_21_1010,AdjustExp1,3.1.5,59.69497028,Experiment
70,Stimuli/Morph70.JPG,Stimuli/Morph70.png,Stimuli/BlurLevel5/BlurEditedMorph70,Stimuli/BlurLevel5/BlurEditedMorph70.png,Stimuli/BlurLevel5/NumberedMorphs/BlurEditedMorph70.png,Stimuli/BlurLevel5/OriginalBlur/BlurEditedMorph70.png,Stimuli/BlurMorphTrio/EditedMorph70.png,020221right.gif,Stimuli/normal_thumbnails/70right.gif,0,0,0,0,0,68,68,69,,,57,1,69,151,-2.186549268,1.212024051,70,573.9793611,574.4777524,573.9793611,574.4777524,100,1574360319,1574360322,2.90023303,41,70,0,0,1574360316,1574360319,,,AR,1,21,M,Undergrad,2019_Nov_21_1010,AdjustExp1,3.1.5,59.69497028,Experiment
87,Stimuli/Morph87.JPG,Stimuli/Morph87.png,Stimuli/BlurLevel5/BlurEditedMorph87,Stimuli/BlurLevel5/BlurEditedMorph87.png,Stimuli/BlurLevel5/NumberedMorphs/BlurEditedMorph87.png,Stimuli/BlurLevel5/OriginalBlur/BlurEditedMorph87.png,Stimuli/BlurMorphTrio/EditedMorph87.png,020270right.gif,Stimuli/normal_thumbnails/87right.gif,0,0,0,0,0,69,69,86,,,42,1,70,348,2.445369002,-0.519779227,87,579.7781554,580.2771564,579.7781554,580.2771564,97.27891156,1574360325,1574360327,2.232518911,65,89,-2,-2,1574360322,1574360325,,,AR,1,21,M,Undergrad,2019_Nov_21_1010,AdjustExp1,3.1.5,59.69497028,Experiment
124,Stimuli/Morph124.JPG,Stimuli/Morph124.png,Stimuli/BlurLevel5/BlurEditedMorph124,Stimuli/BlurLevel5/BlurEditedMorph124.png,Stimuli/BlurLevel5/NumberedMorphs/BlurEditedMorph124.png,Stimuli/BlurLevel5/OriginalBlur/BlurEditedMorph124.png,Stimuli/BlurMorphTrio/EditedMorph124.png,None,None,0,0,0,0,0,70,70,123,,,64,1,71,358,2.498477068,-0.087248742,124,584.4779529,584.9771637,584.4779529,584.9771637,85.03401361,1574360330,1574360334,4.132771015,131,113,11,11,1574360327,1574360330,,,AR,1,21,M,Undergrad,2019_Nov_21_1010,AdjustExp1,3.1.5,59.69497028,Experiment
83,Stimuli/Morph83.JPG,Stimuli/Morph83.png,Stimuli/BlurLevel5/BlurEditedMorph83,Stimuli/BlurLevel5/BlurEditedMorph83.png,Stimuli/BlurLevel5/NumberedMorphs/BlurEditedMorph83.png,Stimuli/BlurLevel5/OriginalBlur/BlurEditedMorph83.png,Stimuli/BlurMorphTrio/EditedMorph83.png,020259right.gif,Stimuli/normal_thumbnails/83right.gif,0,0,0,0,0,71,71,82,,,80,1,72,184,-2.493910126,-0.174391184,83,591.0306975,591.5277024,591.0306975,591.5277024,82.31292517,1574360336,1574360340,4.349220991,94,96,-13,-13,1574360334,1574360336,,,AR,1,21,M,Undergrad,2019_Nov_21_1010,AdjustExp1,3.1.5,59.69497028,Experiment
11,Stimuli/Morph11.JPG,Stimuli/Morph11.png,Stimuli/BlurLevel5/BlurEditedMorph11,Stimuli/BlurLevel5/BlurEditedMorph11.png,Stimuli/BlurLevel5/NumberedMorphs/BlurEditedMorph11.png,Stimuli/BlurLevel5/OriginalBlur/BlurEditedMorph11.png,Stimuli/BlurMorphTrio/EditedMorph11.png,010024right.gif,Stimuli/normal_thumbnails/11right.gif,0,0,0,0,0,72,72,10,,,73,1,73,192,-2.445369002,-0.519779227,11,597.6615296,598.1608204,597.6615296,598.1608204,91.83673469,1574360343,1574360346,3.183017254,130,17,-6,-6,1574360341,1574360343,,,AR,1,21,M,Undergrad,2019_Nov_21_1010,AdjustExp1,3.1.5,59.69497028,Experiment
33,Stimuli/Morph33.JPG,Stimuli/Morph33.png,Stimuli/BlurLevel5/BlurEditedMorph33,Stimuli/BlurLevel5/BlurEditedMorph33.png,Stimuli/BlurLevel5/NumberedMorphs/BlurEditedMorph33.png,Stimuli/BlurLevel5/OriginalBlur/BlurEditedMorph33.png,Stimuli/BlurMorphTrio/EditedMorph33.png,010089right.gif,Stimuli/normal_thumbnails/33right.gif,0,0,0,0,0,73,73,32,,,36,1,74,49,1.640147572,1.886773951,33,603.3605008,603.8605481,603.3605008,603.8605481,95.91836735,1574360348,1574360354,5.566535234,39,36,-3,-3,1574360346,1574360348,,,AR,1,21,M,Undergrad,2019_Nov_21_1010,AdjustExp1,3.1.5,59.69497028,Experiment
100,Stimuli/Morph100.JPG,Stimuli/Morph100.png,Stimuli/BlurLevel5/BlurEditedMorph100,Stimuli/BlurLevel5/BlurEditedMorph100.png,Stimuli/BlurLevel5/NumberedMorphs/BlurEditedMorph100.png,Stimuli/BlurLevel5/OriginalBlur/BlurEditedMorph100.png,Stimuli/BlurMorphTrio/EditedMorph100.png,020297right.gif,Stimuli/normal_thumbnails/100right.gif,0,0,0,0,0,74,74,99,,,55,1,75,62,1.173678907,2.207368982,100,611.5170904,612.0269112,611.5170904,612.0269112,85.03401361,1574360357,1574360360,3.932572126,65,89,11,11,1574360354,1574360357,,,AR,1,21,M,Undergrad,2019_Nov_21_1010,AdjustExp1,3.1.5,59.69497028,Experiment
15,Stimuli/Morph15.JPG,Stimuli/Morph15.png,Stimuli/BlurLevel5/BlurEditedMorph15,Stimuli/BlurLevel5/BlurEditedMorph15.png,Stimuli/BlurLevel5/NumberedMorphs/BlurEditedMorph15.png,Stimuli/BlurLevel5/OriginalBlur/BlurEditedMorph15.png,Stimuli/BlurMorphTrio/EditedMorph15.png,010031right.gif,Stimuli/normal_thumbnails/15right.gif,0,0,0,0,0,75,75,14,,,51,1,76,74,0.68909339,2.40315424,15,618.2997791,618.7938532,618.2997791,618.7938532,95.91836735,1574360363,1574360367,3.531792164,63,18,-3,-3,1574360361,1574360363,,,AR,1,21,M,Undergrad,2019_Nov_21_1010,AdjustExp1,3.1.5,59.69497028,Experiment
90,Stimuli/Morph90.JPG,Stimuli/Morph90.png,Stimuli/BlurLevel5/BlurEditedMorph90,Stimuli/BlurLevel5/BlurEditedMorph90.png,Stimuli/BlurLevel5/NumberedMorphs/BlurEditedMorph90.png,Stimuli/BlurLevel5/OriginalBlur/BlurEditedMorph90.png,Stimuli/BlurMorphTrio/EditedMorph90.png,020275right.gif,Stimuli/normal_thumbnails/90right.gif,0,0,0,0,0,76,76,89,,,30,1,77,189,-2.469220851,-0.391086163,90,624.3766874,624.8762545,624.3766874,624.8762545,95.91836735,1574360369,1574360374,4.265833855,106,93,-3,-3,1574360367,1574360369,,,AR,1,21,M,Undergrad,2019_Nov_21_1010,AdjustExp1,3.1.5,59.69497028,Experiment
134,Stimuli/Morph134.JPG,Stimuli/Morph134.png,Stimuli/BlurLevel5/BlurEditedMorph134,Stimuli/BlurLevel5/BlurEditedMorph134.png,Stimuli/BlurLevel5/NumberedMorphs/BlurEditedMorph134.png,Stimuli/BlurLevel5/OriginalBlur/BlurEditedMorph134.png,Stimuli/BlurMorphTrio/EditedMorph134.png,None,None,0,0,0,0,0,77,77,133,,,4,1,78,192,-2.445369002,-0.519779227,134,631.5004856,631.9933754,631.5004856,631.9933754,82.31292517,1574360376,1574360380,3.900397062,65,147,-13,-13,1574360374,1574360376,,,AR,1,21,M,Undergrad,2019_Nov_21_1010,AdjustExp1,3.1.5,59.69497028,Experiment
52,Stimuli/Morph52.JPG,Stimuli/Morph52.png,Stimuli/BlurLevel5/BlurEditedMorph52,Stimuli/BlurLevel5/BlurEditedMorph52.png,Stimuli/BlurLevel5/NumberedMorphs/BlurEditedMorph52.png,Stimuli/BlurLevel5/OriginalBlur/BlurEditedMorph52.png,Stimuli/BlurMorphTrio/EditedMorph52.png,010148right.gif,Stimuli/normal_thumbnails/52right.gif,0,0,0,0,0,78,78,51,,,26,1,79,24,2.283863644,1.016841608,52,637.6938445,638.1935844,637.6938445,638.1935844,97.27891156,1574360383,1574360385,2.10056901,37,50,2,2,1574360381,1574360383,,,AR,1,21,M,Undergrad,2019_Nov_21_1010,AdjustExp1,3.1.5,59.69497028,Experiment
135,Stimuli/Morph135.JPG,Stimuli/Morph135.png,Stimuli/BlurLevel5/BlurEditedMorph135,Stimuli/BlurLevel5/BlurEditedMorph135.png,Stimuli/BlurLevel5/NumberedMorphs/BlurEditedMorph135.png,Stimuli/BlurLevel5/OriginalBlur/BlurEditedMorph135.png,Stimuli/BlurMorphTrio/EditedMorph135.png,None,None,0,0,0,0,0,79,79,134,,,54,1,80,222,-1.857862064,-1.672826516,135,642.4279556,642.9268565,642.4279556,642.9268565,85.03401361,1574360387,1574360391,3.216503143,99,124,11,11,1574360385,1574360387,,,AR,1,21,M,Undergrad,2019_Nov_21_1010,AdjustExp1,3.1.5,59.69497028,Experiment
147,Stimuli/Morph147.JPG,Stimuli/Morph147.png,Stimuli/BlurLevel5/BlurEditedMorph147,Stimuli/BlurLevel5/BlurEditedMorph147.png,Stimuli/BlurLevel5/NumberedMorphs/BlurEditedMorph147.png,Stimuli/BlurLevel5/OriginalBlur/BlurEditedMorph147.png,Stimuli/BlurMorphTrio/EditedMorph147.png,None,None,0,0,0,0,0,80,80,146,,,16,1,81,205,-2.265769468,-1.056545654,147,648.0264655,648.5265533,648.0264655,648.5265533,74.14965986,1574360393,1574360397,3.949774027,45,19,128,-19,1574360391,1574360393,,,AR,1,21,M,Undergrad,2019_Nov_21_1010,AdjustExp1,3.1.5,59.69497028,Experiment
96,Stimuli/Morph96.JPG,Stimuli/Morph96.png,Stimuli/BlurLevel5/BlurEditedMorph96,Stimuli/BlurLevel5/BlurEditedMorph96.png,Stimuli/BlurLevel5/NumberedMorphs/BlurEditedMorph96.png,Stimuli/BlurLevel5/OriginalBlur/BlurEditedMorph96.png,Stimuli/BlurMorphTrio/EditedMorph96.png,020292right.gif,Stimuli/normal_thumbnails/96right.gif,0,0,0,0,0,81,81,95,,,27,1,82,239,-1.287595187,-2.142918252,96,654.3433608,654.8432525,654.3433608,654.8432525,94.55782313,1574360399,1574360403,3.633015156,138,100,-4,-4,1574360397,1574360399,,,AR,1,21,M,Undergrad,2019_Nov_21_1010,AdjustExp1,3.1.5,59.69497028,Experiment
81,Stimuli/Morph81.JPG,Stimuli/Morph81.png,Stimuli/BlurLevel5/BlurEditedMorph81,Stimuli/BlurLevel5/BlurEditedMorph81.png,Stimuli/BlurLevel5/NumberedMorphs/BlurEditedMorph81.png,Stimuli/BlurLevel5/OriginalBlur/BlurEditedMorph81.png,Stimuli/BlurMorphTrio/EditedMorph81.png,020245right.gif,Stimuli/normal_thumbnails/81right.gif,0,0,0,0,0,82,82,80,,,4,1,83,354,2.486304738,-0.261321158,81,660.3599461,660.8598712,660.3599461,660.8598712,74.14965986,1574360405,1574360408,2.849893093,33,100,-19,-19,1574360403,1574360405,,,AR,1,21,M,Undergrad,2019_Nov_21_1010,AdjustExp1,3.1.5,59.69497028,Experiment
97,Stimuli/Morph97.JPG,Stimuli/Morph97.png,Stimuli/BlurLevel5/BlurEditedMorph97,Stimuli/BlurLevel5/BlurEditedMorph97.png,Stimuli/BlurLevel5/NumberedMorphs/BlurEditedMorph97.png,Stimuli/BlurLevel5/OriginalBlur/BlurEditedMorph97.png,Stimuli/BlurMorphTrio/EditedMorph97.png,020294right.gif,Stimuli/normal_thumbnails/97right.gif,0,0,0,0,0,83,83,96,,,72,1,84,39,1.942864904,1.573300978,97,665.8771529,666.3765412,665.8771529,666.3765412,89.11564626,1574360411,1574360413,2.065868855,89,89,8,8,1574360408,1574360411,,,AR,1,21,M,Undergrad,2019_Nov_21_1010,AdjustExp1,3.1.5,59.69497028,Experiment
62,Stimuli/Morph62.JPG,Stimuli/Morph62.png,Stimuli/BlurLevel5/BlurEditedMorph62,Stimuli/BlurLevel5/BlurEditedMorph62.png,Stimuli/BlurLevel5/NumberedMorphs/BlurEditedMorph62.png,Stimuli/BlurLevel5/OriginalBlur/BlurEditedMorph62.png,Stimuli/BlurMorphTrio/EditedMorph62.png,020205right.gif,Stimuli/normal_thumbnails/62right.gif,0,0,0,0,0,84,84,61,,,90,1,85,253,-0.730929262,-2.39076189,62,670.4487213,670.9430263,670.4487213,670.9430263,98.63945578,1574360415,1574360417,1.349921942,49,61,1,1,1574360413,1574360415,,,AR,1,21,M,Undergrad,2019_Nov_21_1010,AdjustExp1,3.1.5,59.69497028,Experiment
129,Stimuli/Morph129.JPG,Stimuli/Morph129.png,Stimuli/BlurLevel5/BlurEditedMorph129,Stimuli/BlurLevel5/BlurEditedMorph129.png,Stimuli/BlurLevel5/NumberedMorphs/BlurEditedMorph129.png,Stimuli/BlurLevel5/OriginalBlur/BlurEditedMorph129.png,Stimuli/BlurMorphTrio/EditedMorph129.png,None,None,1,0,1,0,0,0,0,128,,,79,2,1,261,-0.391086163,-2.469220851,129,682.8753375,683.3760631,682.8753375,683.3760631,64.62585034,1574360428,1574360441,12.86686611,3,8,121,-26,1574360426,1574360428,space,7.829394275,AR,1,21,M,Undergrad,2019_Nov_21_1010,AdjustExp1,3.1.5,59.69497028,Experiment
39,Stimuli/Morph39.JPG,Stimuli/Morph39.png,Stimuli/BlurLevel5/BlurEditedMorph39,Stimuli/BlurLevel5/BlurEditedMorph39.png,Stimuli/BlurLevel5/NumberedMorphs/BlurEditedMorph39.png,Stimuli/BlurLevel5/OriginalBlur/BlurEditedMorph39.png,Stimuli/BlurMorphTrio/EditedMorph39.png,010109right.gif,Stimuli/normal_thumbnails/39right.gif,1,0,1,0,0,1,1,38,,,58,2,2,51,1.573300978,1.942864904,39,698.2988349,698.7927031,698.2988349,698.7927031,98.63945578,1574360443,1574360447,3.25020504,18,40,-1,-1,1574360441,1574360443,,,AR,1,21,M,Undergrad,2019_Nov_21_1010,AdjustExp1,3.1.5,59.69497028,Experiment
64,Stimuli/Morph64.JPG,Stimuli/Morph64.png,Stimuli/BlurLevel5/BlurEditedMorph64,Stimuli/BlurLevel5/BlurEditedMorph64.png,Stimuli/BlurLevel5/NumberedMorphs/BlurEditedMorph64.png,Stimuli/BlurLevel5/OriginalBlur/BlurEditedMorph64.png,Stimuli/BlurMorphTrio/EditedMorph64.png,020208right.gif,Stimuli/normal_thumbnails/64right.gif,1,0,1,0,0,2,2,63,,,19,2,3,162,-2.377641291,0.772542486,64,704.4937034,704.9926518,704.4937034,704.9926518,95.91836735,1574360450,1574360455,5.399976015,104,67,-3,-3,1574360447,1574360450,,,AR,1,21,M,Undergrad,2019_Nov_21_1010,AdjustExp1,3.1.5,59.69497028,Experiment
19,Stimuli/Morph19.JPG,Stimuli/Morph19.png,Stimuli/BlurLevel5/BlurEditedMorph19,Stimuli/BlurLevel5/BlurEditedMorph19.png,Stimuli/BlurLevel5/NumberedMorphs/BlurEditedMorph19.png,Stimuli/BlurLevel5/OriginalBlur/BlurEditedMorph19.png,Stimuli/BlurMorphTrio/EditedMorph19.png,010045right.gif,Stimuli/normal_thumbnails/19right.gif,1,0,1,0,0,3,3,18,,,93,2,4,236,-1.397982259,-2.072593931,19,712.8084383,713.3088379,712.8084383,713.3088379,86.39455782,1574360458,1574360462,4.033130169,79,29,-10,-10,1574360455,1574360458,,,AR,1,21,M,Undergrad,2019_Nov_21_1010,AdjustExp1,3.1.5,59.69497028,Experiment
78,Stimuli/Morph78.JPG,Stimuli/Morph78.png,Stimuli/BlurLevel5/BlurEditedMorph78,Stimuli/BlurLevel5/BlurEditedMorph78.png,Stimuli/BlurLevel5/NumberedMorphs/BlurEditedMorph78.png,Stimuli/BlurLevel5/OriginalBlur/BlurEditedMorph78.png,Stimuli/BlurMorphTrio/EditedMorph78.png,020238right.gif,Stimuli/normal_thumbnails/78right.gif,1,0,1,0,0,4,4,77,,,30,2,5,43,1.828384254,1.7049959,78,719.3754442,719.8755809,719.3754442,719.8755809,95.91836735,1574360464,1574360467,2.783076048,15,75,3,3,1574360462,1574360464,,,AR,1,21,M,Undergrad,2019_Nov_21_1010,AdjustExp1,3.1.5,59.69497028,Experiment
103,Stimuli/Morph103.JPG,Stimuli/Morph103.png,Stimuli/BlurLevel5/BlurEditedMorph103,Stimuli/BlurLevel5/BlurEditedMorph103.png,Stimuli/BlurLevel5/NumberedMorphs/BlurEditedMorph103.png,Stimuli/BlurLevel5/OriginalBlur/BlurEditedMorph103.png,Stimuli/BlurMorphTrio/EditedMorph103.png,None,None,1,0,1,0,0,5,5,102,,,13,2,6,158,-2.317959636,0.936516484,103,725.0423447,725.5426744,725.0423447,725.5426744,91.83673469,1574360470,1574360472,2.233871698,101,97,6,6,1574360467,1574360470,,,AR,1,21,M,Undergrad,2019_Nov_21_1010,AdjustExp1,3.1.5,59.69497028,Experiment
41,Stimuli/Morph41.JPG,Stimuli/Morph41.png,Stimuli/BlurLevel5/BlurEditedMorph41,Stimuli/BlurLevel5/BlurEditedMorph41.png,Stimuli/BlurLevel5/NumberedMorphs/BlurEditedMorph41.png,Stimuli/BlurLevel5/OriginalBlur/BlurEditedMorph41.png,Stimuli/BlurMorphTrio/EditedMorph41.png,010112right.gif,Stimuli/normal_thumbnails/41right.gif,1,0,1,0,0,6,6,40,,,48,2,7,107,-0.730929262,2.39076189,41,729.8111467,730.3089632,729.8111467,730.3089632,94.55782313,1574360475,1574360478,3.532976866,136,45,-4,-4,1574360473,1574360475,,,AR,1,21,M,Undergrad,2019_Nov_21_1010,AdjustExp1,3.1.5,59.69497028,Experiment
59,Stimuli/Morph59.JPG,Stimuli/Morph59.png,Stimuli/BlurLevel5/BlurEditedMorph59,Stimuli/BlurLevel5/BlurEditedMorph59.png,Stimuli/BlurLevel5/NumberedMorphs/BlurEditedMorph59.png,Stimuli/BlurLevel5/OriginalBlur/BlurEditedMorph59.png,Stimuli/BlurMorphTrio/EditedMorph59.png,010160right.gif,Stimuli/normal_thumbnails/59right.gif,1,0,1,0,0,7,7,58,,,41,2,8,287,0.730929262,-2.39076189,59,735.8912203,736.3924535,735.8912203,736.3924535,94.55782313,1574360481,1574360485,3.984102011,109,63,-4,-4,1574360479,1574360481,,,AR,1,21,M,Undergrad,2019_Nov_21_1010,AdjustExp1,3.1.5,59.69497028,Experiment
20,Stimuli/Morph20.JPG,Stimuli/Morph20.png,Stimuli/BlurLevel5/BlurEditedMorph20,Stimuli/BlurLevel5/BlurEditedMorph20.png,Stimuli/BlurLevel5/NumberedMorphs/BlurEditedMorph20.png,Stimuli/BlurLevel5/OriginalBlur/BlurEditedMorph20.png,Stimuli/BlurMorphTrio/EditedMorph20.png,010046right.gif,Stimuli/normal_thumbnails/20right.gif,1,0,1,0,0,8,8,19,,,79,2,9,169,-2.454067959,0.477022488,20,742.4925358,742.9924195,742.4925358,742.9924195,97.27891156,1574360487,1574360490,2.483432055,137,18,2,2,1574360485,1574360487,,,AR,1,21,M,Undergrad,2019_Nov_21_1010,AdjustExp1,3.1.5,59.69497028,Experiment
32,Stimuli/Morph32.JPG,Stimuli/Morph32.png,Stimuli/BlurLevel5/BlurEditedMorph32,Stimuli/BlurLevel5/BlurEditedMorph32.png,Stimuli/BlurLevel5/NumberedMorphs/BlurEditedMorph32.png,Stimuli/BlurLevel5/OriginalBlur/BlurEditedMorph32.png,Stimuli/BlurMorphTrio/EditedMorph32.png,010080right.gif,Stimuli/normal_thumbnails/32right.gif,1,0,1,0,0,9,9,31,,,10,2,10,238,-1.324798161,-2.12012024,32,747.5414244,748.0421502,747.5414244,748.0421502,91.83673469,1574360493,1574360495,2.633513927,118,26,6,6,1574360490,1574360493,,,AR,1,21,M,Undergrad,2019_Nov_21_1010,AdjustExp1,3.1.5,59.69497028,Experiment
113,Stimuli/Morph113.JPG,Stimuli/Morph113.png,Stimuli/BlurLevel5/BlurEditedMorph113,Stimuli/BlurLevel5/BlurEditedMorph113.png,Stimuli/BlurLevel5/NumberedMorphs/BlurEditedMorph113.png,Stimuli/BlurLevel5/OriginalBlur/BlurEditedMorph113.png,Stimuli/BlurMorphTrio/EditedMorph113.png,None,None,1,0,1,0,0,10,10,112,,,71,2,11,101,-0.477022488,2.454067959,113,752.6251325,753.1251737,752.6251325,753.1251737,76.8707483,1574360498,1574360500,2.666082144,12,96,17,17,1574360495,1574360498,,,AR,1,21,M,Undergrad,2019_Nov_21_1010,AdjustExp1,3.1.5,59.69497028,Experiment
140,Stimuli/Morph140.JPG,Stimuli/Morph140.png,Stimuli/BlurLevel5/BlurEditedMorph140,Stimuli/BlurLevel5/BlurEditedMorph140.png,Stimuli/BlurLevel5/NumberedMorphs/BlurEditedMorph140.png,Stimuli/BlurLevel5/OriginalBlur/BlurEditedMorph140.png,Stimuli/BlurMorphTrio/EditedMorph140.png,None,None,1,0,1,0,0,11,11,139,,,72,2,12,292,0.936516484,-2.317959636,140,757.7981816,758.291809,757.7981816,758.291809,91.83673469,1574360503,1574360506,3.199650049,64,146,-6,-6,1574360501,1574360503,,,AR,1,21,M,Undergrad,2019_Nov_21_1010,AdjustExp1,3.1.5,59.69497028,Experiment
56,Stimuli/Morph56.JPG,Stimuli/Morph56.png,Stimuli/BlurLevel5/BlurEditedMorph56,Stimuli/BlurLevel5/BlurEditedMorph56.png,Stimuli/BlurLevel5/NumberedMorphs/BlurEditedMorph56.png,Stimuli/BlurLevel5/OriginalBlur/BlurEditedMorph56.png,Stimuli/BlurMorphTrio/EditedMorph56.png,010157right.gif,Stimuli/normal_thumbnails/56right.gif,1,0,1,0,0,12,12,55,,,48,2,13,126,-1.469463131,2.022542486,56,763.3076702,763.8077949,763.3076702,763.8077949,82.31292517,1574360508,1574360511,2.666716337,23,69,-13,-13,1574360506,1574360508,,,AR,1,21,M,Undergrad,2019_Nov_21_1010,AdjustExp1,3.1.5,59.69497028,Experiment
43,Stimuli/Morph43.JPG,Stimuli/Morph43.png,Stimuli/BlurLevel5/BlurEditedMorph43,Stimuli/BlurLevel5/BlurEditedMorph43.png,Stimuli/BlurLevel5/NumberedMorphs/BlurEditedMorph43.png,Stimuli/BlurLevel5/OriginalBlur/BlurEditedMorph43.png,Stimuli/BlurMorphTrio/EditedMorph43.png,010124right.gif,Stimuli/normal_thumbnails/43right.gif,1,0,1,0,0,13,13,42,,,19,2,14,96,-0.261321158,2.486304738,43,768.4302583,768.9250918,768.4302583,768.9250918,94.55782313,1574360513,1574360517,4.000554085,117,47,-4,-4,1574360511,1574360513,,,AR,1,21,M,Undergrad,2019_Nov_21_1010,AdjustExp1,3.1.5,59.69497028,Experiment
8,Stimuli/Morph8.JPG,Stimuli/Morph8.png,Stimuli/BlurLevel5/BlurEditedMorph8,Stimuli/BlurLevel5/BlurEditedMorph8.png,Stimuli/BlurLevel5/NumberedMorphs/BlurEditedMorph8.png,Stimuli/BlurLevel5/OriginalBlur/BlurEditedMorph8.png,Stimuli/BlurMorphTrio/EditedMorph8.png,010014right.gif,Stimuli/normal_thumbnails/8right.gif,1,0,1,0,0,14,14,7,,,91,2,15,256,-0.604804739,-2.425739316,8,774.8248724,775.3252863,774.8248724,775.3252863,93.19727891,1574360520,1574360524,4.23389101,63,3,5,5,1574360518,1574360520,,,AR,1,21,M,Undergrad,2019_Nov_21_1010,AdjustExp1,3.1.5,59.69497028,Experiment
93,Stimuli/Morph93.JPG,Stimuli/Morph93.png,Stimuli/BlurLevel5/BlurEditedMorph93,Stimuli/BlurLevel5/BlurEditedMorph93.png,Stimuli/BlurLevel5/NumberedMorphs/BlurEditedMorph93.png,Stimuli/BlurLevel5/OriginalBlur/BlurEditedMorph93.png,Stimuli/BlurMorphTrio/EditedMorph93.png,020280right.gif,Stimuli/normal_thumbnails/93right.gif,1,0,1,0,0,15,15,92,,,61,2,16,352,2.475670172,-0.347932752,93,781.7909497,782.2919947,781.7909497,782.2919947,93.19727891,1574360527,1574360529,1.88379693,86,98,-5,-5,1574360524,1574360527,,,AR,1,21,M,Undergrad,2019_Nov_21_1010,AdjustExp1,3.1.5,59.69497028,Experiment
31,Stimuli/Morph31.JPG,Stimuli/Morph31.png,Stimuli/BlurLevel5/BlurEditedMorph31,Stimuli/BlurLevel5/BlurEditedMorph31.png,Stimuli/BlurLevel5/NumberedMorphs/BlurEditedMorph31.png,Stimuli/BlurLevel5/OriginalBlur/BlurEditedMorph31.png,Stimuli/BlurMorphTrio/EditedMorph31.png,010079right.gif,Stimuli/normal_thumbnails/31right.gif,1,0,1,0,0,16,16,30,,,7,2,17,178,-2.498477068,0.087248742,31,786.341596,786.8411785,786.341596,786.8411785,90.47619048,1574360531,1574360536,4.282284021,85,38,-7,-7,1574360529,1574360531,,,AR,1,21,M,Undergrad,2019_Nov_21_1010,AdjustExp1,3.1.5,59.69497028,Experiment
66,Stimuli/Morph66.JPG,Stimuli/Morph66.png,Stimuli/BlurLevel5/BlurEditedMorph66,Stimuli/BlurLevel5/BlurEditedMorph66.png,Stimuli/BlurLevel5/NumberedMorphs/BlurEditedMorph66.png,Stimuli/BlurLevel5/OriginalBlur/BlurEditedMorph66.png,Stimuli/BlurMorphTrio/EditedMorph66.png,020212right.gif,Stimuli/normal_thumbnails/66right.gif,1,0,1,0,0,17,17,65,,,96,2,18,87,0.130839891,2.496573837,66,793.9243211,794.4241358,793.9243211,794.4241358,95.91836735,1574360539,1574360542,3.183927059,135,63,3,3,1574360536,1574360539,,,AR,1,21,M,Undergrad,2019_Nov_21_1010,AdjustExp1,3.1.5,59.69497028,Experiment
81,Stimuli/Morph81.JPG,Stimuli/Morph81.png,Stimuli/BlurLevel5/BlurEditedMorph81,Stimuli/BlurLevel5/BlurEditedMorph81.png,Stimuli/BlurLevel5/NumberedMorphs/BlurEditedMorph81.png,Stimuli/BlurLevel5/OriginalBlur/BlurEditedMorph81.png,Stimuli/BlurMorphTrio/EditedMorph81.png,020245right.gif,Stimuli/normal_thumbnails/81right.gif,1,0,1,0,0,18,18,80,,,98,2,19,192,-2.445369002,-0.519779227,81,799.8586345,800.3742329,799.8586345,800.3742329,97.27891156,1574360545,1574360549,4.200481653,108,79,2,2,1574360542,1574360545,,,AR,1,21,M,Undergrad,2019_Nov_21_1010,AdjustExp1,3.1.5,59.69497028,Experiment
42,Stimuli/Morph42.JPG,Stimuli/Morph42.png,Stimuli/BlurLevel5/BlurEditedMorph42,Stimuli/BlurLevel5/BlurEditedMorph42.png,Stimuli/BlurLevel5/NumberedMorphs/BlurEditedMorph42.png,Stimuli/BlurLevel5/OriginalBlur/BlurEditedMorph42.png,Stimuli/BlurMorphTrio/EditedMorph42.png,010121right.gif,Stimuli/normal_thumbnails/42right.gif,1,0,1,0,0,19,19,41,,,81,2,20,356,2.493910126,-0.174391184,42,806.5591714,807.0578223,806.5591714,807.0578223,83.67346939,1574360552,1574360559,7.68332696,112,54,-12,-12,1574360549,1574360552,,,AR,1,21,M,Undergrad,2019_Nov_21_1010,AdjustExp1,3.1.5,59.69497028,Experiment
76,Stimuli/Morph76.JPG,Stimuli/Morph76.png,Stimuli/BlurLevel5/BlurEditedMorph76,Stimuli/BlurLevel5/BlurEditedMorph76.png,Stimuli/BlurLevel5/NumberedMorphs/BlurEditedMorph76.png,Stimuli/BlurLevel5/OriginalBlur/BlurEditedMorph76.png,Stimuli/BlurMorphTrio/EditedMorph76.png,020234right.gif,Stimuli/normal_thumbnails/76right.gif,1,0,1,0,0,20,20,75,,,48,2,21,234,-1.469463131,-2.022542486,76,816.6569468,817.1575947,816.6569468,817.1575947,89.11564626,1574360562,1574360568,6.01664114,113,84,-8,-8,1574360560,1574360562,,,AR,1,21,M,Undergrad,2019_Nov_21_1010,AdjustExp1,3.1.5,59.69497028,Experiment
2,Stimuli/Morph2.JPG,Stimuli/Morph2.png,Stimuli/BlurLevel5/BlurEditedMorph2,Stimuli/BlurLevel5/BlurEditedMorph2.png,Stimuli/BlurLevel5/NumberedMorphs/BlurEditedMorph2.png,Stimuli/BlurLevel5/OriginalBlur/BlurEditedMorph2.png,Stimuli/BlurMorphTrio/EditedMorph2.png,010006right.gif,Stimuli/normal_thumbnails/2right.gif,1,0,1,0,0,21,21,1,,,48,2,22,231,-1.573300978,-1.942864904,2,824.8911779,825.390852,824.8911779,825.390852,95.91836735,1574360570,1574360573,3.000271797,109,146,-144,3,1574360568,1574360570,,,AR,1,21,M,Undergrad,2019_Nov_21_1010,AdjustExp1,3.1.5,59.69497028,Experiment
147,Stimuli/Morph147.JPG,Stimuli/Morph147.png,Stimuli/BlurLevel5/BlurEditedMorph147,Stimuli/BlurLevel5/BlurEditedMorph147.png,Stimuli/BlurLevel5/NumberedMorphs/BlurEditedMorph147.png,Stimuli/BlurLevel5/OriginalBlur/BlurEditedMorph147.png,Stimuli/BlurMorphTrio/EditedMorph147.png,None,None,1,0,1,0,0,22,22,146,,,20,2,23,165,-2.414814566,0.647047613,147,830.4400701,830.9412935,830.4400701,830.9412935,83.67346939,1574360575,1574360582,6.483565092,86,135,12,12,1574360573,1574360575,,,AR,1,21,M,Undergrad,2019_Nov_21_1010,AdjustExp1,3.1.5,59.69497028,Experiment
110,Stimuli/Morph110.JPG,Stimuli/Morph110.png,Stimuli/BlurLevel5/BlurEditedMorph110,Stimuli/BlurLevel5/BlurEditedMorph110.png,Stimuli/BlurLevel5/NumberedMorphs/BlurEditedMorph110.png,Stimuli/BlurLevel5/OriginalBlur/BlurEditedMorph110.png,Stimuli/BlurMorphTrio/EditedMorph110.png,None,None,1,0,1,0,0,23,23,109,,,67,2,24,34,2.072593931,1.397982259,110,839.3113352,839.80752,839.3113352,839.80752,87.75510204,1574360584,1574360588,4.132854939,10,101,9,9,1574360582,1574360584,,,AR,1,21,M,Undergrad,2019_Nov_21_1010,AdjustExp1,3.1.5,59.69497028,Experiment
14,Stimuli/Morph14.JPG,Stimuli/Morph14.png,Stimuli/BlurLevel5/BlurEditedMorph14,Stimuli/BlurLevel5/BlurEditedMorph14.png,Stimuli/BlurLevel5/NumberedMorphs/BlurEditedMorph14.png,Stimuli/BlurLevel5/OriginalBlur/BlurEditedMorph14.png,Stimuli/BlurMorphTrio/EditedMorph14.png,010030right.gif,Stimuli/normal_thumbnails/14right.gif,1,0,1,0,0,24,24,13,,,4,2,25,35,2.047880111,1.433941091,14,846.1095872,846.6075561,846.1095872,846.6075561,95.91836735,1574360591,1574360593,1.966893196,146,17,-3,-3,1574360589,1574360591,,,AR,1,21,M,Undergrad,2019_Nov_21_1010,AdjustExp1,3.1.5,59.69497028,Experiment
96,Stimuli/Morph96.JPG,Stimuli/Morph96.png,Stimuli/BlurLevel5/BlurEditedMorph96,Stimuli/BlurLevel5/BlurEditedMorph96.png,Stimuli/BlurLevel5/NumberedMorphs/BlurEditedMorph96.png,Stimuli/BlurLevel5/OriginalBlur/BlurEditedMorph96.png,Stimuli/BlurMorphTrio/EditedMorph96.png,020292right.gif,Stimuli/normal_thumbnails/96right.gif,1,0,1,0,0,25,25,95,,,59,2,26,150,-2.165063509,1.25,96,850.4077399,850.9071483,850.4077399,850.9071483,87.75510204,1574360595,1574360598,2.900310993,50,105,-9,-9,1574360593,1574360595,,,AR,1,21,M,Undergrad,2019_Nov_21_1010,AdjustExp1,3.1.5,59.69497028,Experiment
52,Stimuli/Morph52.JPG,Stimuli/Morph52.png,Stimuli/BlurLevel5/BlurEditedMorph52,Stimuli/BlurLevel5/BlurEditedMorph52.png,Stimuli/BlurLevel5/NumberedMorphs/BlurEditedMorph52.png,Stimuli/BlurLevel5/OriginalBlur/BlurEditedMorph52.png,Stimuli/BlurMorphTrio/EditedMorph52.png,010148right.gif,Stimuli/normal_thumbnails/52right.gif,1,0,1,0,0,26,26,51,,,31,2,27,174,-2.486304738,0.261321158,52,855.77845,856.2737749,855.77845,856.2737749,98.63945578,1574360601,1574360606,5.39935708,74,53,-1,-1,1574360599,1574360601,,,AR,1,21,M,Undergrad,2019_Nov_21_1010,AdjustExp1,3.1.5,59.69497028,Experiment
45,Stimuli/Morph45.JPG,Stimuli/Morph45.png,Stimuli/BlurLevel5/BlurEditedMorph45,Stimuli/BlurLevel5/BlurEditedMorph45.png,Stimuli/BlurLevel5/NumberedMorphs/BlurEditedMorph45.png,Stimuli/BlurLevel5/OriginalBlur/BlurEditedMorph45.png,Stimuli/BlurMorphTrio/EditedMorph45.png,010127right.gif,Stimuli/normal_thumbnails/45right.gif,1,0,1,0,0,27,27,44,,,98,2,28,195,-2.414814566,-0.647047613,45,863.9070025,864.4073659,863.9070025,864.4073659,97.27891156,1574360609,1574360613,3.749396086,99,47,-2,-2,1574360606,1574360609,,,AR,1,21,M,Undergrad,2019_Nov_21_1010,AdjustExp1,3.1.5,59.69497028,Experiment
127,Stimuli/Morph127.JPG,Stimuli/Morph127.png,Stimuli/BlurLevel5/BlurEditedMorph127,Stimuli/BlurLevel5/BlurEditedMorph127.png,Stimuli/BlurLevel5/NumberedMorphs/BlurEditedMorph127.png,Stimuli/BlurLevel5/OriginalBlur/BlurEditedMorph127.png,Stimuli/BlurMorphTrio/EditedMorph127.png,None,None,1,0,1,0,0,28,28,126,,,81,2,29,192,-2.445369002,-0.519779227,127,870.1078118,870.6067665,870.1078118,870.6067665,87.75510204,1574360615,1574360620,5.249737978,145,118,9,9,1574360613,1574360615,,,AR,1,21,M,Undergrad,2019_Nov_21_1010,AdjustExp1,3.1.5,59.69497028,Experiment
69,Stimuli/Morph69.JPG,Stimuli/Morph69.png,Stimuli/BlurLevel5/BlurEditedMorph69,Stimuli/BlurLevel5/BlurEditedMorph69.png,Stimuli/BlurLevel5/NumberedMorphs/BlurEditedMorph69.png,Stimuli/BlurLevel5/OriginalBlur/BlurEditedMorph69.png,Stimuli/BlurMorphTrio/EditedMorph69.png,020220right.gif,Stimuli/normal_thumbnails/69right.gif,1,0,1,0,0,29,29,68,,,26,2,30,191,-2.454067959,-0.477022488,69,877.8731877,878.3733178,877.8731877,878.3733178,97.27891156,1574360623,1574360625,1.683211803,26,71,-2,-2,1574360621,1574360623,,,AR,1,21,M,Undergrad,2019_Nov_21_1010,AdjustExp1,3.1.5,59.69497028,Experiment
70,Stimuli/Morph70.JPG,Stimuli/Morph70.png,Stimuli/BlurLevel5/BlurEditedMorph70,Stimuli/BlurLevel5/BlurEditedMorph70.png,Stimuli/BlurLevel5/NumberedMorphs/BlurEditedMorph70.png,Stimuli/BlurLevel5/OriginalBlur/BlurEditedMorph70.png,Stimuli/BlurMorphTrio/EditedMorph70.png,020221right.gif,Stimuli/normal_thumbnails/70right.gif,1,0,1,0,0,30,30,69,,,84,2,31,328,2.12012024,-1.324798161,70,882.0741135,882.5737162,882.0741135,882.5737162,98.63945578,1574360627,1574360629,1.434356213,52,71,-1,-1,1574360625,1574360627,,,AR,1,21,M,Undergrad,2019_Nov_21_1010,AdjustExp1,3.1.5,59.69497028,Experiment
5,Stimuli/Morph5.JPG,Stimuli/Morph5.png,Stimuli/BlurLevel5/BlurEditedMorph5,Stimuli/BlurLevel5/BlurEditedMorph5.png,Stimuli/BlurLevel5/NumberedMorphs/BlurEditedMorph5.png,Stimuli/BlurLevel5/OriginalBlur/BlurEditedMorph5.png,Stimuli/BlurMorphTrio/EditedMorph5.png,010011right.gif,Stimuli/normal_thumbnails/5right.gif,1,0,1,0,0,31,31,4,,,39,2,32,323,1.996588775,-1.504537558,5,886.37284,886.8738644,886.37284,886.8738644,97.27891156,1574360631,1574360636,4.467003107,147,7,-2,-2,1574360629,1574360631,,,AR,1,21,M,Undergrad,2019_Nov_21_1010,AdjustExp1,3.1.5,59.69497028,Experiment
109,Stimuli/Morph109.JPG,Stimuli/Morph109.png,Stimuli/BlurLevel5/BlurEditedMorph109,Stimuli/BlurLevel5/BlurEditedMorph109.png,Stimuli/BlurLevel5/NumberedMorphs/BlurEditedMorph109.png,Stimuli/BlurLevel5/OriginalBlur/BlurEditedMorph109.png,Stimuli/BlurMorphTrio/EditedMorph109.png,None,None,1,0,1,0,0,32,32,108,,,37,2,33,219,-1.942864904,-1.573300978,109,893.1744979,893.6735063,893.1744979,893.6735063,97.27891156,1574360638,1574360642,3.616561174,100,107,2,2,1574360636,1574360638,,,AR,1,21,M,Undergrad,2019_Nov_21_1010,AdjustExp1,3.1.5,59.69497028,Experiment
134,Stimuli/Morph134.JPG,Stimuli/Morph134.png,Stimuli/BlurLevel5/BlurEditedMorph134,Stimuli/BlurLevel5/BlurEditedMorph134.png,Stimuli/BlurLevel5/NumberedMorphs/BlurEditedMorph134.png,Stimuli/BlurLevel5/OriginalBlur/BlurEditedMorph134.png,Stimuli/BlurMorphTrio/EditedMorph134.png,None,None,1,0,1,0,0,33,33,133,,,64,2,34,140,-1.915111108,1.606969024,134,899.080007,899.5736057,899.080007,899.5736057,82.31292517,1574360644,1574360650,6.417321205,24,121,13,13,1574360642,1574360644,,,AR,1,21,M,Undergrad,2019_Nov_21_1010,AdjustExp1,3.1.5,59.69497028,Experiment
146,Stimuli/Morph146.JPG,Stimuli/Morph146.png,Stimuli/BlurLevel5/BlurEditedMorph146,Stimuli/BlurLevel5/BlurEditedMorph146.png,Stimuli/BlurLevel5/NumberedMorphs/BlurEditedMorph146.png,Stimuli/BlurLevel5/OriginalBlur/BlurEditedMorph146.png,Stimuli/BlurMorphTrio/EditedMorph146.png,None,None,1,0,1,0,0,34,34,145,,,20,2,35,126,-1.469463131,2.022542486,146,907.8062374,908.3062822,907.8062374,908.3062822,86.39455782,1574360653,1574360660,7.433090687,97,9,137,-10,1574360651,1574360653,,,AR,1,21,M,Undergrad,2019_Nov_21_1010,AdjustExp1,3.1.5,59.69497028,Experiment
1,Stimuli/Morph1.JPG,Stimuli/Morph1.png,Stimuli/BlurLevel5/BlurEditedMorph1,Stimuli/BlurLevel5/BlurEditedMorph1.png,Stimuli/BlurLevel5/NumberedMorphs/BlurEditedMorph1.png,Stimuli/BlurLevel5/OriginalBlur/BlurEditedMorph1.png,Stimuli/BlurMorphTrio/EditedMorph1.png,010003right.gif,Stimuli/normal_thumbnails/1right.gif,1,0,1,0,0,35,35,0,,,67,2,36,38,1.970026884,1.539153688,1,917.989787,918.4899417,917.989787,918.4899417,70.06802721,1574360663,1574360666,3.483137131,113,126,-125,22,1574360661,1574360663,,,AR,1,21,M,Undergrad,2019_Nov_21_1010,AdjustExp1,3.1.5,59.69497028,Experiment
124,Stimuli/Morph124.JPG,Stimuli/Morph124.png,Stimuli/BlurLevel5/BlurEditedMorph124,Stimuli/BlurLevel5/BlurEditedMorph124.png,Stimuli/BlurLevel5/NumberedMorphs/BlurEditedMorph124.png,Stimuli/BlurLevel5/OriginalBlur/BlurEditedMorph124.png,Stimuli/BlurMorphTrio/EditedMorph124.png,None,None,1,0,1,0,0,36,36,123,,,19,2,37,359,2.499619238,-0.043631016,124,924.3897856,924.8899532,924.3897856,924.8899532,75.51020408,1574360669,1574360672,2.383121014,107,106,18,18,1574360667,1574360669,,,AR,1,21,M,Undergrad,2019_Nov_21_1010,AdjustExp1,3.1.5,59.69497028,Experiment
53,Stimuli/Morph53.JPG,Stimuli/Morph53.png,Stimuli/BlurLevel5/BlurEditedMorph53,Stimuli/BlurLevel5/BlurEditedMorph53.png,Stimuli/BlurLevel5/NumberedMorphs/BlurEditedMorph53.png,Stimuli/BlurLevel5/OriginalBlur/BlurEditedMorph53.png,Stimuli/BlurMorphTrio/EditedMorph53.png,010149right.gif,Stimuli/normal_thumbnails/53right.gif,1,0,1,0,0,37,37,52,,,38,2,38,264,-0.261321158,-2.486304738,53,929.4949778,929.9898632,929.4949778,929.9898632,95.91836735,1574360674,1574360679,4.016429186,94,50,3,3,1574360672,1574360674,,,AR,1,21,M,Undergrad,2019_Nov_21_1010,AdjustExp1,3.1.5,59.69497028,Experiment
91,Stimuli/Morph91.JPG,Stimuli/Morph91.png,Stimuli/BlurLevel5/BlurEditedMorph91,Stimuli/BlurLevel5/BlurEditedMorph91.png,Stimuli/BlurLevel5/NumberedMorphs/BlurEditedMorph91.png,Stimuli/BlurLevel5/OriginalBlur/BlurEditedMorph91.png,Stimuli/BlurMorphTrio/EditedMorph91.png,020276right.gif,Stimuli/normal_thumbnails/91right.gif,1,0,1,0,0,38,38,90,,,45,2,39,192,-2.445369002,-0.519779227,91,935.9889439,936.4894612,935.9889439,936.4894612,98.63945578,1574360681,1574360684,3.416006804,34,90,1,1,1574360679,1574360681,,,AR,1,21,M,Undergrad,2019_Nov_21_1010,AdjustExp1,3.1.5,59.69497028,Experiment
36,Stimuli/Morph36.JPG,Stimuli/Morph36.png,Stimuli/BlurLevel5/BlurEditedMorph36,Stimuli/BlurLevel5/BlurEditedMorph36.png,Stimuli/BlurLevel5/NumberedMorphs/BlurEditedMorph36.png,Stimuli/BlurLevel5/OriginalBlur/BlurEditedMorph36.png,Stimuli/BlurMorphTrio/EditedMorph36.png,010095right.gif,Stimuli/normal_thumbnails/36right.gif,1,0,1,0,0,39,39,35,,,59,2,40,330,2.165063509,-1.25,36,941.7724536,942.272968,941.7724536,942.272968,95.91836735,1574360687,1574360690,3.665985107,78,39,-3,-3,1574360685,1574360687,,,AR,1,21,M,Undergrad,2019_Nov_21_1010,AdjustExp1,3.1.5,59.69497028,Experiment
33,Stimuli/Morph33.JPG,Stimuli/Morph33.png,Stimuli/BlurLevel5/BlurEditedMorph33,Stimuli/BlurLevel5/BlurEditedMorph33.png,Stimuli/BlurLevel5/NumberedMorphs/BlurEditedMorph33.png,Stimuli/BlurLevel5/OriginalBlur/BlurEditedMorph33.png,Stimuli/BlurMorphTrio/EditedMorph33.png,010089right.gif,Stimuli/normal_thumbnails/33right.gif,1,0,1,0,0,40,40,32,,,81,2,41,358,2.498477068,-0.087248742,33,947.6561292,948.1562952,947.6561292,948.1562952,98.63945578,1574360693,1574360696,3.315916777,46,32,1,1,1574360691,1574360693,,,AR,1,21,M,Undergrad,2019_Nov_21_1010,AdjustExp1,3.1.5,59.69497028,Experiment
102,Stimuli/Morph102.JPG,Stimuli/Morph102.png,Stimuli/BlurLevel5/BlurEditedMorph102,Stimuli/BlurLevel5/BlurEditedMorph102.png,Stimuli/BlurLevel5/NumberedMorphs/BlurEditedMorph102.png,Stimuli/BlurLevel5/OriginalBlur/BlurEditedMorph102.png,Stimuli/BlurMorphTrio/EditedMorph102.png,None,None,1,0,1,0,0,41,41,101,,,84,2,42,299,1.212024051,-2.186549268,102,953.2235416,953.7225307,953.2235416,953.7225307,91.83673469,1574360698,1574360702,3.532610655,52,96,6,6,1574360696,1574360698,,,AR,1,21,M,Undergrad,2019_Nov_21_1010,AdjustExp1,3.1.5,59.69497028,Experiment
4,Stimuli/Morph4.JPG,Stimuli/Morph4.png,Stimuli/BlurLevel5/BlurEditedMorph4,Stimuli/BlurLevel5/BlurEditedMorph4.png,Stimuli/BlurLevel5/NumberedMorphs/BlurEditedMorph4.png,Stimuli/BlurLevel5/OriginalBlur/BlurEditedMorph4.png,Stimuli/BlurMorphTrio/EditedMorph4.png,010010right.gif,Stimuli/normal_thumbnails/4right.gif,1,0,1,0,0,42,42,3,,,100,2,43,60,1.25,2.165063509,4,959.0751871,959.5724338,959.0751871,959.5724338,90.47619048,1574360704,1574360708,3.833025932,71,144,-140,7,1574360702,1574360704,,,AR,1,21,M,Undergrad,2019_Nov_21_1010,AdjustExp1,3.1.5,59.69497028,Experiment
35,Stimuli/Morph35.JPG,Stimuli/Morph35.png,Stimuli/BlurLevel5/BlurEditedMorph35,Stimuli/BlurLevel5/BlurEditedMorph35.png,Stimuli/BlurLevel5/NumberedMorphs/BlurEditedMorph35.png,Stimuli/BlurLevel5/OriginalBlur/BlurEditedMorph35.png,Stimuli/BlurMorphTrio/EditedMorph35.png,010094right.gif,Stimuli/normal_thumbnails/35right.gif,1,0,1,0,0,43,43,34,,,73,2,44,230,-1.606969024,-1.915111108,35,965.2059222,965.7060093,965.2059222,965.7060093,94.55782313,1574360710,1574360714,3.699409008,35,39,-4,-4,1574360708,1574360710,,,AR,1,21,M,Undergrad,2019_Nov_21_1010,AdjustExp1,3.1.5,59.69497028,Experiment
99,Stimuli/Morph99.JPG,Stimuli/Morph99.png,Stimuli/BlurLevel5/BlurEditedMorph99,Stimuli/BlurLevel5/BlurEditedMorph99.png,Stimuli/BlurLevel5/NumberedMorphs/BlurEditedMorph99.png,Stimuli/BlurLevel5/OriginalBlur/BlurEditedMorph99.png,Stimuli/BlurMorphTrio/EditedMorph99.png,020299right.gif,Stimuli/normal_thumbnails/99right.gif,1,0,1,0,0,44,44,98,,,23,2,45,324,2.022542486,-1.469463131,99,971.5923486,972.0889657,971.5923486,972.0889657,94.55782313,1574360717,1574360720,3.149788857,125,103,-4,-4,1574360714,1574360717,,,AR,1,21,M,Undergrad,2019_Nov_21_1010,AdjustExp1,3.1.5,59.69497028,Experiment
29,Stimuli/Morph29.JPG,Stimuli/Morph29.png,Stimuli/BlurLevel5/BlurEditedMorph29,Stimuli/BlurLevel5/BlurEditedMorph29.png,Stimuli/BlurLevel5/NumberedMorphs/BlurEditedMorph29.png,Stimuli/BlurLevel5/OriginalBlur/BlurEditedMorph29.png,Stimuli/BlurMorphTrio/EditedMorph29.png,010074right.gif,Stimuli/normal_thumbnails/29right.gif,1,0,1,0,0,45,45,28,,,98,2,46,214,-2.072593931,-1.397982259,29,977.5791496,978.0724535,977.5791496,978.0724535,100,1574360723,1574360727,4.266415834,130,29,0,0,1574360720,1574360723,,,AR,1,21,M,Undergrad,2019_Nov_21_1010,AdjustExp1,3.1.5,59.69497028,Experiment
144,Stimuli/Morph144.JPG,Stimuli/Morph144.png,Stimuli/BlurLevel5/BlurEditedMorph144,Stimuli/BlurLevel5/BlurEditedMorph144.png,Stimuli/BlurLevel5/NumberedMorphs/BlurEditedMorph144.png,Stimuli/BlurLevel5/OriginalBlur/BlurEditedMorph144.png,Stimuli/BlurMorphTrio/EditedMorph144.png,None,None,1,0,1,0,0,46,46,143,,,6,2,47,57,1.361597588,2.09667642,144,984.7394573,985.2390052,984.7394573,985.2390052,97.27891156,1574360730,1574360733,2.850914717,18,142,2,2,1574360727,1574360730,,,AR,1,21,M,Undergrad,2019_Nov_21_1010,AdjustExp1,3.1.5,59.69497028,Experiment
117,Stimuli/Morph117.JPG,Stimuli/Morph117.png,Stimuli/BlurLevel5/BlurEditedMorph117,Stimuli/BlurLevel5/BlurEditedMorph117.png,Stimuli/BlurLevel5/NumberedMorphs/BlurEditedMorph117.png,Stimuli/BlurLevel5/OriginalBlur/BlurEditedMorph117.png,Stimuli/BlurMorphTrio/EditedMorph117.png,None,None,1,0,1,0,0,47,47,116,,,56,2,48,336,2.283863644,-1.016841608,117,990.4893094,990.9886312,990.4893094,990.9886312,80.95238095,1574360735,1574360739,3.266763926,35,103,14,14,1574360733,1574360735,,,AR,1,21,M,Undergrad,2019_Nov_21_1010,AdjustExp1,3.1.5,59.69497028,Experiment
120,Stimuli/Morph120.JPG,Stimuli/Morph120.png,Stimuli/BlurLevel5/BlurEditedMorph120,Stimuli/BlurLevel5/BlurEditedMorph120.png,Stimuli/BlurLevel5/NumberedMorphs/BlurEditedMorph120.png,Stimuli/BlurLevel5/OriginalBlur/BlurEditedMorph120.png,Stimuli/BlurMorphTrio/EditedMorph120.png,None,None,1,0,1,0,0,48,48,119,,,48,2,49,242,-1.173678907,-2.207368982,120,996.1215535,996.6219593,996.1215535,996.6219593,71.42857143,1574360741,1574360744,3.333659172,64,99,21,21,1574360739,1574360741,,,AR,1,21,M,Undergrad,2019_Nov_21_1010,AdjustExp1,3.1.5,59.69497028,Experiment
85,Stimuli/Morph85.JPG,Stimuli/Morph85.png,Stimuli/BlurLevel5/BlurEditedMorph85,Stimuli/BlurLevel5/BlurEditedMorph85.png,Stimuli/BlurLevel5/NumberedMorphs/BlurEditedMorph85.png,Stimuli/BlurLevel5/OriginalBlur/BlurEditedMorph85.png,Stimuli/BlurMorphTrio/EditedMorph85.png,020264right.gif,Stimuli/normal_thumbnails/85right.gif,1,0,1,0,0,49,49,84,,,5,2,50,6,2.486304738,0.261321158,85,1002.038413,1002.538938,1002.038413,1002.538938,72.78911565,1574360747,1574360751,4.133152008,79,105,-20,-20,1574360745,1574360747,,,AR,1,21,M,Undergrad,2019_Nov_21_1010,AdjustExp1,3.1.5,59.69497028,Experiment
88,Stimuli/Morph88.JPG,Stimuli/Morph88.png,Stimuli/BlurLevel5/BlurEditedMorph88,Stimuli/BlurLevel5/BlurEditedMorph88.png,Stimuli/BlurLevel5/NumberedMorphs/BlurEditedMorph88.png,Stimuli/BlurLevel5/OriginalBlur/BlurEditedMorph88.png,Stimuli/BlurMorphTrio/EditedMorph88.png,020271right.gif,Stimuli/normal_thumbnails/88right.gif,1,0,1,0,0,50,50,87,,,83,2,51,151,-2.186549268,1.212024051,88,1008.573351,1009.072177,1008.573351,1009.072177,55.10204082,1574360754,1574360757,3.883991003,73,121,-33,-33,1574360751,1574360754,,,AR,1,21,M,Undergrad,2019_Nov_21_1010,AdjustExp1,3.1.5,59.69497028,Experiment
10,Stimuli/Morph10.JPG,Stimuli/Morph10.png,Stimuli/BlurLevel5/BlurEditedMorph10,Stimuli/BlurLevel5/BlurEditedMorph10.png,Stimuli/BlurLevel5/NumberedMorphs/BlurEditedMorph10.png,Stimuli/BlurLevel5/OriginalBlur/BlurEditedMorph10.png,Stimuli/BlurMorphTrio/EditedMorph10.png,010016right.gif,Stimuli/normal_thumbnails/10right.gif,1,0,1,0,0,51,51,9,,,80,2,52,28,2.207368982,1.173678907,10,1014.709983,1015.205085,1014.709983,1015.205085,57.82312925,1574360760,1574360766,6.716243029,25,126,-116,31,1574360758,1574360760,,,AR,1,21,M,Undergrad,2019_Nov_21_1010,AdjustExp1,3.1.5,59.69497028,Experiment
130,Stimuli/Morph130.JPG,Stimuli/Morph130.png,Stimuli/BlurLevel5/BlurEditedMorph130,Stimuli/BlurLevel5/BlurEditedMorph130.png,Stimuli/BlurLevel5/NumberedMorphs/BlurEditedMorph130.png,Stimuli/BlurLevel5/OriginalBlur/BlurEditedMorph130.png,Stimuli/BlurMorphTrio/EditedMorph130.png,None,None,1,0,1,0,0,52,52,129,,,64,2,53,356,2.493910126,-0.174391184,130,1023.738061,1024.238234,1023.738061,1024.238234,86.39455782,1574360769,1574360772,3.249569893,125,120,10,10,1574360767,1574360769,,,AR,1,21,M,Undergrad,2019_Nov_21_1010,AdjustExp1,3.1.5,59.69497028,Experiment
112,Stimuli/Morph112.JPG,Stimuli/Morph112.png,Stimuli/BlurLevel5/BlurEditedMorph112,Stimuli/BlurLevel5/BlurEditedMorph112.png,Stimuli/BlurLevel5/NumberedMorphs/BlurEditedMorph112.png,Stimuli/BlurLevel5/OriginalBlur/BlurEditedMorph112.png,Stimuli/BlurMorphTrio/EditedMorph112.png,None,None,1,0,1,0,0,53,53,111,,,78,2,54,87,0.130839891,2.496573837,112,1029.439314,1029.937604,1029.439314,1029.937604,82.31292517,1574360774,1574360777,2.166348934,113,125,-13,-13,1574360772,1574360774,,,AR,1,21,M,Undergrad,2019_Nov_21_1010,AdjustExp1,3.1.5,59.69497028,Experiment
50,Stimuli/Morph50.JPG,Stimuli/Morph50.png,Stimuli/BlurLevel5/BlurEditedMorph50,Stimuli/BlurLevel5/BlurEditedMorph50.png,Stimuli/BlurLevel5/NumberedMorphs/BlurEditedMorph50.png,Stimuli/BlurLevel5/OriginalBlur/BlurEditedMorph50.png,Stimuli/BlurMorphTrio/EditedMorph50.png,010142right.gif,Stimuli/normal_thumbnails/50right.gif,1,0,1,0,0,54,54,49,,,62,2,55,85,0.217889357,2.490486745,50,1034.154557,1034.655289,1034.154557,1034.655289,97.27891156,1574360779,1574360783,3.63312602,15,52,-2,-2,1574360777,1574360779,,,AR,1,21,M,Undergrad,2019_Nov_21_1010,AdjustExp1,3.1.5,59.69497028,Experiment
84,Stimuli/Morph84.JPG,Stimuli/Morph84.png,Stimuli/BlurLevel5/BlurEditedMorph84,Stimuli/BlurLevel5/BlurEditedMorph84.png,Stimuli/BlurLevel5/NumberedMorphs/BlurEditedMorph84.png,Stimuli/BlurLevel5/OriginalBlur/BlurEditedMorph84.png,Stimuli/BlurMorphTrio/EditedMorph84.png,020261right.gif,Stimuli/normal_thumbnails/84right.gif,1,0,1,0,0,55,55,83,,,31,2,56,65,1.056545654,2.265769468,84,1040.554873,1041.05514,1040.554873,1041.05514,93.19727891,1574360786,1574360789,3.183413982,105,79,5,5,1574360783,1574360786,,,AR,1,21,M,Undergrad,2019_Nov_21_1010,AdjustExp1,3.1.5,59.69497028,Experiment
79,Stimuli/Morph79.JPG,Stimuli/Morph79.png,Stimuli/BlurLevel5/BlurEditedMorph79,Stimuli/BlurLevel5/BlurEditedMorph79.png,Stimuli/BlurLevel5/NumberedMorphs/BlurEditedMorph79.png,Stimuli/BlurLevel5/OriginalBlur/BlurEditedMorph79.png,Stimuli/BlurMorphTrio/EditedMorph79.png,020239right.gif,Stimuli/normal_thumbnails/79right.gif,1,0,1,0,0,56,56,78,,,76,2,57,141,-1.942864904,1.573300978,79,1045.937305,1046.438062,1045.937305,1046.438062,93.19727891,1574360791,1574360795,3.666815996,8,84,-5,-5,1574360789,1574360791,,,AR,1,21,M,Undergrad,2019_Nov_21_1010,AdjustExp1,3.1.5,59.69497028,Experiment
73,Stimuli/Morph73.JPG,Stimuli/Morph73.png,Stimuli/BlurLevel5/BlurEditedMorph73,Stimuli/BlurLevel5/BlurEditedMorph73.png,Stimuli/BlurLevel5/NumberedMorphs/BlurEditedMorph73.png,Stimuli/BlurLevel5/OriginalBlur/BlurEditedMorph73.png,Stimuli/BlurMorphTrio/EditedMorph73.png,020230right.gif,Stimuli/normal_thumbnails/73right.gif,1,0,1,0,0,57,57,72,,,61,2,58,46,1.736645926,1.798349501,73,1052.221361,1052.720985,1052.221361,1052.720985,85.03401361,1574360797,1574360801,3.817573786,22,84,-11,-11,1574360795,1574360797,,,AR,1,21,M,Undergrad,2019_Nov_21_1010,AdjustExp1,3.1.5,59.69497028,Experiment
92,Stimuli/Morph92.JPG,Stimuli/Morph92.png,Stimuli/BlurLevel5/BlurEditedMorph92,Stimuli/BlurLevel5/BlurEditedMorph92.png,Stimuli/BlurLevel5/NumberedMorphs/BlurEditedMorph92.png,Stimuli/BlurLevel5/OriginalBlur/BlurEditedMorph92.png,Stimuli/BlurMorphTrio/EditedMorph92.png,020277right.gif,Stimuli/normal_thumbnails/92right.gif,1,0,1,0,0,58,58,91,,,36,2,59,200,-2.349231552,-0.855050358,92,1058.854021,1059.354357,1058.854021,1059.354357,98.63945578,1574360804,1574360807,2.89949584,120,93,-1,-1,1574360801,1574360804,,,AR,1,21,M,Undergrad,2019_Nov_21_1010,AdjustExp1,3.1.5,59.69497028,Experiment
137,Stimuli/Morph137.JPG,Stimuli/Morph137.png,Stimuli/BlurLevel5/BlurEditedMorph137,Stimuli/BlurLevel5/BlurEditedMorph137.png,Stimuli/BlurLevel5/NumberedMorphs/BlurEditedMorph137.png,Stimuli/BlurLevel5/OriginalBlur/BlurEditedMorph137.png,Stimuli/BlurMorphTrio/EditedMorph137.png,None,None,1,0,1,0,0,59,59,136,,,46,2,60,188,-2.475670172,-0.347932752,137,1064.224309,1064.721206,1064.224309,1064.721206,94.55782313,1574360809,1574360812,3.217036963,95,141,-4,-4,1574360807,1574360809,,,AR,1,21,M,Undergrad,2019_Nov_21_1010,AdjustExp1,3.1.5,59.69497028,Experiment
12,Stimuli/Morph12.JPG,Stimuli/Morph12.png,Stimuli/BlurLevel5/BlurEditedMorph12,Stimuli/BlurLevel5/BlurEditedMorph12.png,Stimuli/BlurLevel5/NumberedMorphs/BlurEditedMorph12.png,Stimuli/BlurLevel5/OriginalBlur/BlurEditedMorph12.png,Stimuli/BlurMorphTrio/EditedMorph12.png,010026right.gif,Stimuli/normal_thumbnails/12right.gif,1,0,1,0,0,60,60,11,,,8,2,61,336,2.283863644,-1.016841608,12,1069.804348,1070.304529,1069.804348,1070.304529,100,1574360815,1574360817,1.850270987,137,12,0,0,1574360813,1574360815,,,AR,1,21,M,Undergrad,2019_Nov_21_1010,AdjustExp1,3.1.5,59.69497028,Experiment
21,Stimuli/Morph21.JPG,Stimuli/Morph21.png,Stimuli/BlurLevel5/BlurEditedMorph21,Stimuli/BlurLevel5/BlurEditedMorph21.png,Stimuli/BlurLevel5/NumberedMorphs/BlurEditedMorph21.png,Stimuli/BlurLevel5/OriginalBlur/BlurEditedMorph21.png,Stimuli/BlurMorphTrio/EditedMorph21.png,010049right.gif,Stimuli/normal_thumbnails/21right.gif,1,0,1,0,0,61,61,20,,,57,2,62,243,-1.134976249,-2.22751631,21,1074.038955,1074.537183,1074.038955,1074.537183,95.91836735,1574360819,1574360823,4.300248861,40,24,-3,-3,1574360817,1574360819,,,AR,1,21,M,Undergrad,2019_Nov_21_1010,AdjustExp1,3.1.5,59.69497028,Experiment
68,Stimuli/Morph68.JPG,Stimuli/Morph68.png,Stimuli/BlurLevel5/BlurEditedMorph68,Stimuli/BlurLevel5/BlurEditedMorph68.png,Stimuli/BlurLevel5/NumberedMorphs/BlurEditedMorph68.png,Stimuli/BlurLevel5/OriginalBlur/BlurEditedMorph68.png,Stimuli/BlurMorphTrio/EditedMorph68.png,020218right.gif,Stimuli/normal_thumbnails/68right.gif,1,0,1,0,0,62,62,67,,,99,2,63,27,2.22751631,1.134976249,68,1080.57111,1081.070917,1080.57111,1081.070917,98.63945578,1574360826,1574360827,1.300696135,57,69,-1,-1,1574360824,1574360826,,,AR,1,21,M,Undergrad,2019_Nov_21_1010,AdjustExp1,3.1.5,59.69497028,Experiment
133,Stimuli/Morph133.JPG,Stimuli/Morph133.png,Stimuli/BlurLevel5/BlurEditedMorph133,Stimuli/BlurLevel5/BlurEditedMorph133.png,Stimuli/BlurLevel5/NumberedMorphs/BlurEditedMorph133.png,Stimuli/BlurLevel5/OriginalBlur/BlurEditedMorph133.png,Stimuli/BlurMorphTrio/EditedMorph133.png,None,None,1,0,1,0,0,63,63,132,,,75,2,64,91,-0.043631016,2.499619238,133,1084.337414,1084.836941,1084.337414,1084.836941,75.51020408,1574360829,1574360831,2.149831057,26,4,129,-18,1574360827,1574360829,,,AR,1,21,M,Undergrad,2019_Nov_21_1010,AdjustExp1,3.1.5,59.69497028,Experiment
86,Stimuli/Morph86.JPG,Stimuli/Morph86.png,Stimuli/BlurLevel5/BlurEditedMorph86,Stimuli/BlurLevel5/BlurEditedMorph86.png,Stimuli/BlurLevel5/NumberedMorphs/BlurEditedMorph86.png,Stimuli/BlurLevel5/OriginalBlur/BlurEditedMorph86.png,Stimuli/BlurMorphTrio/EditedMorph86.png,020266right.gif,Stimuli/normal_thumbnails/86right.gif,1,0,1,0,0,64,64,85,,,17,2,65,255,-0.647047613,-2.414814566,86,1089.360906,1089.853635,1089.360906,1089.853635,97.27891156,1574360834,1574360837,2.766906261,145,84,2,2,1574360832,1574360834,,,AR,1,21,M,Undergrad,2019_Nov_21_1010,AdjustExp1,3.1.5,59.69497028,Experiment
115,Stimuli/Morph115.JPG,Stimuli/Morph115.png,Stimuli/BlurLevel5/BlurEditedMorph115,Stimuli/BlurLevel5/BlurEditedMorph115.png,Stimuli/BlurLevel5/NumberedMorphs/BlurEditedMorph115.png,Stimuli/BlurLevel5/OriginalBlur/BlurEditedMorph115.png,Stimuli/BlurMorphTrio/EditedMorph115.png,None,None,1,0,1,0,0,65,65,114,,,51,2,66,189,-2.469220851,-0.391086163,115,1094.970226,1095.469559,1094.970226,1095.469559,82.31292517,1574360840,1574360844,3.699710846,23,102,13,13,1574360837,1574360840,,,AR,1,21,M,Undergrad,2019_Nov_21_1010,AdjustExp1,3.1.5,59.69497028,Experiment
71,Stimuli/Morph71.JPG,Stimuli/Morph71.png,Stimuli/BlurLevel5/BlurEditedMorph71,Stimuli/BlurLevel5/BlurEditedMorph71.png,Stimuli/BlurLevel5/NumberedMorphs/BlurEditedMorph71.png,Stimuli/BlurLevel5/OriginalBlur/BlurEditedMorph71.png,Stimuli/BlurMorphTrio/EditedMorph71.png,020225right.gif,Stimuli/normal_thumbnails/71right.gif,1,0,1,0,0,66,66,70,,,48,2,67,329,2.142918252,-1.287595187,71,1101.169773,1101.67055,1101.169773,1101.67055,98.63945578,1574360846,1574360849,3.033690929,139,70,1,1,1574360844,1574360846,,,AR,1,21,M,Undergrad,2019_Nov_21_1010,AdjustExp1,3.1.5,59.69497028,Experiment
7,Stimuli/Morph7.JPG,Stimuli/Morph7.png,Stimuli/BlurLevel5/BlurEditedMorph7,Stimuli/BlurLevel5/BlurEditedMorph7.png,Stimuli/BlurLevel5/NumberedMorphs/BlurEditedMorph7.png,Stimuli/BlurLevel5/OriginalBlur/BlurEditedMorph7.png,Stimuli/BlurMorphTrio/EditedMorph7.png,010013right.gif,Stimuli/normal_thumbnails/7right.gif,1,0,1,0,0,67,67,6,,,49,2,68,182,-2.498477068,-0.087248742,7,1106.970182,1107.470825,1106.970182,1107.470825,87.75510204,1574360852,1574360861,9.449721098,106,16,-9,-9,1574360849,1574360852,,,AR,1,21,M,Undergrad,2019_Nov_21_1010,AdjustExp1,3.1.5,59.69497028,Experiment
28,Stimuli/Morph28.JPG,Stimuli/Morph28.png,Stimuli/BlurLevel5/BlurEditedMorph28,Stimuli/BlurLevel5/BlurEditedMorph28.png,Stimuli/BlurLevel5/NumberedMorphs/BlurEditedMorph28.png,Stimuli/BlurLevel5/OriginalBlur/BlurEditedMorph28.png,Stimuli/BlurMorphTrio/EditedMorph28.png,010073right.gif,Stimuli/normal_thumbnails/28right.gif,1,0,1,0,0,68,68,27,,,17,2,69,228,-1.672826516,-1.857862064,28,1118.871163,1119.370346,1118.871163,1119.370346,97.27891156,1574360864,1574360868,3.950003147,88,30,-2,-2,1574360862,1574360864,,,AR,1,21,M,Undergrad,2019_Nov_21_1010,AdjustExp1,3.1.5,59.69497028,Experiment
97,Stimuli/Morph97.JPG,Stimuli/Morph97.png,Stimuli/BlurLevel5/BlurEditedMorph97,Stimuli/BlurLevel5/BlurEditedMorph97.png,Stimuli/BlurLevel5/NumberedMorphs/BlurEditedMorph97.png,Stimuli/BlurLevel5/OriginalBlur/BlurEditedMorph97.png,Stimuli/BlurMorphTrio/EditedMorph97.png,020294right.gif,Stimuli/normal_thumbnails/97right.gif,1,0,1,0,0,69,69,96,,,21,2,70,333,2.22751631,-1.134976249,97,1125.222747,1125.720744,1125.222747,1125.720744,90.47619048,1574360870,1574360878,7.66719079,71,104,-7,-7,1574360868,1574360870,,,AR,1,21,M,Undergrad,2019_Nov_21_1010,AdjustExp1,3.1.5,59.69497028,Experiment
22,Stimuli/Morph22.JPG,Stimuli/Morph22.png,Stimuli/BlurLevel5/BlurEditedMorph22,Stimuli/BlurLevel5/BlurEditedMorph22.png,Stimuli/BlurLevel5/NumberedMorphs/BlurEditedMorph22.png,Stimuli/BlurLevel5/OriginalBlur/BlurEditedMorph22.png,Stimuli/BlurMorphTrio/EditedMorph22.png,010055right.gif,Stimuli/normal_thumbnails/22right.gif,1,0,1,0,0,70,70,21,,,77,2,71,172,-2.475670172,0.347932752,22,1135.187727,1135.686626,1135.187727,1135.686626,94.55782313,1574360880,1574360883,3.200063944,110,26,-4,-4,1574360878,1574360880,,,AR,1,21,M,Undergrad,2019_Nov_21_1010,AdjustExp1,3.1.5,59.69497028,Experiment
82,Stimuli/Morph82.JPG,Stimuli/Morph82.png,Stimuli/BlurLevel5/BlurEditedMorph82,Stimuli/BlurLevel5/BlurEditedMorph82.png,Stimuli/BlurLevel5/NumberedMorphs/BlurEditedMorph82.png,Stimuli/BlurLevel5/OriginalBlur/BlurEditedMorph82.png,Stimuli/BlurMorphTrio/EditedMorph82.png,020247right.gif,Stimuli/normal_thumbnails/82right.gif,1,0,1,0,0,71,71,81,,,13,2,72,15,2.414814566,0.647047613,82,1140.871361,1141.369684,1140.871361,1141.369684,78.23129252,1574360886,1574360891,5.249940872,14,98,-16,-16,1574360884,1574360886,,,AR,1,21,M,Undergrad,2019_Nov_21_1010,AdjustExp1,3.1.5,59.69497028,Experiment
11,Stimuli/Morph11.JPG,Stimuli/Morph11.png,Stimuli/BlurLevel5/BlurEditedMorph11,Stimuli/BlurLevel5/BlurEditedMorph11.png,Stimuli/BlurLevel5/NumberedMorphs/BlurEditedMorph11.png,Stimuli/BlurLevel5/OriginalBlur/BlurEditedMorph11.png,Stimuli/BlurMorphTrio/EditedMorph11.png,010024right.gif,Stimuli/normal_thumbnails/11right.gif,1,0,1,0,0,72,72,10,,,23,2,73,163,-2.39076189,0.730929262,11,1148.569495,1149.070124,1148.569495,1149.070124,91.83673469,1574360894,1574360896,2.366663218,30,5,6,6,1574360891,1574360894,,,AR,1,21,M,Undergrad,2019_Nov_21_1010,AdjustExp1,3.1.5,59.69497028,Experiment
77,Stimuli/Morph77.JPG,Stimuli/Morph77.png,Stimuli/BlurLevel5/BlurEditedMorph77,Stimuli/BlurLevel5/BlurEditedMorph77.png,Stimuli/BlurLevel5/NumberedMorphs/BlurEditedMorph77.png,Stimuli/BlurLevel5/OriginalBlur/BlurEditedMorph77.png,Stimuli/BlurMorphTrio/EditedMorph77.png,020235right.gif,Stimuli/normal_thumbnails/77right.gif,1,0,1,0,0,73,73,76,,,12,2,74,168,-2.445369002,0.519779227,77,1153.98574,1154.485632,1153.98574,1154.485632,94.55782313,1574360899,1574360903,3.734285831,34,81,-4,-4,1574360896,1574360899,,,AR,1,21,M,Undergrad,2019_Nov_21_1010,AdjustExp1,3.1.5,59.69497028,Experiment
121,Stimuli/Morph121.JPG,Stimuli/Morph121.png,Stimuli/BlurLevel5/BlurEditedMorph121,Stimuli/BlurLevel5/BlurEditedMorph121.png,Stimuli/BlurLevel5/NumberedMorphs/BlurEditedMorph121.png,Stimuli/BlurLevel5/OriginalBlur/BlurEditedMorph121.png,Stimuli/BlurMorphTrio/EditedMorph121.png,None,None,1,0,1,0,0,74,74,120,,,20,2,75,74,0.68909339,2.40315424,121,1160.319925,1160.820113,1160.319925,1160.820113,86.39455782,1574360905,1574360909,4.165847778,124,111,10,10,1574360903,1574360905,,,AR,1,21,M,Undergrad,2019_Nov_21_1010,AdjustExp1,3.1.5,59.69497028,Experiment
48,Stimuli/Morph48.JPG,Stimuli/Morph48.png,Stimuli/BlurLevel5/BlurEditedMorph48,Stimuli/BlurLevel5/BlurEditedMorph48.png,Stimuli/BlurLevel5/NumberedMorphs/BlurEditedMorph48.png,Stimuli/BlurLevel5/OriginalBlur/BlurEditedMorph48.png,Stimuli/BlurMorphTrio/EditedMorph48.png,010131right.gif,Stimuli/normal_thumbnails/48right.gif,1,0,1,0,0,75,75,47,,,96,2,76,293,0.976827821,-2.301262134,48,1167.636198,1168.135928,1167.636198,1168.135928,86.39455782,1574360913,1574360918,5.48316288,14,58,-10,-10,1574360910,1574360913,,,AR,1,21,M,Undergrad,2019_Nov_21_1010,AdjustExp1,3.1.5,59.69497028,Experiment
111,Stimuli/Morph111.JPG,Stimuli/Morph111.png,Stimuli/BlurLevel5/BlurEditedMorph111,Stimuli/BlurLevel5/BlurEditedMorph111.png,Stimuli/BlurLevel5/NumberedMorphs/BlurEditedMorph111.png,Stimuli/BlurLevel5/OriginalBlur/BlurEditedMorph111.png,Stimuli/BlurMorphTrio/EditedMorph111.png,None,None,1,0,1,0,0,76,76,110,,,70,2,77,59,1.287595187,2.142918252,111,1175.607892,1176.103104,1175.607892,1176.103104,91.83673469,1574360921,1574360926,5.266955853,145,105,6,6,1574360918,1574360921,,,AR,1,21,M,Undergrad,2019_Nov_21_1010,AdjustExp1,3.1.5,59.69497028,Experiment
123,Stimuli/Morph123.JPG,Stimuli/Morph123.png,Stimuli/BlurLevel5/BlurEditedMorph123,Stimuli/BlurLevel5/BlurEditedMorph123.png,Stimuli/BlurLevel5/NumberedMorphs/BlurEditedMorph123.png,Stimuli/BlurLevel5/OriginalBlur/BlurEditedMorph123.png,Stimuli/BlurMorphTrio/EditedMorph123.png,None,None,1,0,1,0,0,77,77,122,,,64,2,78,340,2.349231552,-0.855050358,123,1183.402868,1183.902045,1183.402868,1183.902045,80.95238095,1574360928,1574360933,4.333442926,4,109,14,14,1574360926,1574360928,,,AR,1,21,M,Undergrad,2019_Nov_21_1010,AdjustExp1,3.1.5,59.69497028,Experiment
38,Stimuli/Morph38.JPG,Stimuli/Morph38.png,Stimuli/BlurLevel5/BlurEditedMorph38,Stimuli/BlurLevel5/BlurEditedMorph38.png,Stimuli/BlurLevel5/NumberedMorphs/BlurEditedMorph38.png,Stimuli/BlurLevel5/OriginalBlur/BlurEditedMorph38.png,Stimuli/BlurMorphTrio/EditedMorph38.png,010108right.gif,Stimuli/normal_thumbnails/38right.gif,1,0,1,0,0,78,78,37,,,22,2,79,74,0.68909339,2.40315424,38,1190.036378,1190.536142,1190.036378,1190.536142,91.83673469,1574360935,1574360940,4.666613102,95,44,-6,-6,1574360933,1574360935,,,AR,1,21,M,Undergrad,2019_Nov_21_1010,AdjustExp1,3.1.5,59.69497028,Experiment
139,Stimuli/Morph139.JPG,Stimuli/Morph139.png,Stimuli/BlurLevel5/BlurEditedMorph139,Stimuli/BlurLevel5/BlurEditedMorph139.png,Stimuli/BlurLevel5/NumberedMorphs/BlurEditedMorph139.png,Stimuli/BlurLevel5/OriginalBlur/BlurEditedMorph139.png,Stimuli/BlurMorphTrio/EditedMorph139.png,None,None,1,0,1,0,0,79,79,138,,,33,2,80,65,1.056545654,2.265769468,139,1197.018652,1197.519226,1197.018652,1197.519226,87.75510204,1574360942,1574360947,4.616822958,57,1,138,-9,1574360940,1574360942,,,AR,1,21,M,Undergrad,2019_Nov_21_1010,AdjustExp1,3.1.5,59.69497028,Experiment
114,Stimuli/Morph114.JPG,Stimuli/Morph114.png,Stimuli/BlurLevel5/BlurEditedMorph114,Stimuli/BlurLevel5/BlurEditedMorph114.png,Stimuli/BlurLevel5/NumberedMorphs/BlurEditedMorph114.png,Stimuli/BlurLevel5/OriginalBlur/BlurEditedMorph114.png,Stimuli/BlurMorphTrio/EditedMorph114.png,None,None,1,0,1,0,0,80,80,113,,,34,2,81,98,-0.347932752,2.475670172,114,1204.123214,1204.619559,1204.123214,1204.619559,97.27891156,1574360949,1574360956,6.649987221,31,112,2,2,1574360947,1574360949,,,AR,1,21,M,Undergrad,2019_Nov_21_1010,AdjustExp1,3.1.5,59.69497028,Experiment
51,Stimuli/Morph51.JPG,Stimuli/Morph51.png,Stimuli/BlurLevel5/BlurEditedMorph51,Stimuli/BlurLevel5/BlurEditedMorph51.png,Stimuli/BlurLevel5/NumberedMorphs/BlurEditedMorph51.png,Stimuli/BlurLevel5/OriginalBlur/BlurEditedMorph51.png,Stimuli/BlurMorphTrio/EditedMorph51.png,010146right.gif,Stimuli/normal_thumbnails/51right.gif,1,0,1,0,0,81,81,50,,,33,2,82,80,0.434120444,2.462019383,51,1213.041084,1213.552586,1213.041084,1213.552586,87.75510204,1574360958,1574360961,2.765929937,67,60,-9,-9,1574360956,1574360958,,,AR,1,21,M,Undergrad,2019_Nov_21_1010,AdjustExp1,3.1.5,59.69497028,Experiment
46,Stimuli/Morph46.JPG,Stimuli/Morph46.png,Stimuli/BlurLevel5/BlurEditedMorph46,Stimuli/BlurLevel5/BlurEditedMorph46.png,Stimuli/BlurLevel5/NumberedMorphs/BlurEditedMorph46.png,Stimuli/BlurLevel5/OriginalBlur/BlurEditedMorph46.png,Stimuli/BlurMorphTrio/EditedMorph46.png,010128right.gif,Stimuli/normal_thumbnails/46right.gif,1,0,1,0,0,82,82,45,,,15,2,83,269,-0.043631016,-2.499619238,46,1218.369176,1218.868994,1218.369176,1218.868994,94.55782313,1574360963,1574360966,3.050256014,34,50,-4,-4,1574360961,1574360963,,,AR,1,21,M,Undergrad,2019_Nov_21_1010,AdjustExp1,3.1.5,59.69497028,Experiment
55,Stimuli/Morph55.JPG,Stimuli/Morph55.png,Stimuli/BlurLevel5/BlurEditedMorph55,Stimuli/BlurLevel5/BlurEditedMorph55.png,Stimuli/BlurLevel5/NumberedMorphs/BlurEditedMorph55.png,Stimuli/BlurLevel5/OriginalBlur/BlurEditedMorph55.png,Stimuli/BlurMorphTrio/EditedMorph55.png,010151right.gif,Stimuli/normal_thumbnails/55right.gif,1,0,1,0,0,83,83,54,,,75,2,84,100,-0.434120444,2.462019383,55,1223.819148,1224.318527,1223.819148,1224.318527,79.59183673,1574360969,1574360973,4.532996178,52,40,15,15,1574360967,1574360969,,,AR,1,21,M,Undergrad,2019_Nov_21_1010,AdjustExp1,3.1.5,59.69497028,Experiment
125,Stimuli/Morph125.JPG,Stimuli/Morph125.png,Stimuli/BlurLevel5/BlurEditedMorph125,Stimuli/BlurLevel5/BlurEditedMorph125.png,Stimuli/BlurLevel5/NumberedMorphs/BlurEditedMorph125.png,Stimuli/BlurLevel5/OriginalBlur/BlurEditedMorph125.png,Stimuli/BlurMorphTrio/EditedMorph125.png,None,None,1,0,1,0,0,84,84,124,,,59,2,85,263,-0.304673359,-2.481365379,125,1230.702523,1231.202576,1230.702523,1231.202576,91.83673469,1574360976,1574360981,5.232729912,61,131,-6,-6,1574360974,1574360976,,,AR,1,21,M,Undergrad,2019_Nov_21_1010,AdjustExp1,3.1.5,59.69497028,Experiment
