stimulusID,stimulus_JPG,stimulusPath,stimulusPath2,stimulusPath3,stimulusPath4,stimulusPath5,stimulusPath6,xRayOriginal,xRayPath,Blocks.thisRepN,Blocks.thisTrialN,Blocks.thisN,Blocks.thisIndex,Trials.thisRepN,Trials.thisTrialN,Trials.thisN,Trials.thisIndex,text_2.started,text_2.stopped,xrayID,blockNumber,trialNumber,stimLocationDeg,stimXCoord,stimYCoord,stimulusID,xray1.started,xray1.stopped,tumors.started,tumors.stopped,trialCorrect%,startRespTime,endRespTime,RT,morphTrack,morphID,errorRaw,errorCorrected,startStimTime,endStimTime,key_resp.keys,key_resp.rt,participant,session,age,gender,status,date,expName,psychopyVersion,frameRate,blockType
51,Stimuli/Morph51.JPG,Stimuli/Morph51.png,Stimuli/BlurLevel5/BlurEditedMorph51,Stimuli/BlurLevel5/BlurEditedMorph51.png,Stimuli/BlurLevel5/NumberedMorphs/BlurEditedMorph51.png,Stimuli/BlurLevel5/OriginalBlur/BlurEditedMorph51.png,Stimuli/BlurMorphTrio/EditedMorph51.png,010146right.gif,Stimuli/normal_thumbnails/51right.gif,0,0,0,0,0,0,0,50,60.4851176,None,27,1,1,139,-1.886773951,1.640147572,51,86.11254161,86.60137062,86.11254161,86.60137062,100,1574366035,1574366036,1.600007772,18,51,0,0,1574366033,1574366035,,,CK,1,21,F,UnderGrad,2019_Nov_21_1153,AdjustExp1,3.1.5,59.95431864,Experiment
143,Stimuli/Morph143.JPG,Stimuli/Morph143.png,Stimuli/BlurLevel5/BlurEditedMorph143,Stimuli/BlurLevel5/BlurEditedMorph143.png,Stimuli/BlurLevel5/NumberedMorphs/BlurEditedMorph143.png,Stimuli/BlurLevel5/OriginalBlur/BlurEditedMorph143.png,Stimuli/BlurMorphTrio/EditedMorph143.png,None,None,0,0,0,0,0,1,1,142,,,7,1,2,64,1.095927867,2.246985116,143,89.98965263,90.48523522,89.98965263,90.48523522,95.91836735,1574366039,1574366043,4.649818897,61,140,3,3,1574366037,1574366039,,,CK,1,21,F,UnderGrad,2019_Nov_21_1153,AdjustExp1,3.1.5,59.95431864,Experiment
2,Stimuli/Morph2.JPG,Stimuli/Morph2.png,Stimuli/BlurLevel5/BlurEditedMorph2,Stimuli/BlurLevel5/BlurEditedMorph2.png,Stimuli/BlurLevel5/NumberedMorphs/BlurEditedMorph2.png,Stimuli/BlurLevel5/OriginalBlur/BlurEditedMorph2.png,Stimuli/BlurMorphTrio/EditedMorph2.png,010006right.gif,Stimuli/normal_thumbnails/2right.gif,0,0,0,0,0,2,2,1,,,56,1,3,286,0.68909339,-2.40315424,2,97.07028967,97.56823735,97.07028967,97.56823735,89.11564626,1574366046,1574366047,1.81682682,116,141,-139,8,1574366043,1574366046,,,CK,1,21,F,UnderGrad,2019_Nov_21_1153,AdjustExp1,3.1.5,59.95431864,Experiment
137,Stimuli/Morph137.JPG,Stimuli/Morph137.png,Stimuli/BlurLevel5/BlurEditedMorph137,Stimuli/BlurLevel5/BlurEditedMorph137.png,Stimuli/BlurLevel5/NumberedMorphs/BlurEditedMorph137.png,Stimuli/BlurLevel5/OriginalBlur/BlurEditedMorph137.png,Stimuli/BlurMorphTrio/EditedMorph137.png,None,None,0,0,0,0,0,3,3,136,,,88,1,4,19,2.363796439,0.813920386,137,101.2578676,101.7517664,101.2578676,101.7517664,83.67346939,1574366050,1574366056,6.183823824,33,2,135,-12,1574366048,1574366050,,,CK,1,21,F,UnderGrad,2019_Nov_21_1153,AdjustExp1,3.1.5,59.95431864,Experiment
57,Stimuli/Morph57.JPG,Stimuli/Morph57.png,Stimuli/BlurLevel5/BlurEditedMorph57,Stimuli/BlurLevel5/BlurEditedMorph57.png,Stimuli/BlurLevel5/NumberedMorphs/BlurEditedMorph57.png,Stimuli/BlurLevel5/OriginalBlur/BlurEditedMorph57.png,Stimuli/BlurMorphTrio/EditedMorph57.png,010158right.gif,Stimuli/normal_thumbnails/57right.gif,0,0,0,0,0,4,4,56,,,13,1,5,140,-1.915111108,1.606969024,57,109.937881,110.4339232,109.937881,110.4339232,86.39455782,1574366058,1574366060,1.566293001,33,47,10,10,1574366056,1574366058,,,CK,1,21,F,UnderGrad,2019_Nov_21_1153,AdjustExp1,3.1.5,59.95431864,Experiment
104,Stimuli/Morph104.JPG,Stimuli/Morph104.png,Stimuli/BlurLevel5/BlurEditedMorph104,Stimuli/BlurLevel5/BlurEditedMorph104.png,Stimuli/BlurLevel5/NumberedMorphs/BlurEditedMorph104.png,Stimuli/BlurLevel5/OriginalBlur/BlurEditedMorph104.png,Stimuli/BlurMorphTrio/EditedMorph104.png,None,None,0,0,0,0,0,5,5,103,,,10,1,6,83,0.304673359,2.481365379,104,114.1010584,114.6008679,114.1010584,114.6008679,97.27891156,1574366063,1574366066,3.19995594,120,102,2,2,1574366060,1574366063,,,CK,1,21,F,UnderGrad,2019_Nov_21_1153,AdjustExp1,3.1.5,59.95431864,Experiment
109,Stimuli/Morph109.JPG,Stimuli/Morph109.png,Stimuli/BlurLevel5/BlurEditedMorph109,Stimuli/BlurLevel5/BlurEditedMorph109.png,Stimuli/BlurLevel5/NumberedMorphs/BlurEditedMorph109.png,Stimuli/BlurLevel5/OriginalBlur/BlurEditedMorph109.png,Stimuli/BlurMorphTrio/EditedMorph109.png,None,None,0,0,0,0,0,6,6,108,,,44,1,7,112,-0.936516484,2.317959636,109,119.900913,120.4012958,119.900913,120.4012958,91.83673469,1574366068,1574366073,4.382833719,43,103,6,6,1574366066,1574366068,,,CK,1,21,F,UnderGrad,2019_Nov_21_1153,AdjustExp1,3.1.5,59.95431864,Experiment
18,Stimuli/Morph18.JPG,Stimuli/Morph18.png,Stimuli/BlurLevel5/BlurEditedMorph18,Stimuli/BlurLevel5/BlurEditedMorph18.png,Stimuli/BlurLevel5/NumberedMorphs/BlurEditedMorph18.png,Stimuli/BlurLevel5/OriginalBlur/BlurEditedMorph18.png,Stimuli/BlurMorphTrio/EditedMorph18.png,010039right.gif,Stimuli/normal_thumbnails/18right.gif,0,0,0,0,0,7,7,17,,,52,1,8,11,2.454067959,0.477022488,18,126.8888786,127.3843461,126.8888786,127.3843461,70.06802721,1574366075,1574366078,2.416570187,92,143,-125,22,1574366073,1574366075,,,CK,1,21,F,UnderGrad,2019_Nov_21_1153,AdjustExp1,3.1.5,59.95431864,Experiment
113,Stimuli/Morph113.JPG,Stimuli/Morph113.png,Stimuli/BlurLevel5/BlurEditedMorph113,Stimuli/BlurLevel5/BlurEditedMorph113.png,Stimuli/BlurLevel5/NumberedMorphs/BlurEditedMorph113.png,Stimuli/BlurLevel5/OriginalBlur/BlurEditedMorph113.png,Stimuli/BlurMorphTrio/EditedMorph113.png,None,None,0,0,0,0,0,8,8,112,,,31,1,9,57,1.361597588,2.09667642,113,131.9011623,132.4004939,131.9011623,132.4004939,93.19727891,1574366080,1574366085,4.283818245,53,118,-5,-5,1574366078,1574366080,,,CK,1,21,F,UnderGrad,2019_Nov_21_1153,AdjustExp1,3.1.5,59.95431864,Experiment
19,Stimuli/Morph19.JPG,Stimuli/Morph19.png,Stimuli/BlurLevel5/BlurEditedMorph19,Stimuli/BlurLevel5/BlurEditedMorph19.png,Stimuli/BlurLevel5/NumberedMorphs/BlurEditedMorph19.png,Stimuli/BlurLevel5/OriginalBlur/BlurEditedMorph19.png,Stimuli/BlurMorphTrio/EditedMorph19.png,010045right.gif,Stimuli/normal_thumbnails/19right.gif,0,0,0,0,0,9,9,18,,,86,1,10,57,1.361597588,2.09667642,19,138.8557863,139.3507898,138.8557863,139.3507898,34.69387755,1574366087,1574366091,3.116399765,132,118,-99,48,1574366085,1574366087,,,CK,1,21,F,UnderGrad,2019_Nov_21_1153,AdjustExp1,3.1.5,59.95431864,Experiment
64,Stimuli/Morph64.JPG,Stimuli/Morph64.png,Stimuli/BlurLevel5/BlurEditedMorph64,Stimuli/BlurLevel5/BlurEditedMorph64.png,Stimuli/BlurLevel5/NumberedMorphs/BlurEditedMorph64.png,Stimuli/BlurLevel5/OriginalBlur/BlurEditedMorph64.png,Stimuli/BlurMorphTrio/EditedMorph64.png,020208right.gif,Stimuli/normal_thumbnails/64right.gif,0,0,0,0,0,10,10,63,,,13,1,11,258,-0.519779227,-2.445369002,64,144.999968,145.5009196,144.999968,145.5009196,89.11564626,1574366094,1574366098,4.016753197,81,72,-8,-8,1574366091,1574366094,,,CK,1,21,F,UnderGrad,2019_Nov_21_1153,AdjustExp1,3.1.5,59.95431864,Experiment
43,Stimuli/Morph43.JPG,Stimuli/Morph43.png,Stimuli/BlurLevel5/BlurEditedMorph43,Stimuli/BlurLevel5/BlurEditedMorph43.png,Stimuli/BlurLevel5/NumberedMorphs/BlurEditedMorph43.png,Stimuli/BlurLevel5/OriginalBlur/BlurEditedMorph43.png,Stimuli/BlurMorphTrio/EditedMorph43.png,010124right.gif,Stimuli/normal_thumbnails/43right.gif,0,0,0,0,0,11,11,42,,,18,1,12,343,2.39076189,-0.730929262,43,151.2370417,151.7344721,151.2370417,151.7344721,82.31292517,1574366100,1574366103,2.883661985,75,56,-13,-13,1574366098,1574366100,,,CK,1,21,F,UnderGrad,2019_Nov_21_1153,AdjustExp1,3.1.5,59.95431864,Experiment
34,Stimuli/Morph34.JPG,Stimuli/Morph34.png,Stimuli/BlurLevel5/BlurEditedMorph34,Stimuli/BlurLevel5/BlurEditedMorph34.png,Stimuli/BlurLevel5/NumberedMorphs/BlurEditedMorph34.png,Stimuli/BlurLevel5/OriginalBlur/BlurEditedMorph34.png,Stimuli/BlurMorphTrio/EditedMorph34.png,010090right.gif,Stimuli/normal_thumbnails/34right.gif,0,0,0,0,0,12,12,33,,,71,1,13,287,0.730929262,-2.39076189,34,156.5532294,157.0509077,156.5532294,157.0509077,68.70748299,1574366105,1574366108,2.283076048,76,57,-23,-23,1574366103,1574366105,,,CK,1,21,F,UnderGrad,2019_Nov_21_1153,AdjustExp1,3.1.5,59.95431864,Experiment
130,Stimuli/Morph130.JPG,Stimuli/Morph130.png,Stimuli/BlurLevel5/BlurEditedMorph130,Stimuli/BlurLevel5/BlurEditedMorph130.png,Stimuli/BlurLevel5/NumberedMorphs/BlurEditedMorph130.png,Stimuli/BlurLevel5/OriginalBlur/BlurEditedMorph130.png,Stimuli/BlurMorphTrio/EditedMorph130.png,None,None,0,0,0,0,0,13,13,129,,,26,1,14,127,-1.504537558,1.996588775,130,161.2851372,161.7841465,161.2851372,161.7841465,93.19727891,1574366110,1574366113,3.666630268,6,135,-5,-5,1574366108,1574366110,,,CK,1,21,F,UnderGrad,2019_Nov_21_1153,AdjustExp1,3.1.5,59.95431864,Experiment
105,Stimuli/Morph105.JPG,Stimuli/Morph105.png,Stimuli/BlurLevel5/BlurEditedMorph105,Stimuli/BlurLevel5/BlurEditedMorph105.png,Stimuli/BlurLevel5/NumberedMorphs/BlurEditedMorph105.png,Stimuli/BlurLevel5/OriginalBlur/BlurEditedMorph105.png,Stimuli/BlurMorphTrio/EditedMorph105.png,None,None,0,0,0,0,0,14,14,104,,,52,1,15,122,-1.324798161,2.12012024,105,167.2329194,167.7336588,167.2329194,167.7336588,97.27891156,1574366116,1574366121,4.850476027,27,107,-2,-2,1574366114,1574366116,,,CK,1,21,F,UnderGrad,2019_Nov_21_1153,AdjustExp1,3.1.5,59.95431864,Experiment
103,Stimuli/Morph103.JPG,Stimuli/Morph103.png,Stimuli/BlurLevel5/BlurEditedMorph103,Stimuli/BlurLevel5/BlurEditedMorph103.png,Stimuli/BlurLevel5/NumberedMorphs/BlurEditedMorph103.png,Stimuli/BlurLevel5/OriginalBlur/BlurEditedMorph103.png,Stimuli/BlurMorphTrio/EditedMorph103.png,None,None,0,0,0,0,0,15,15,102,,,47,1,16,255,-0.647047613,-2.414814566,103,174.8336577,175.3335207,174.8336577,175.3335207,98.63945578,1574366123,1574366127,3.867814779,90,102,1,1,1574366121,1574366123,,,CK,1,21,F,UnderGrad,2019_Nov_21_1153,AdjustExp1,3.1.5,59.95431864,Experiment
89,Stimuli/Morph89.JPG,Stimuli/Morph89.png,Stimuli/BlurLevel5/BlurEditedMorph89,Stimuli/BlurLevel5/BlurEditedMorph89.png,Stimuli/BlurLevel5/NumberedMorphs/BlurEditedMorph89.png,Stimuli/BlurLevel5/OriginalBlur/BlurEditedMorph89.png,Stimuli/BlurMorphTrio/EditedMorph89.png,020273right.gif,Stimuli/normal_thumbnails/89right.gif,0,0,0,0,0,16,16,88,,,39,1,17,141,-1.942864904,1.573300978,89,181.4013736,181.9003826,181.4013736,181.9003826,67.34693878,1574366130,1574366133,3.366701841,12,113,-24,-24,1574366128,1574366130,,,CK,1,21,F,UnderGrad,2019_Nov_21_1153,AdjustExp1,3.1.5,59.95431864,Experiment
65,Stimuli/Morph65.JPG,Stimuli/Morph65.png,Stimuli/BlurLevel5/BlurEditedMorph65,Stimuli/BlurLevel5/BlurEditedMorph65.png,Stimuli/BlurLevel5/NumberedMorphs/BlurEditedMorph65.png,Stimuli/BlurLevel5/OriginalBlur/BlurEditedMorph65.png,Stimuli/BlurMorphTrio/EditedMorph65.png,020209right.gif,Stimuli/normal_thumbnails/65right.gif,0,0,0,0,0,17,17,64,,,11,1,18,179,-2.499619238,0.043631016,65,187.6552176,188.149719,187.6552176,188.149719,89.11564626,1574366136,1574366140,4.26698184,46,73,-8,-8,1574366134,1574366136,,,CK,1,21,F,UnderGrad,2019_Nov_21_1153,AdjustExp1,3.1.5,59.95431864,Experiment
85,Stimuli/Morph85.JPG,Stimuli/Morph85.png,Stimuli/BlurLevel5/BlurEditedMorph85,Stimuli/BlurLevel5/BlurEditedMorph85.png,Stimuli/BlurLevel5/NumberedMorphs/BlurEditedMorph85.png,Stimuli/BlurLevel5/OriginalBlur/BlurEditedMorph85.png,Stimuli/BlurMorphTrio/EditedMorph85.png,020264right.gif,Stimuli/normal_thumbnails/85right.gif,0,0,0,0,0,18,18,84,,,12,1,19,105,-0.647047613,2.414814566,85,194.8825368,195.3838274,194.8825368,195.3838274,94.55782313,1574366143,1574366148,4.317054033,35,81,4,4,1574366141,1574366143,,,CK,1,21,F,UnderGrad,2019_Nov_21_1153,AdjustExp1,3.1.5,59.95431864,Experiment
87,Stimuli/Morph87.JPG,Stimuli/Morph87.png,Stimuli/BlurLevel5/BlurEditedMorph87,Stimuli/BlurLevel5/BlurEditedMorph87.png,Stimuli/BlurLevel5/NumberedMorphs/BlurEditedMorph87.png,Stimuli/BlurLevel5/OriginalBlur/BlurEditedMorph87.png,Stimuli/BlurMorphTrio/EditedMorph87.png,020270right.gif,Stimuli/normal_thumbnails/87right.gif,0,0,0,0,0,19,19,86,,,96,1,20,278,0.347932752,-2.475670172,87,202.5379707,203.0335543,202.5379707,203.0335543,86.39455782,1574366151,1574366155,3.666907787,4,77,10,10,1574366148,1574366151,,,CK,1,21,F,UnderGrad,2019_Nov_21_1153,AdjustExp1,3.1.5,59.95431864,Experiment
39,Stimuli/Morph39.JPG,Stimuli/Morph39.png,Stimuli/BlurLevel5/BlurEditedMorph39,Stimuli/BlurLevel5/BlurEditedMorph39.png,Stimuli/BlurLevel5/NumberedMorphs/BlurEditedMorph39.png,Stimuli/BlurLevel5/OriginalBlur/BlurEditedMorph39.png,Stimuli/BlurMorphTrio/EditedMorph39.png,010109right.gif,Stimuli/normal_thumbnails/39right.gif,0,0,0,0,0,20,20,38,,,84,1,21,282,0.519779227,-2.445369002,39,208.7163659,209.2167139,208.7163659,209.2167139,90.47619048,1574366157,1574366159,2.118098021,8,46,-7,-7,1574366155,1574366157,,,CK,1,21,F,UnderGrad,2019_Nov_21_1153,AdjustExp1,3.1.5,59.95431864,Experiment
78,Stimuli/Morph78.JPG,Stimuli/Morph78.png,Stimuli/BlurLevel5/BlurEditedMorph78,Stimuli/BlurLevel5/BlurEditedMorph78.png,Stimuli/BlurLevel5/NumberedMorphs/BlurEditedMorph78.png,Stimuli/BlurLevel5/OriginalBlur/BlurEditedMorph78.png,Stimuli/BlurMorphTrio/EditedMorph78.png,020238right.gif,Stimuli/normal_thumbnails/78right.gif,0,0,0,0,0,21,21,77,,,97,1,22,253,-0.730929262,-2.39076189,78,213.2994975,213.7992771,213.2994975,213.7992771,97.27891156,1574366162,1574366166,4.066987038,136,76,2,2,1574366160,1574366162,,,CK,1,21,F,UnderGrad,2019_Nov_21_1153,AdjustExp1,3.1.5,59.95431864,Experiment
61,Stimuli/Morph61.JPG,Stimuli/Morph61.png,Stimuli/BlurLevel5/BlurEditedMorph61,Stimuli/BlurLevel5/BlurEditedMorph61.png,Stimuli/BlurLevel5/NumberedMorphs/BlurEditedMorph61.png,Stimuli/BlurLevel5/OriginalBlur/BlurEditedMorph61.png,Stimuli/BlurMorphTrio/EditedMorph61.png,020201right.gif,Stimuli/normal_thumbnails/61right.gif,0,0,0,0,0,22,22,60,,,52,1,23,140,-1.915111108,1.606969024,61,219.6401505,220.1325054,219.6401505,220.1325054,79.59183673,1574366168,1574366170,1.866296053,109,76,-15,-15,1574366166,1574366168,,,CK,1,21,F,UnderGrad,2019_Nov_21_1153,AdjustExp1,3.1.5,59.95431864,Experiment
99,Stimuli/Morph99.JPG,Stimuli/Morph99.png,Stimuli/BlurLevel5/BlurEditedMorph99,Stimuli/BlurLevel5/BlurEditedMorph99.png,Stimuli/BlurLevel5/NumberedMorphs/BlurEditedMorph99.png,Stimuli/BlurLevel5/OriginalBlur/BlurEditedMorph99.png,Stimuli/BlurMorphTrio/EditedMorph99.png,020299right.gif,Stimuli/normal_thumbnails/99right.gif,0,0,0,0,0,23,23,98,,,53,1,24,315,1.767766953,-1.767766953,99,223.9335615,224.4332549,223.9335615,224.4332549,71.42857143,1574366172,1574366174,1.950143814,74,78,21,21,1574366170,1574366172,,,CK,1,21,F,UnderGrad,2019_Nov_21_1153,AdjustExp1,3.1.5,59.95431864,Experiment
12,Stimuli/Morph12.JPG,Stimuli/Morph12.png,Stimuli/BlurLevel5/BlurEditedMorph12,Stimuli/BlurLevel5/BlurEditedMorph12.png,Stimuli/BlurLevel5/NumberedMorphs/BlurEditedMorph12.png,Stimuli/BlurLevel5/OriginalBlur/BlurEditedMorph12.png,Stimuli/BlurMorphTrio/EditedMorph12.png,010026right.gif,Stimuli/normal_thumbnails/12right.gif,0,0,0,0,0,24,24,11,,,1,1,25,152,-2.207368982,1.173678907,12,227.832947,228.3332044,227.832947,228.3332044,68.70748299,1574366176,1574366185,8.416881323,91,136,-124,23,1574366175,1574366176,,,CK,1,21,F,UnderGrad,2019_Nov_21_1153,AdjustExp1,3.1.5,59.95431864,Experiment
52,Stimuli/Morph52.JPG,Stimuli/Morph52.png,Stimuli/BlurLevel5/BlurEditedMorph52,Stimuli/BlurLevel5/BlurEditedMorph52.png,Stimuli/BlurLevel5/NumberedMorphs/BlurEditedMorph52.png,Stimuli/BlurLevel5/OriginalBlur/BlurEditedMorph52.png,Stimuli/BlurMorphTrio/EditedMorph52.png,010148right.gif,Stimuli/normal_thumbnails/52right.gif,0,0,0,0,0,25,25,51,,,92,1,26,167,-2.435925162,0.562377636,52,239.3317769,239.833122,239.3317769,239.833122,95.91836735,1574366188,1574366190,2.617364168,109,55,-3,-3,1574366185,1574366188,,,CK,1,21,F,UnderGrad,2019_Nov_21_1153,AdjustExp1,3.1.5,59.95431864,Experiment
49,Stimuli/Morph49.JPG,Stimuli/Morph49.png,Stimuli/BlurLevel5/BlurEditedMorph49,Stimuli/BlurLevel5/BlurEditedMorph49.png,Stimuli/BlurLevel5/NumberedMorphs/BlurEditedMorph49.png,Stimuli/BlurLevel5/OriginalBlur/BlurEditedMorph49.png,Stimuli/BlurMorphTrio/EditedMorph49.png,010135right.gif,Stimuli/normal_thumbnails/49right.gif,0,0,0,0,0,26,26,48,,,32,1,27,0,2.5,0,49,244.5821911,245.0829887,244.5821911,245.0829887,86.39455782,1574366193,1574366195,1.999960184,77,59,-10,-10,1574366191,1574366193,,,CK,1,21,F,UnderGrad,2019_Nov_21_1153,AdjustExp1,3.1.5,59.95431864,Experiment
46,Stimuli/Morph46.JPG,Stimuli/Morph46.png,Stimuli/BlurLevel5/BlurEditedMorph46,Stimuli/BlurLevel5/BlurEditedMorph46.png,Stimuli/BlurLevel5/NumberedMorphs/BlurEditedMorph46.png,Stimuli/BlurLevel5/OriginalBlur/BlurEditedMorph46.png,Stimuli/BlurMorphTrio/EditedMorph46.png,010128right.gif,Stimuli/normal_thumbnails/46right.gif,0,0,0,0,0,27,27,45,,,23,1,28,213,-2.09667642,-1.361597588,46,249.1663454,249.6659808,249.1663454,249.6659808,90.47619048,1574366198,1574366199,0.900382996,53,53,-7,-7,1574366195,1574366198,,,CK,1,21,F,UnderGrad,2019_Nov_21_1153,AdjustExp1,3.1.5,59.95431864,Experiment
82,Stimuli/Morph82.JPG,Stimuli/Morph82.png,Stimuli/BlurLevel5/BlurEditedMorph82,Stimuli/BlurLevel5/BlurEditedMorph82.png,Stimuli/BlurLevel5/NumberedMorphs/BlurEditedMorph82.png,Stimuli/BlurLevel5/OriginalBlur/BlurEditedMorph82.png,Stimuli/BlurMorphTrio/EditedMorph82.png,020247right.gif,Stimuli/normal_thumbnails/82right.gif,0,0,0,0,0,28,28,81,,,67,1,29,315,1.767766953,-1.767766953,82,252.782569,253.2815903,252.782569,253.2815903,97.27891156,1574366201,1574366203,2.015505075,79,80,2,2,1574366199,1574366201,,,CK,1,21,F,UnderGrad,2019_Nov_21_1153,AdjustExp1,3.1.5,59.95431864,Experiment
58,Stimuli/Morph58.JPG,Stimuli/Morph58.png,Stimuli/BlurLevel5/BlurEditedMorph58,Stimuli/BlurLevel5/BlurEditedMorph58.png,Stimuli/BlurLevel5/NumberedMorphs/BlurEditedMorph58.png,Stimuli/BlurLevel5/OriginalBlur/BlurEditedMorph58.png,Stimuli/BlurMorphTrio/EditedMorph58.png,010159right.gif,Stimuli/normal_thumbnails/58right.gif,0,0,0,0,0,29,29,57,,,51,1,30,271,0.043631016,-2.499619238,58,257.3055399,257.7994181,257.3055399,257.7994181,98.63945578,1574366206,1574366208,2.400421143,71,59,-1,-1,1574366204,1574366206,,,CK,1,21,F,UnderGrad,2019_Nov_21_1153,AdjustExp1,3.1.5,59.95431864,Experiment
56,Stimuli/Morph56.JPG,Stimuli/Morph56.png,Stimuli/BlurLevel5/BlurEditedMorph56,Stimuli/BlurLevel5/BlurEditedMorph56.png,Stimuli/BlurLevel5/NumberedMorphs/BlurEditedMorph56.png,Stimuli/BlurLevel5/OriginalBlur/BlurEditedMorph56.png,Stimuli/BlurMorphTrio/EditedMorph56.png,010157right.gif,Stimuli/normal_thumbnails/56right.gif,0,0,0,0,0,30,30,55,,,83,1,31,187,-2.481365379,-0.304673359,56,262.1656545,262.6658518,262.1656545,262.6658518,94.55782313,1574366211,1574366212,1.599973202,88,60,-4,-4,1574366209,1574366211,,,CK,1,21,F,UnderGrad,2019_Nov_21_1153,AdjustExp1,3.1.5,59.95431864,Experiment
120,Stimuli/Morph120.JPG,Stimuli/Morph120.png,Stimuli/BlurLevel5/BlurEditedMorph120,Stimuli/BlurLevel5/BlurEditedMorph120.png,Stimuli/BlurLevel5/NumberedMorphs/BlurEditedMorph120.png,Stimuli/BlurLevel5/OriginalBlur/BlurEditedMorph120.png,Stimuli/BlurMorphTrio/EditedMorph120.png,None,None,0,0,0,0,0,31,31,119,,,75,1,32,62,1.173678907,2.207368982,120,265.9823606,266.4821869,265.9823606,266.4821869,90.47619048,1574366215,1574366220,5.034142971,146,113,7,7,1574366213,1574366215,,,CK,1,21,F,UnderGrad,2019_Nov_21_1153,AdjustExp1,3.1.5,59.95431864,Experiment
134,Stimuli/Morph134.JPG,Stimuli/Morph134.png,Stimuli/BlurLevel5/BlurEditedMorph134,Stimuli/BlurLevel5/BlurEditedMorph134.png,Stimuli/BlurLevel5/NumberedMorphs/BlurEditedMorph134.png,Stimuli/BlurLevel5/OriginalBlur/BlurEditedMorph134.png,Stimuli/BlurMorphTrio/EditedMorph134.png,None,None,0,0,0,0,0,32,32,133,,,52,1,33,6,2.486304738,0.261321158,134,273.4823165,273.9825338,273.4823165,273.9825338,79.59183673,1574366222,1574366224,1.49980402,129,119,15,15,1574366220,1574366222,,,CK,1,21,F,UnderGrad,2019_Nov_21_1153,AdjustExp1,3.1.5,59.95431864,Experiment
42,Stimuli/Morph42.JPG,Stimuli/Morph42.png,Stimuli/BlurLevel5/BlurEditedMorph42,Stimuli/BlurLevel5/BlurEditedMorph42.png,Stimuli/BlurLevel5/NumberedMorphs/BlurEditedMorph42.png,Stimuli/BlurLevel5/OriginalBlur/BlurEditedMorph42.png,Stimuli/BlurMorphTrio/EditedMorph42.png,010121right.gif,Stimuli/normal_thumbnails/42right.gif,0,0,0,0,0,33,33,41,,,1,1,34,108,-0.772542486,2.377641291,42,276.8986299,277.3990982,276.8986299,277.3990982,98.63945578,1574366226,1574366227,1.649825573,51,43,-1,-1,1574366224,1574366226,,,CK,1,21,F,UnderGrad,2019_Nov_21_1153,AdjustExp1,3.1.5,59.95431864,Experiment
27,Stimuli/Morph27.JPG,Stimuli/Morph27.png,Stimuli/BlurLevel5/BlurEditedMorph27,Stimuli/BlurLevel5/BlurEditedMorph27.png,Stimuli/BlurLevel5/NumberedMorphs/BlurEditedMorph27.png,Stimuli/BlurLevel5/OriginalBlur/BlurEditedMorph27.png,Stimuli/BlurMorphTrio/EditedMorph27.png,010072right.gif,Stimuli/normal_thumbnails/27right.gif,0,0,0,0,0,34,34,26,,,58,1,35,154,-2.246985116,1.095927867,27,280.8850307,281.3816145,280.8850307,281.3816145,100,1574366229,1574366232,2.300295115,52,27,0,0,1574366227,1574366229,,,CK,1,21,F,UnderGrad,2019_Nov_21_1153,AdjustExp1,3.1.5,59.95431864,Experiment
6,Stimuli/Morph6.JPG,Stimuli/Morph6.png,Stimuli/BlurLevel5/BlurEditedMorph6,Stimuli/BlurLevel5/BlurEditedMorph6.png,Stimuli/BlurLevel5/NumberedMorphs/BlurEditedMorph6.png,Stimuli/BlurLevel5/OriginalBlur/BlurEditedMorph6.png,Stimuli/BlurMorphTrio/EditedMorph6.png,010012right.gif,Stimuli/normal_thumbnails/6right.gif,0,0,0,0,0,35,35,5,,,50,1,36,44,1.798349501,1.736645926,6,285.4870301,285.981853,285.4870301,285.981853,87.75510204,1574366234,1574366238,3.616222858,75,144,-138,9,1574366232,1574366234,,,CK,1,21,F,UnderGrad,2019_Nov_21_1153,AdjustExp1,3.1.5,59.95431864,Experiment
9,Stimuli/Morph9.JPG,Stimuli/Morph9.png,Stimuli/BlurLevel5/BlurEditedMorph9,Stimuli/BlurLevel5/BlurEditedMorph9.png,Stimuli/BlurLevel5/NumberedMorphs/BlurEditedMorph9.png,Stimuli/BlurLevel5/OriginalBlur/BlurEditedMorph9.png,Stimuli/BlurMorphTrio/EditedMorph9.png,010015right.gif,Stimuli/normal_thumbnails/9right.gif,0,0,0,0,0,36,36,8,,,81,1,37,200,-2.349231552,-0.855050358,9,291.3161992,291.8149785,291.3161992,291.8149785,91.83673469,1574366240,1574366242,1.766891718,141,15,-6,-6,1574366238,1574366240,,,CK,1,21,F,UnderGrad,2019_Nov_21_1153,AdjustExp1,3.1.5,59.95431864,Experiment
37,Stimuli/Morph37.JPG,Stimuli/Morph37.png,Stimuli/BlurLevel5/BlurEditedMorph37,Stimuli/BlurLevel5/BlurEditedMorph37.png,Stimuli/BlurLevel5/NumberedMorphs/BlurEditedMorph37.png,Stimuli/BlurLevel5/OriginalBlur/BlurEditedMorph37.png,Stimuli/BlurMorphTrio/EditedMorph37.png,010097right.gif,Stimuli/normal_thumbnails/37right.gif,0,0,0,0,0,37,37,36,,,85,1,38,327,2.09667642,-1.361597588,37,295.3849052,295.8819341,295.3849052,295.8819341,100,1574366244,1574366245,1.400249958,19,37,0,0,1574366242,1574366244,,,CK,1,21,F,UnderGrad,2019_Nov_21_1153,AdjustExp1,3.1.5,59.95431864,Experiment
13,Stimuli/Morph13.JPG,Stimuli/Morph13.png,Stimuli/BlurLevel5/BlurEditedMorph13,Stimuli/BlurLevel5/BlurEditedMorph13.png,Stimuli/BlurLevel5/NumberedMorphs/BlurEditedMorph13.png,Stimuli/BlurLevel5/OriginalBlur/BlurEditedMorph13.png,Stimuli/BlurMorphTrio/EditedMorph13.png,010027right.gif,Stimuli/normal_thumbnails/13right.gif,0,0,0,0,0,38,38,12,,,85,1,39,308,1.539153688,-1.970026884,13,298.9811578,299.4817905,298.9811578,299.4817905,72.78911565,1574366248,1574366250,2.733739853,84,140,-127,20,1574366246,1574366248,,,CK,1,21,F,UnderGrad,2019_Nov_21_1153,AdjustExp1,3.1.5,59.95431864,Experiment
23,Stimuli/Morph23.JPG,Stimuli/Morph23.png,Stimuli/BlurLevel5/BlurEditedMorph23,Stimuli/BlurLevel5/BlurEditedMorph23.png,Stimuli/BlurLevel5/NumberedMorphs/BlurEditedMorph23.png,Stimuli/BlurLevel5/OriginalBlur/BlurEditedMorph23.png,Stimuli/BlurMorphTrio/EditedMorph23.png,010063right.gif,Stimuli/normal_thumbnails/23right.gif,0,0,0,0,0,39,39,22,,,97,1,40,268,-0.087248742,-2.498477068,23,304.5179751,305.0150381,304.5179751,305.0150381,46.93877551,1574366253,1574366260,6.883756876,98,131,-108,39,1574366251,1574366253,,,CK,1,21,F,UnderGrad,2019_Nov_21_1153,AdjustExp1,3.1.5,59.95431864,Experiment
28,Stimuli/Morph28.JPG,Stimuli/Morph28.png,Stimuli/BlurLevel5/BlurEditedMorph28,Stimuli/BlurLevel5/BlurEditedMorph28.png,Stimuli/BlurLevel5/NumberedMorphs/BlurEditedMorph28.png,Stimuli/BlurLevel5/OriginalBlur/BlurEditedMorph28.png,Stimuli/BlurMorphTrio/EditedMorph28.png,010073right.gif,Stimuli/normal_thumbnails/28right.gif,0,0,0,0,0,40,40,27,,,72,1,41,280,0.434120444,-2.462019383,28,314.0196467,314.5148212,314.0196467,314.5148212,41.49659864,1574366263,1574366272,9.367879152,3,132,-104,43,1574366260,1574366263,,,CK,1,21,F,UnderGrad,2019_Nov_21_1153,AdjustExp1,3.1.5,59.95431864,Experiment
144,Stimuli/Morph144.JPG,Stimuli/Morph144.png,Stimuli/BlurLevel5/BlurEditedMorph144,Stimuli/BlurLevel5/BlurEditedMorph144.png,Stimuli/BlurLevel5/NumberedMorphs/BlurEditedMorph144.png,Stimuli/BlurLevel5/OriginalBlur/BlurEditedMorph144.png,Stimuli/BlurMorphTrio/EditedMorph144.png,None,None,0,0,0,0,0,41,41,143,,,31,1,42,216,-2.022542486,-1.469463131,144,326.0543136,326.5480736,326.0543136,326.5480736,94.55782313,1574366275,1574366279,4.28313899,109,1,143,-4,1574366272,1574366275,,,CK,1,21,F,UnderGrad,2019_Nov_21_1153,AdjustExp1,3.1.5,59.95431864,Experiment
114,Stimuli/Morph114.JPG,Stimuli/Morph114.png,Stimuli/BlurLevel5/BlurEditedMorph114,Stimuli/BlurLevel5/BlurEditedMorph114.png,Stimuli/BlurLevel5/NumberedMorphs/BlurEditedMorph114.png,Stimuli/BlurLevel5/OriginalBlur/BlurEditedMorph114.png,Stimuli/BlurMorphTrio/EditedMorph114.png,None,None,0,0,0,0,0,42,42,113,,,32,1,43,349,2.454067959,-0.477022488,114,333.0646047,333.5647261,333.0646047,333.5647261,85.03401361,1574366282,1574366283,1.232876062,112,103,11,11,1574366279,1574366282,,,CK,1,21,F,UnderGrad,2019_Nov_21_1153,AdjustExp1,3.1.5,59.95431864,Experiment
1,Stimuli/Morph1.JPG,Stimuli/Morph1.png,Stimuli/BlurLevel5/BlurEditedMorph1,Stimuli/BlurLevel5/BlurEditedMorph1.png,Stimuli/BlurLevel5/NumberedMorphs/BlurEditedMorph1.png,Stimuli/BlurLevel5/OriginalBlur/BlurEditedMorph1.png,Stimuli/BlurMorphTrio/EditedMorph1.png,010003right.gif,Stimuli/normal_thumbnails/1right.gif,0,0,0,0,0,43,43,0,,,19,1,44,30,2.165063509,1.25,1,337.22006,337.7147337,337.22006,337.7147337,85.03401361,1574366286,1574366289,3.450328112,37,137,-136,11,1574366283,1574366286,,,CK,1,21,F,UnderGrad,2019_Nov_21_1153,AdjustExp1,3.1.5,59.95431864,Experiment
71,Stimuli/Morph71.JPG,Stimuli/Morph71.png,Stimuli/BlurLevel5/BlurEditedMorph71,Stimuli/BlurLevel5/BlurEditedMorph71.png,Stimuli/BlurLevel5/NumberedMorphs/BlurEditedMorph71.png,Stimuli/BlurLevel5/OriginalBlur/BlurEditedMorph71.png,Stimuli/BlurMorphTrio/EditedMorph71.png,020225right.gif,Stimuli/normal_thumbnails/71right.gif,0,0,0,0,0,44,44,70,,,14,1,45,247,-0.976827821,-2.301262134,71,343.2835212,343.7816111,343.2835212,343.7816111,21.08843537,1574366292,1574366293,1.066804171,109,129,-58,-58,1574366290,1574366292,,,CK,1,21,F,UnderGrad,2019_Nov_21_1153,AdjustExp1,3.1.5,59.95431864,Experiment
45,Stimuli/Morph45.JPG,Stimuli/Morph45.png,Stimuli/BlurLevel5/BlurEditedMorph45,Stimuli/BlurLevel5/BlurEditedMorph45.png,Stimuli/BlurLevel5/NumberedMorphs/BlurEditedMorph45.png,Stimuli/BlurLevel5/OriginalBlur/BlurEditedMorph45.png,Stimuli/BlurMorphTrio/EditedMorph45.png,010127right.gif,Stimuli/normal_thumbnails/45right.gif,0,0,0,0,0,45,45,44,,,89,1,46,114,-1.016841608,2.283863644,45,346.6867789,347.1814698,346.6867789,347.1814698,87.75510204,1574366295,1574366297,1.999469995,92,54,-9,-9,1574366293,1574366295,,,CK,1,21,F,UnderGrad,2019_Nov_21_1153,AdjustExp1,3.1.5,59.95431864,Experiment
126,Stimuli/Morph126.JPG,Stimuli/Morph126.png,Stimuli/BlurLevel5/BlurEditedMorph126,Stimuli/BlurLevel5/BlurEditedMorph126.png,Stimuli/BlurLevel5/NumberedMorphs/BlurEditedMorph126.png,Stimuli/BlurLevel5/OriginalBlur/BlurEditedMorph126.png,Stimuli/BlurMorphTrio/EditedMorph126.png,None,None,0,0,0,0,0,46,46,125,,,57,1,47,281,0.477022488,-2.454067959,126,351.3307028,351.8311926,351.3307028,351.8311926,71.42857143,1574366300,1574366302,2.099611044,68,105,21,21,1574366298,1574366300,,,CK,1,21,F,UnderGrad,2019_Nov_21_1153,AdjustExp1,3.1.5,59.95431864,Experiment
7,Stimuli/Morph7.JPG,Stimuli/Morph7.png,Stimuli/BlurLevel5/BlurEditedMorph7,Stimuli/BlurLevel5/BlurEditedMorph7.png,Stimuli/BlurLevel5/NumberedMorphs/BlurEditedMorph7.png,Stimuli/BlurLevel5/OriginalBlur/BlurEditedMorph7.png,Stimuli/BlurMorphTrio/EditedMorph7.png,010013right.gif,Stimuli/normal_thumbnails/7right.gif,0,0,0,0,0,47,47,6,,,75,1,48,116,-1.095927867,2.246985116,7,355.8642716,356.3636441,355.8642716,356.3636441,33.33333333,1574366304,1574366306,1.733470917,65,105,-98,49,1574366302,1574366304,,,CK,1,21,F,UnderGrad,2019_Nov_21_1153,AdjustExp1,3.1.5,59.95431864,Experiment
116,Stimuli/Morph116.JPG,Stimuli/Morph116.png,Stimuli/BlurLevel5/BlurEditedMorph116,Stimuli/BlurLevel5/BlurEditedMorph116.png,Stimuli/BlurLevel5/NumberedMorphs/BlurEditedMorph116.png,Stimuli/BlurLevel5/OriginalBlur/BlurEditedMorph116.png,Stimuli/BlurMorphTrio/EditedMorph116.png,None,None,0,0,0,0,0,48,48,115,,,50,1,49,313,1.7049959,-1.828384254,116,360.1143894,360.6135977,360.1143894,360.6135977,78.23129252,1574366309,1574366311,2.001250744,58,100,16,16,1574366306,1574366309,,,CK,1,21,F,UnderGrad,2019_Nov_21_1153,AdjustExp1,3.1.5,59.95431864,Experiment
122,Stimuli/Morph122.JPG,Stimuli/Morph122.png,Stimuli/BlurLevel5/BlurEditedMorph122,Stimuli/BlurLevel5/BlurEditedMorph122.png,Stimuli/BlurLevel5/NumberedMorphs/BlurEditedMorph122.png,Stimuli/BlurLevel5/OriginalBlur/BlurEditedMorph122.png,Stimuli/BlurMorphTrio/EditedMorph122.png,None,None,0,0,0,0,0,49,49,121,,,75,1,50,184,-2.493910126,-0.174391184,122,364.2981113,364.7974126,364.2981113,364.7974126,83.67346939,1574366313,1574366314,1.149488926,120,134,-12,-12,1574366311,1574366313,,,CK,1,21,F,UnderGrad,2019_Nov_21_1153,AdjustExp1,3.1.5,59.95431864,Experiment
86,Stimuli/Morph86.JPG,Stimuli/Morph86.png,Stimuli/BlurLevel5/BlurEditedMorph86,Stimuli/BlurLevel5/BlurEditedMorph86.png,Stimuli/BlurLevel5/NumberedMorphs/BlurEditedMorph86.png,Stimuli/BlurLevel5/OriginalBlur/BlurEditedMorph86.png,Stimuli/BlurMorphTrio/EditedMorph86.png,020266right.gif,Stimuli/normal_thumbnails/86right.gif,0,0,0,0,0,50,50,85,,,51,1,51,15,2.414814566,0.647047613,86,368.2473168,368.7480436,368.2473168,368.7480436,48.29931973,1574366317,1574366322,5.150048971,139,124,-38,-38,1574366314,1574366317,,,CK,1,21,F,UnderGrad,2019_Nov_21_1153,AdjustExp1,3.1.5,59.95431864,Experiment
63,Stimuli/Morph63.JPG,Stimuli/Morph63.png,Stimuli/BlurLevel5/BlurEditedMorph63,Stimuli/BlurLevel5/BlurEditedMorph63.png,Stimuli/BlurLevel5/NumberedMorphs/BlurEditedMorph63.png,Stimuli/BlurLevel5/OriginalBlur/BlurEditedMorph63.png,Stimuli/BlurMorphTrio/EditedMorph63.png,020206right.gif,Stimuli/normal_thumbnails/63right.gif,0,0,0,0,0,51,51,62,,,43,1,52,355,2.490486745,-0.217889357,63,376.0022251,376.4970101,376.0022251,376.4970101,97.27891156,1574366325,1574366326,1.066025972,61,61,2,2,1574366322,1574366325,,,CK,1,21,F,UnderGrad,2019_Nov_21_1153,AdjustExp1,3.1.5,59.95431864,Experiment
93,Stimuli/Morph93.JPG,Stimuli/Morph93.png,Stimuli/BlurLevel5/BlurEditedMorph93,Stimuli/BlurLevel5/BlurEditedMorph93.png,Stimuli/BlurLevel5/NumberedMorphs/BlurEditedMorph93.png,Stimuli/BlurLevel5/OriginalBlur/BlurEditedMorph93.png,Stimuli/BlurMorphTrio/EditedMorph93.png,020280right.gif,Stimuli/normal_thumbnails/93right.gif,0,0,0,0,0,52,52,92,,,59,1,53,197,-2.39076189,-0.730929262,93,379.4164818,379.9146453,379.4164818,379.9146453,98.63945578,1574366328,1574366329,1.450169086,92,92,1,1,1574366326,1574366328,,,CK,1,21,F,UnderGrad,2019_Nov_21_1153,AdjustExp1,3.1.5,59.95431864,Experiment
47,Stimuli/Morph47.JPG,Stimuli/Morph47.png,Stimuli/BlurLevel5/BlurEditedMorph47,Stimuli/BlurLevel5/BlurEditedMorph47.png,Stimuli/BlurLevel5/NumberedMorphs/BlurEditedMorph47.png,Stimuli/BlurLevel5/OriginalBlur/BlurEditedMorph47.png,Stimuli/BlurMorphTrio/EditedMorph47.png,010130right.gif,Stimuli/normal_thumbnails/47right.gif,0,0,0,0,0,53,53,46,,,42,1,54,159,-2.333951066,0.895919874,47,383.7318248,384.2302539,383.7318248,384.2302539,98.63945578,1574366332,1574366335,2.366408825,39,46,1,1,1574366330,1574366332,,,CK,1,21,F,UnderGrad,2019_Nov_21_1153,AdjustExp1,3.1.5,59.95431864,Experiment
91,Stimuli/Morph91.JPG,Stimuli/Morph91.png,Stimuli/BlurLevel5/BlurEditedMorph91,Stimuli/BlurLevel5/BlurEditedMorph91.png,Stimuli/BlurLevel5/NumberedMorphs/BlurEditedMorph91.png,Stimuli/BlurLevel5/OriginalBlur/BlurEditedMorph91.png,Stimuli/BlurMorphTrio/EditedMorph91.png,020276right.gif,Stimuli/normal_thumbnails/91right.gif,0,0,0,0,0,54,54,90,,,8,1,55,38,1.970026884,1.539153688,91,388.649488,389.1478106,388.649488,389.1478106,78.23129252,1574366337,1574366344,6.999494791,51,107,-16,-16,1574366335,1574366337,,,CK,1,21,F,UnderGrad,2019_Nov_21_1153,AdjustExp1,3.1.5,59.95431864,Experiment
21,Stimuli/Morph21.JPG,Stimuli/Morph21.png,Stimuli/BlurLevel5/BlurEditedMorph21,Stimuli/BlurLevel5/BlurEditedMorph21.png,Stimuli/BlurLevel5/NumberedMorphs/BlurEditedMorph21.png,Stimuli/BlurLevel5/OriginalBlur/BlurEditedMorph21.png,Stimuli/BlurMorphTrio/EditedMorph21.png,010049right.gif,Stimuli/normal_thumbnails/21right.gif,0,0,0,0,0,55,55,20,,,32,1,56,17,2.39076189,0.730929262,21,398.5303448,399.030832,398.5303448,399.030832,52.38095238,1574366347,1574366351,3.51643014,97,133,-112,35,1574366344,1574366347,,,CK,1,21,F,UnderGrad,2019_Nov_21_1153,AdjustExp1,3.1.5,59.95431864,Experiment
73,Stimuli/Morph73.JPG,Stimuli/Morph73.png,Stimuli/BlurLevel5/BlurEditedMorph73,Stimuli/BlurLevel5/BlurEditedMorph73.png,Stimuli/BlurLevel5/NumberedMorphs/BlurEditedMorph73.png,Stimuli/BlurLevel5/OriginalBlur/BlurEditedMorph73.png,Stimuli/BlurMorphTrio/EditedMorph73.png,020230right.gif,Stimuli/normal_thumbnails/73right.gif,0,0,0,0,0,56,56,72,,,36,1,57,207,-2.22751631,-1.134976249,73,404.4319022,404.9304105,404.4319022,404.9304105,95.91836735,1574366353,1574366355,1.93289876,92,76,-3,-3,1574366351,1574366353,,,CK,1,21,F,UnderGrad,2019_Nov_21_1153,AdjustExp1,3.1.5,59.95431864,Experiment
83,Stimuli/Morph83.JPG,Stimuli/Morph83.png,Stimuli/BlurLevel5/BlurEditedMorph83,Stimuli/BlurLevel5/BlurEditedMorph83.png,Stimuli/BlurLevel5/NumberedMorphs/BlurEditedMorph83.png,Stimuli/BlurLevel5/OriginalBlur/BlurEditedMorph83.png,Stimuli/BlurMorphTrio/EditedMorph83.png,020259right.gif,Stimuli/normal_thumbnails/83right.gif,0,0,0,0,0,57,57,82,,,35,1,58,317,1.828384254,-1.7049959,83,408.681972,409.1807206,408.681972,409.1807206,86.39455782,1574366357,1574366359,1.666893005,86,73,10,10,1574366355,1574366357,,,CK,1,21,F,UnderGrad,2019_Nov_21_1153,AdjustExp1,3.1.5,59.95431864,Experiment
131,Stimuli/Morph131.JPG,Stimuli/Morph131.png,Stimuli/BlurLevel5/BlurEditedMorph131,Stimuli/BlurLevel5/BlurEditedMorph131.png,Stimuli/BlurLevel5/NumberedMorphs/BlurEditedMorph131.png,Stimuli/BlurLevel5/OriginalBlur/BlurEditedMorph131.png,Stimuli/BlurMorphTrio/EditedMorph131.png,None,None,0,0,0,0,0,58,58,130,,,75,1,59,37,1.996588775,1.504537558,131,412.6705486,413.163549,412.6705486,413.163549,95.91836735,1574366361,1574366362,1.233521938,126,134,-3,-3,1574366359,1574366361,,,CK,1,21,F,UnderGrad,2019_Nov_21_1153,AdjustExp1,3.1.5,59.95431864,Experiment
98,Stimuli/Morph98.JPG,Stimuli/Morph98.png,Stimuli/BlurLevel5/BlurEditedMorph98,Stimuli/BlurLevel5/BlurEditedMorph98.png,Stimuli/BlurLevel5/NumberedMorphs/BlurEditedMorph98.png,Stimuli/BlurLevel5/OriginalBlur/BlurEditedMorph98.png,Stimuli/BlurMorphTrio/EditedMorph98.png,020298right.gif,Stimuli/normal_thumbnails/98right.gif,0,0,0,0,0,59,59,97,,,38,1,60,145,-2.047880111,1.433941091,98,416.53248,417.0304573,416.53248,417.0304573,95.91836735,1574366365,1574366366,1.149751902,95,95,3,3,1574366363,1574366365,,,CK,1,21,F,UnderGrad,2019_Nov_21_1153,AdjustExp1,3.1.5,59.95431864,Experiment
133,Stimuli/Morph133.JPG,Stimuli/Morph133.png,Stimuli/BlurLevel5/BlurEditedMorph133,Stimuli/BlurLevel5/BlurEditedMorph133.png,Stimuli/BlurLevel5/NumberedMorphs/BlurEditedMorph133.png,Stimuli/BlurLevel5/OriginalBlur/BlurEditedMorph133.png,Stimuli/BlurMorphTrio/EditedMorph133.png,None,None,0,0,0,0,0,60,60,132,,,41,1,61,123,-1.361597588,2.09667642,133,420.4172822,420.9137032,420.4172822,420.9137032,63.26530612,1574366369,1574366370,1.35123086,113,106,27,27,1574366366,1574366369,,,CK,1,21,F,UnderGrad,2019_Nov_21_1153,AdjustExp1,3.1.5,59.95431864,Experiment
75,Stimuli/Morph75.JPG,Stimuli/Morph75.png,Stimuli/BlurLevel5/BlurEditedMorph75,Stimuli/BlurLevel5/BlurEditedMorph75.png,Stimuli/BlurLevel5/NumberedMorphs/BlurEditedMorph75.png,Stimuli/BlurLevel5/OriginalBlur/BlurEditedMorph75.png,Stimuli/BlurMorphTrio/EditedMorph75.png,020233right.gif,Stimuli/normal_thumbnails/75right.gif,0,0,0,0,0,61,61,74,,,48,1,62,236,-1.397982259,-2.072593931,75,424.213667,424.7136,424.213667,424.7136,60.54421769,1574366373,1574366376,2.834163904,14,104,-29,-29,1574366371,1574366373,,,CK,1,21,F,UnderGrad,2019_Nov_21_1153,AdjustExp1,3.1.5,59.95431864,Experiment
62,Stimuli/Morph62.JPG,Stimuli/Morph62.png,Stimuli/BlurLevel5/BlurEditedMorph62,Stimuli/BlurLevel5/BlurEditedMorph62.png,Stimuli/BlurLevel5/NumberedMorphs/BlurEditedMorph62.png,Stimuli/BlurLevel5/OriginalBlur/BlurEditedMorph62.png,Stimuli/BlurMorphTrio/EditedMorph62.png,020205right.gif,Stimuli/normal_thumbnails/62right.gif,0,0,0,0,0,62,62,61,,,84,1,63,56,1.397982259,2.072593931,62,429.4132909,429.9136032,429.4132909,429.9136032,60.54421769,1574366378,1574366380,1.583161116,8,33,29,29,1574366376,1574366378,,,CK,1,21,F,UnderGrad,2019_Nov_21_1153,AdjustExp1,3.1.5,59.95431864,Experiment
68,Stimuli/Morph68.JPG,Stimuli/Morph68.png,Stimuli/BlurLevel5/BlurEditedMorph68,Stimuli/BlurLevel5/BlurEditedMorph68.png,Stimuli/BlurLevel5/NumberedMorphs/BlurEditedMorph68.png,Stimuli/BlurLevel5/OriginalBlur/BlurEditedMorph68.png,Stimuli/BlurMorphTrio/EditedMorph68.png,020218right.gif,Stimuli/normal_thumbnails/68right.gif,0,0,0,0,0,63,63,67,,,4,1,64,0,2.5,0,68,433.9133681,434.4136795,433.9133681,434.4136795,91.83673469,1574366382,1574366387,4.382959127,104,74,-6,-6,1574366380,1574366382,,,CK,1,21,F,UnderGrad,2019_Nov_21_1153,AdjustExp1,3.1.5,59.95431864,Experiment
121,Stimuli/Morph121.JPG,Stimuli/Morph121.png,Stimuli/BlurLevel5/BlurEditedMorph121,Stimuli/BlurLevel5/BlurEditedMorph121.png,Stimuli/BlurLevel5/NumberedMorphs/BlurEditedMorph121.png,Stimuli/BlurLevel5/OriginalBlur/BlurEditedMorph121.png,Stimuli/BlurMorphTrio/EditedMorph121.png,None,None,0,0,0,0,0,64,64,120,,,28,1,65,183,-2.496573837,-0.130839891,121,440.8696327,441.3635073,440.8696327,441.3635073,93.19727891,1574366389,1574366392,2.717088938,15,126,-5,-5,1574366387,1574366389,,,CK,1,21,F,UnderGrad,2019_Nov_21_1153,AdjustExp1,3.1.5,59.95431864,Experiment
80,Stimuli/Morph80.JPG,Stimuli/Morph80.png,Stimuli/BlurLevel5/BlurEditedMorph80,Stimuli/BlurLevel5/BlurEditedMorph80.png,Stimuli/BlurLevel5/NumberedMorphs/BlurEditedMorph80.png,Stimuli/BlurLevel5/OriginalBlur/BlurEditedMorph80.png,Stimuli/BlurMorphTrio/EditedMorph80.png,020240right.gif,Stimuli/normal_thumbnails/80right.gif,0,0,0,0,0,65,65,79,,,72,1,66,32,2.12012024,1.324798161,80,446.2307583,446.7298029,446.2307583,446.7298029,91.83673469,1574366395,1574366396,1.066841841,86,86,-6,-6,1574366392,1574366395,,,CK,1,21,F,UnderGrad,2019_Nov_21_1153,AdjustExp1,3.1.5,59.95431864,Experiment
81,Stimuli/Morph81.JPG,Stimuli/Morph81.png,Stimuli/BlurLevel5/BlurEditedMorph81,Stimuli/BlurLevel5/BlurEditedMorph81.png,Stimuli/BlurLevel5/NumberedMorphs/BlurEditedMorph81.png,Stimuli/BlurLevel5/OriginalBlur/BlurEditedMorph81.png,Stimuli/BlurMorphTrio/EditedMorph81.png,020245right.gif,Stimuli/normal_thumbnails/81right.gif,0,0,0,0,0,66,66,80,,,20,1,67,13,2.435925162,0.562377636,81,449.9146918,450.4134612,449.9146918,450.4134612,93.19727891,1574366398,1574366400,1.950628757,59,76,5,5,1574366396,1574366398,,,CK,1,21,F,UnderGrad,2019_Nov_21_1153,AdjustExp1,3.1.5,59.95431864,Experiment
29,Stimuli/Morph29.JPG,Stimuli/Morph29.png,Stimuli/BlurLevel5/BlurEditedMorph29,Stimuli/BlurLevel5/BlurEditedMorph29.png,Stimuli/BlurLevel5/NumberedMorphs/BlurEditedMorph29.png,Stimuli/BlurLevel5/OriginalBlur/BlurEditedMorph29.png,Stimuli/BlurMorphTrio/EditedMorph29.png,010074right.gif,Stimuli/normal_thumbnails/29right.gif,0,0,0,0,0,67,67,28,,,41,1,68,71,0.813920386,2.363796439,29,454.5304469,455.0293197,454.5304469,455.0293197,94.55782313,1574366403,1574366408,4.499902964,58,33,-4,-4,1574366401,1574366403,,,CK,1,21,F,UnderGrad,2019_Nov_21_1153,AdjustExp1,3.1.5,59.95431864,Experiment
3,Stimuli/Morph3.JPG,Stimuli/Morph3.png,Stimuli/BlurLevel5/BlurEditedMorph3,Stimuli/BlurLevel5/BlurEditedMorph3.png,Stimuli/BlurLevel5/NumberedMorphs/BlurEditedMorph3.png,Stimuli/BlurLevel5/OriginalBlur/BlurEditedMorph3.png,Stimuli/BlurMorphTrio/EditedMorph3.png,010009right.gif,Stimuli/normal_thumbnails/3right.gif,0,0,0,0,0,68,68,2,,,43,1,69,351,2.469220851,-0.391086163,3,461.3302559,461.8299851,461.3302559,461.8299851,74.14965986,1574366410,1574366411,1.40027523,116,131,-128,19,1574366408,1574366410,,,CK,1,21,F,UnderGrad,2019_Nov_21_1153,AdjustExp1,3.1.5,59.95431864,Experiment
15,Stimuli/Morph15.JPG,Stimuli/Morph15.png,Stimuli/BlurLevel5/BlurEditedMorph15,Stimuli/BlurLevel5/BlurEditedMorph15.png,Stimuli/BlurLevel5/NumberedMorphs/BlurEditedMorph15.png,Stimuli/BlurLevel5/OriginalBlur/BlurEditedMorph15.png,Stimuli/BlurMorphTrio/EditedMorph15.png,010031right.gif,Stimuli/normal_thumbnails/15right.gif,0,0,0,0,0,69,69,14,,,9,1,70,179,-2.499619238,0.043631016,15,464.8811529,465.3794655,464.8811529,465.3794655,78.23129252,1574366413,1574366416,2.783346176,31,31,-16,-16,1574366412,1574366413,,,CK,1,21,F,UnderGrad,2019_Nov_21_1153,AdjustExp1,3.1.5,59.95431864,Experiment
112,Stimuli/Morph112.JPG,Stimuli/Morph112.png,Stimuli/BlurLevel5/BlurEditedMorph112,Stimuli/BlurLevel5/BlurEditedMorph112.png,Stimuli/BlurLevel5/NumberedMorphs/BlurEditedMorph112.png,Stimuli/BlurLevel5/OriginalBlur/BlurEditedMorph112.png,Stimuli/BlurMorphTrio/EditedMorph112.png,None,None,0,0,0,0,0,70,70,111,,,16,1,71,144,-2.022542486,1.469463131,112,470.0962954,470.5966281,470.0962954,470.5966281,21.08843537,1574366419,1574366424,5.649641991,23,23,89,-58,1574366416,1574366419,,,CK,1,21,F,UnderGrad,2019_Nov_21_1153,AdjustExp1,3.1.5,59.95431864,Experiment
124,Stimuli/Morph124.JPG,Stimuli/Morph124.png,Stimuli/BlurLevel5/BlurEditedMorph124,Stimuli/BlurLevel5/BlurEditedMorph124.png,Stimuli/BlurLevel5/NumberedMorphs/BlurEditedMorph124.png,Stimuli/BlurLevel5/OriginalBlur/BlurEditedMorph124.png,Stimuli/BlurMorphTrio/EditedMorph124.png,None,None,0,0,0,0,0,71,71,123,,,60,1,72,15,2.414814566,0.647047613,124,478.6463187,479.1465159,478.6463187,479.1465159,86.39455782,1574366427,1574366430,2.750168085,76,134,-10,-10,1574366425,1574366427,,,CK,1,21,F,UnderGrad,2019_Nov_21_1153,AdjustExp1,3.1.5,59.95431864,Experiment
44,Stimuli/Morph44.JPG,Stimuli/Morph44.png,Stimuli/BlurLevel5/BlurEditedMorph44,Stimuli/BlurLevel5/BlurEditedMorph44.png,Stimuli/BlurLevel5/NumberedMorphs/BlurEditedMorph44.png,Stimuli/BlurLevel5/OriginalBlur/BlurEditedMorph44.png,Stimuli/BlurMorphTrio/EditedMorph44.png,010126right.gif,Stimuli/normal_thumbnails/44right.gif,0,0,0,0,0,72,72,43,,,26,1,73,136,-1.798349501,1.736645926,44,483.9458475,484.4463195,483.9458475,484.4463195,76.8707483,1574366432,1574366436,3.617328167,119,61,-17,-17,1574366430,1574366432,,,CK,1,21,F,UnderGrad,2019_Nov_21_1153,AdjustExp1,3.1.5,59.95431864,Experiment
36,Stimuli/Morph36.JPG,Stimuli/Morph36.png,Stimuli/BlurLevel5/BlurEditedMorph36,Stimuli/BlurLevel5/BlurEditedMorph36.png,Stimuli/BlurLevel5/NumberedMorphs/BlurEditedMorph36.png,Stimuli/BlurLevel5/OriginalBlur/BlurEditedMorph36.png,Stimuli/BlurMorphTrio/EditedMorph36.png,010095right.gif,Stimuli/normal_thumbnails/36right.gif,0,0,0,0,0,73,73,35,,,72,1,74,198,-2.377641291,-0.772542486,36,490.0825989,490.5797103,490.0825989,490.5797103,67.34693878,1574366439,1574366440,1.866592884,88,60,-24,-24,1574366436,1574366439,,,CK,1,21,F,UnderGrad,2019_Nov_21_1153,AdjustExp1,3.1.5,59.95431864,Experiment
125,Stimuli/Morph125.JPG,Stimuli/Morph125.png,Stimuli/BlurLevel5/BlurEditedMorph125,Stimuli/BlurLevel5/BlurEditedMorph125.png,Stimuli/BlurLevel5/NumberedMorphs/BlurEditedMorph125.png,Stimuli/BlurLevel5/OriginalBlur/BlurEditedMorph125.png,Stimuli/BlurMorphTrio/EditedMorph125.png,None,None,0,0,0,0,0,74,74,124,,,48,1,75,241,-1.212024051,-2.186549268,125,494.5815352,495.0793471,494.5815352,495.0793471,78.23129252,1574366443,1574366446,3.083567142,7,141,-16,-16,1574366441,1574366443,,,CK,1,21,F,UnderGrad,2019_Nov_21_1153,AdjustExp1,3.1.5,59.95431864,Experiment
4,Stimuli/Morph4.JPG,Stimuli/Morph4.png,Stimuli/BlurLevel5/BlurEditedMorph4,Stimuli/BlurLevel5/BlurEditedMorph4.png,Stimuli/BlurLevel5/NumberedMorphs/BlurEditedMorph4.png,Stimuli/BlurLevel5/OriginalBlur/BlurEditedMorph4.png,Stimuli/BlurMorphTrio/EditedMorph4.png,010010right.gif,Stimuli/normal_thumbnails/4right.gif,0,0,0,0,0,75,75,3,,,15,1,76,336,2.283863644,-1.016841608,4,500.1287879,500.6292843,500.1287879,500.6292843,86.39455782,1574366449,1574366450,1.500078917,125,141,-137,10,1574366446,1574366449,,,CK,1,21,F,UnderGrad,2019_Nov_21_1153,AdjustExp1,3.1.5,59.95431864,Experiment
26,Stimuli/Morph26.JPG,Stimuli/Morph26.png,Stimuli/BlurLevel5/BlurEditedMorph26,Stimuli/BlurLevel5/BlurEditedMorph26.png,Stimuli/BlurLevel5/NumberedMorphs/BlurEditedMorph26.png,Stimuli/BlurLevel5/OriginalBlur/BlurEditedMorph26.png,Stimuli/BlurMorphTrio/EditedMorph26.png,010070right.gif,Stimuli/normal_thumbnails/26right.gif,0,0,0,0,0,76,76,25,,,34,1,77,51,1.573300978,1.942864904,26,504.5347971,505.0294852,504.5347971,505.0294852,78.23129252,1574366453,1574366458,4.549473047,10,10,16,16,1574366450,1574366453,,,CK,1,21,F,UnderGrad,2019_Nov_21_1153,AdjustExp1,3.1.5,59.95431864,Experiment
70,Stimuli/Morph70.JPG,Stimuli/Morph70.png,Stimuli/BlurLevel5/BlurEditedMorph70,Stimuli/BlurLevel5/BlurEditedMorph70.png,Stimuli/BlurLevel5/NumberedMorphs/BlurEditedMorph70.png,Stimuli/BlurLevel5/OriginalBlur/BlurEditedMorph70.png,Stimuli/BlurMorphTrio/EditedMorph70.png,020221right.gif,Stimuli/normal_thumbnails/70right.gif,0,0,0,0,0,77,77,69,,,37,1,78,140,-1.915111108,1.606969024,70,511.7669657,512.2622559,511.7669657,512.2622559,51.02040816,1574366460,1574366464,3.899837255,18,106,-36,-36,1574366458,1574366460,,,CK,1,21,F,UnderGrad,2019_Nov_21_1153,AdjustExp1,3.1.5,59.95431864,Experiment
129,Stimuli/Morph129.JPG,Stimuli/Morph129.png,Stimuli/BlurLevel5/BlurEditedMorph129,Stimuli/BlurLevel5/BlurEditedMorph129.png,Stimuli/BlurLevel5/NumberedMorphs/BlurEditedMorph129.png,Stimuli/BlurLevel5/OriginalBlur/BlurEditedMorph129.png,Stimuli/BlurMorphTrio/EditedMorph129.png,None,None,0,0,0,0,0,78,78,128,,,71,1,79,312,1.672826516,-1.857862064,129,518.1973074,518.9835923,518.1973074,518.9835923,19.72789116,1574366467,1574366470,2.832665205,138,41,88,-59,1574366464,1574366467,,,CK,1,21,F,UnderGrad,2019_Nov_21_1153,AdjustExp1,3.1.5,59.95431864,Experiment
132,Stimuli/Morph132.JPG,Stimuli/Morph132.png,Stimuli/BlurLevel5/BlurEditedMorph132,Stimuli/BlurLevel5/BlurEditedMorph132.png,Stimuli/BlurLevel5/NumberedMorphs/BlurEditedMorph132.png,Stimuli/BlurLevel5/OriginalBlur/BlurEditedMorph132.png,Stimuli/BlurMorphTrio/EditedMorph132.png,None,None,0,0,0,0,0,79,79,131,,,9,1,80,17,2.39076189,0.730929262,132,523.4632417,523.9624335,523.4632417,523.9624335,53.7414966,1574366472,1574366478,6.233072996,80,98,34,34,1574366470,1574366472,,,CK,1,21,F,UnderGrad,2019_Nov_21_1153,AdjustExp1,3.1.5,59.95431864,Experiment
53,Stimuli/Morph53.JPG,Stimuli/Morph53.png,Stimuli/BlurLevel5/BlurEditedMorph53,Stimuli/BlurLevel5/BlurEditedMorph53.png,Stimuli/BlurLevel5/NumberedMorphs/BlurEditedMorph53.png,Stimuli/BlurLevel5/OriginalBlur/BlurEditedMorph53.png,Stimuli/BlurMorphTrio/EditedMorph53.png,010149right.gif,Stimuli/normal_thumbnails/53right.gif,0,0,0,0,0,80,80,52,,,47,1,81,82,0.347932752,2.475670172,53,532.2122899,532.7123031,532.2122899,532.7123031,95.91836735,1574366481,1574366488,6.800159931,35,50,3,3,1574366479,1574366481,,,CK,1,21,F,UnderGrad,2019_Nov_21_1153,AdjustExp1,3.1.5,59.95431864,Experiment
77,Stimuli/Morph77.JPG,Stimuli/Morph77.png,Stimuli/BlurLevel5/BlurEditedMorph77,Stimuli/BlurLevel5/BlurEditedMorph77.png,Stimuli/BlurLevel5/NumberedMorphs/BlurEditedMorph77.png,Stimuli/BlurLevel5/OriginalBlur/BlurEditedMorph77.png,Stimuli/BlurMorphTrio/EditedMorph77.png,020235right.gif,Stimuli/normal_thumbnails/77right.gif,0,0,0,0,0,81,81,76,,,66,1,82,85,0.217889357,2.490486745,77,541.2840146,541.7785648,541.2840146,541.7785648,93.19727891,1574366490,1574366494,4.532965899,109,72,5,5,1574366488,1574366490,,,CK,1,21,F,UnderGrad,2019_Nov_21_1153,AdjustExp1,3.1.5,59.95431864,Experiment
11,Stimuli/Morph11.JPG,Stimuli/Morph11.png,Stimuli/BlurLevel5/BlurEditedMorph11,Stimuli/BlurLevel5/BlurEditedMorph11.png,Stimuli/BlurLevel5/NumberedMorphs/BlurEditedMorph11.png,Stimuli/BlurLevel5/OriginalBlur/BlurEditedMorph11.png,Stimuli/BlurMorphTrio/EditedMorph11.png,010024right.gif,Stimuli/normal_thumbnails/11right.gif,0,0,0,0,0,82,82,10,,,98,1,83,181,-2.499619238,-0.043631016,11,548.6447936,549.1455951,548.6447936,549.1455951,87.75510204,1574366497,1574366499,1.666538,146,20,-9,-9,1574366495,1574366497,,,CK,1,21,F,UnderGrad,2019_Nov_21_1153,AdjustExp1,3.1.5,59.95431864,Experiment
102,Stimuli/Morph102.JPG,Stimuli/Morph102.png,Stimuli/BlurLevel5/BlurEditedMorph102,Stimuli/BlurLevel5/BlurEditedMorph102.png,Stimuli/BlurLevel5/NumberedMorphs/BlurEditedMorph102.png,Stimuli/BlurLevel5/OriginalBlur/BlurEditedMorph102.png,Stimuli/BlurMorphTrio/EditedMorph102.png,None,None,0,0,0,0,0,83,83,101,,,26,1,84,260,-0.434120444,-2.462019383,102,552.815696,553.3112745,552.815696,553.3112745,78.23129252,1574366501,1574366505,3.850098133,27,86,16,16,1574366499,1574366501,,,CK,1,21,F,UnderGrad,2019_Nov_21_1153,AdjustExp1,3.1.5,59.95431864,Experiment
142,Stimuli/Morph142.JPG,Stimuli/Morph142.png,Stimuli/BlurLevel5/BlurEditedMorph142,Stimuli/BlurLevel5/BlurEditedMorph142.png,Stimuli/BlurLevel5/NumberedMorphs/BlurEditedMorph142.png,Stimuli/BlurLevel5/OriginalBlur/BlurEditedMorph142.png,Stimuli/BlurMorphTrio/EditedMorph142.png,None,None,0,0,0,0,0,84,84,141,,,66,1,85,260,-0.434120444,-2.462019383,142,558.8853571,559.3777272,558.8853571,559.3777272,64.62585034,1574366507,1574366512,4.499041796,12,116,26,26,1574366505,1574366507,,,CK,1,21,F,UnderGrad,2019_Nov_21_1153,AdjustExp1,3.1.5,59.95431864,Experiment
101,Stimuli/Morph101.JPG,Stimuli/Morph101.png,Stimuli/BlurLevel5/BlurEditedMorph101,Stimuli/BlurLevel5/BlurEditedMorph101.png,Stimuli/BlurLevel5/NumberedMorphs/BlurEditedMorph101.png,Stimuli/BlurLevel5/OriginalBlur/BlurEditedMorph101.png,Stimuli/BlurMorphTrio/EditedMorph101.png,None,None,1,0,1,0,0,0,0,100,,,82,2,1,326,2.072593931,-1.397982259,101,590.2827942,590.7778659,590.2827942,590.7778659,94.55782313,1574366539,1574366542,3.150250912,14,97,4,4,1574366537,1574366539,space,24.36218981,CK,1,21,F,UnderGrad,2019_Nov_21_1153,AdjustExp1,3.1.5,59.95431864,Experiment
90,Stimuli/Morph90.JPG,Stimuli/Morph90.png,Stimuli/BlurLevel5/BlurEditedMorph90,Stimuli/BlurLevel5/BlurEditedMorph90.png,Stimuli/BlurLevel5/NumberedMorphs/BlurEditedMorph90.png,Stimuli/BlurLevel5/OriginalBlur/BlurEditedMorph90.png,Stimuli/BlurMorphTrio/EditedMorph90.png,020275right.gif,Stimuli/normal_thumbnails/90right.gif,1,0,1,0,0,1,1,89,,,52,2,2,32,2.12012024,1.324798161,90,595.7280623,596.2276557,595.7280623,596.2276557,93.19727891,1574366544,1574366547,2.515585184,25,85,5,5,1574366542,1574366544,,,CK,1,21,F,UnderGrad,2019_Nov_21_1153,AdjustExp1,3.1.5,59.95431864,Experiment
63,Stimuli/Morph63.JPG,Stimuli/Morph63.png,Stimuli/BlurLevel5/BlurEditedMorph63,Stimuli/BlurLevel5/BlurEditedMorph63.png,Stimuli/BlurLevel5/NumberedMorphs/BlurEditedMorph63.png,Stimuli/BlurLevel5/OriginalBlur/BlurEditedMorph63.png,Stimuli/BlurMorphTrio/EditedMorph63.png,020206right.gif,Stimuli/normal_thumbnails/63right.gif,1,0,1,0,0,2,2,62,,,100,2,3,254,-0.68909339,-2.40315424,63,600.6165512,601.1108865,600.6165512,601.1108865,86.39455782,1574366549,1574366553,3.382348061,47,53,10,10,1574366547,1574366549,,,CK,1,21,F,UnderGrad,2019_Nov_21_1153,AdjustExp1,3.1.5,59.95431864,Experiment
113,Stimuli/Morph113.JPG,Stimuli/Morph113.png,Stimuli/BlurLevel5/BlurEditedMorph113,Stimuli/BlurLevel5/BlurEditedMorph113.png,Stimuli/BlurLevel5/NumberedMorphs/BlurEditedMorph113.png,Stimuli/BlurLevel5/OriginalBlur/BlurEditedMorph113.png,Stimuli/BlurMorphTrio/EditedMorph113.png,None,None,1,0,1,0,0,3,3,112,,,27,2,4,269,-0.043631016,-2.499619238,113,606.7112919,607.2109141,606.7112919,607.2109141,68.70748299,1574366555,1574366557,1.867125988,43,90,23,23,1574366553,1574366555,,,CK,1,21,F,UnderGrad,2019_Nov_21_1153,AdjustExp1,3.1.5,59.95431864,Experiment
107,Stimuli/Morph107.JPG,Stimuli/Morph107.png,Stimuli/BlurLevel5/BlurEditedMorph107,Stimuli/BlurLevel5/BlurEditedMorph107.png,Stimuli/BlurLevel5/NumberedMorphs/BlurEditedMorph107.png,Stimuli/BlurLevel5/OriginalBlur/BlurEditedMorph107.png,Stimuli/BlurMorphTrio/EditedMorph107.png,None,None,1,0,1,0,0,4,4,106,,,66,2,5,2,2.498477068,0.087248742,107,610.8149941,611.3114725,610.8149941,611.3114725,79.59183673,1574366559,1574366561,1.400714159,65,92,15,15,1574366557,1574366559,,,CK,1,21,F,UnderGrad,2019_Nov_21_1153,AdjustExp1,3.1.5,59.95431864,Experiment
79,Stimuli/Morph79.JPG,Stimuli/Morph79.png,Stimuli/BlurLevel5/BlurEditedMorph79,Stimuli/BlurLevel5/BlurEditedMorph79.png,Stimuli/BlurLevel5/NumberedMorphs/BlurEditedMorph79.png,Stimuli/BlurLevel5/OriginalBlur/BlurEditedMorph79.png,Stimuli/BlurMorphTrio/EditedMorph79.png,020239right.gif,Stimuli/normal_thumbnails/79right.gif,1,0,1,0,0,5,5,78,,,19,2,6,332,2.207368982,-1.173678907,79,615.0774211,615.5775675,615.0774211,615.5775675,48.29931973,1574366564,1574366567,3.600072861,17,117,-38,-38,1574366561,1574366564,,,CK,1,21,F,UnderGrad,2019_Nov_21_1153,AdjustExp1,3.1.5,59.95431864,Experiment
99,Stimuli/Morph99.JPG,Stimuli/Morph99.png,Stimuli/BlurLevel5/BlurEditedMorph99,Stimuli/BlurLevel5/BlurEditedMorph99.png,Stimuli/BlurLevel5/NumberedMorphs/BlurEditedMorph99.png,Stimuli/BlurLevel5/OriginalBlur/BlurEditedMorph99.png,Stimuli/BlurMorphTrio/EditedMorph99.png,020299right.gif,Stimuli/normal_thumbnails/99right.gif,1,0,1,0,0,6,6,98,,,67,2,7,173,-2.481365379,0.304673359,99,621.4479347,621.9442271,621.4479347,621.9442271,94.55782313,1574366570,1574366571,1.017697096,96,103,-4,-4,1574366567,1574366570,,,CK,1,21,F,UnderGrad,2019_Nov_21_1153,AdjustExp1,3.1.5,59.95431864,Experiment
13,Stimuli/Morph13.JPG,Stimuli/Morph13.png,Stimuli/BlurLevel5/BlurEditedMorph13,Stimuli/BlurLevel5/BlurEditedMorph13.png,Stimuli/BlurLevel5/NumberedMorphs/BlurEditedMorph13.png,Stimuli/BlurLevel5/OriginalBlur/BlurEditedMorph13.png,Stimuli/BlurMorphTrio/EditedMorph13.png,010027right.gif,Stimuli/normal_thumbnails/13right.gif,1,0,1,0,0,7,7,12,,,25,2,8,161,-2.363796439,0.813920386,13,624.9442796,625.4434138,624.9442796,625.4434138,87.75510204,1574366573,1574366574,0.766793013,22,22,-9,-9,1574366571,1574366573,,,CK,1,21,F,UnderGrad,2019_Nov_21_1153,AdjustExp1,3.1.5,59.95431864,Experiment
109,Stimuli/Morph109.JPG,Stimuli/Morph109.png,Stimuli/BlurLevel5/BlurEditedMorph109,Stimuli/BlurLevel5/BlurEditedMorph109.png,Stimuli/BlurLevel5/NumberedMorphs/BlurEditedMorph109.png,Stimuli/BlurLevel5/OriginalBlur/BlurEditedMorph109.png,Stimuli/BlurMorphTrio/EditedMorph109.png,None,None,1,0,1,0,0,8,8,108,,,67,2,9,130,-1.606969024,1.915111108,109,628.0960595,628.5939847,628.0960595,628.5939847,68.70748299,1574366577,1574366578,1.233211994,74,86,23,23,1574366575,1574366577,,,CK,1,21,F,UnderGrad,2019_Nov_21_1153,AdjustExp1,3.1.5,59.95431864,Experiment
93,Stimuli/Morph93.JPG,Stimuli/Morph93.png,Stimuli/BlurLevel5/BlurEditedMorph93,Stimuli/BlurLevel5/BlurEditedMorph93.png,Stimuli/BlurLevel5/NumberedMorphs/BlurEditedMorph93.png,Stimuli/BlurLevel5/OriginalBlur/BlurEditedMorph93.png,Stimuli/BlurMorphTrio/EditedMorph93.png,020280right.gif,Stimuli/normal_thumbnails/93right.gif,1,0,1,0,0,9,9,92,,,18,2,10,229,-1.640147572,-1.886773951,93,631.5005238,631.994109,631.5005238,631.994109,70.06802721,1574366580,1574366585,4.749984026,138,115,-22,-22,1574366578,1574366580,,,CK,1,21,F,UnderGrad,2019_Nov_21_1153,AdjustExp1,3.1.5,59.95431864,Experiment
56,Stimuli/Morph56.JPG,Stimuli/Morph56.png,Stimuli/BlurLevel5/BlurEditedMorph56,Stimuli/BlurLevel5/BlurEditedMorph56.png,Stimuli/BlurLevel5/NumberedMorphs/BlurEditedMorph56.png,Stimuli/BlurLevel5/OriginalBlur/BlurEditedMorph56.png,Stimuli/BlurMorphTrio/EditedMorph56.png,010157right.gif,Stimuli/normal_thumbnails/56right.gif,1,0,1,0,0,10,10,55,,,4,2,11,309,1.573300978,-1.942864904,56,639.4510469,639.9439908,639.4510469,639.9439908,79.59183673,1574366588,1574366590,1.949842215,83,71,-15,-15,1574366585,1574366588,,,CK,1,21,F,UnderGrad,2019_Nov_21_1153,AdjustExp1,3.1.5,59.95431864,Experiment
77,Stimuli/Morph77.JPG,Stimuli/Morph77.png,Stimuli/BlurLevel5/BlurEditedMorph77,Stimuli/BlurLevel5/BlurEditedMorph77.png,Stimuli/BlurLevel5/NumberedMorphs/BlurEditedMorph77.png,Stimuli/BlurLevel5/OriginalBlur/BlurEditedMorph77.png,Stimuli/BlurMorphTrio/EditedMorph77.png,020235right.gif,Stimuli/normal_thumbnails/77right.gif,1,0,1,0,0,11,11,76,,,79,2,12,53,1.504537558,1.996588775,77,643.661907,644.1605161,643.661907,644.1605161,95.91836735,1574366592,1574366594,1.549198151,67,74,3,3,1574366590,1574366592,,,CK,1,21,F,UnderGrad,2019_Nov_21_1153,AdjustExp1,3.1.5,59.95431864,Experiment
137,Stimuli/Morph137.JPG,Stimuli/Morph137.png,Stimuli/BlurLevel5/BlurEditedMorph137,Stimuli/BlurLevel5/BlurEditedMorph137.png,Stimuli/BlurLevel5/NumberedMorphs/BlurEditedMorph137.png,Stimuli/BlurLevel5/OriginalBlur/BlurEditedMorph137.png,Stimuli/BlurMorphTrio/EditedMorph137.png,None,None,1,0,1,0,0,12,12,136,,,40,2,13,229,-1.640147572,-1.886773951,137,647.5838925,648.0772578,647.5838925,648.0772578,89.11564626,1574366596,1574366598,1.499830008,135,129,8,8,1574366594,1574366596,,,CK,1,21,F,UnderGrad,2019_Nov_21_1153,AdjustExp1,3.1.5,59.95431864,Experiment
16,Stimuli/Morph16.JPG,Stimuli/Morph16.png,Stimuli/BlurLevel5/BlurEditedMorph16,Stimuli/BlurLevel5/BlurEditedMorph16.png,Stimuli/BlurLevel5/NumberedMorphs/BlurEditedMorph16.png,Stimuli/BlurLevel5/OriginalBlur/BlurEditedMorph16.png,Stimuli/BlurMorphTrio/EditedMorph16.png,010034right.gif,Stimuli/normal_thumbnails/16right.gif,1,0,1,0,0,13,13,15,,,36,2,14,328,2.12012024,-1.324798161,16,651.6274821,652.1273826,651.6274821,652.1273826,10.20408163,1574366600,1574366603,2.983108044,39,97,-81,66,1574366598,1574366600,,,CK,1,21,F,UnderGrad,2019_Nov_21_1153,AdjustExp1,3.1.5,59.95431864,Experiment
111,Stimuli/Morph111.JPG,Stimuli/Morph111.png,Stimuli/BlurLevel5/BlurEditedMorph111,Stimuli/BlurLevel5/BlurEditedMorph111.png,Stimuli/BlurLevel5/NumberedMorphs/BlurEditedMorph111.png,Stimuli/BlurLevel5/OriginalBlur/BlurEditedMorph111.png,Stimuli/BlurMorphTrio/EditedMorph111.png,None,None,1,0,1,0,0,14,14,110,,,57,2,15,113,-0.976827821,2.301262134,111,657.2629224,657.7607956,657.2629224,657.7607956,74.14965986,1574366606,1574366607,0.983856916,92,92,19,19,1574366603,1574366606,,,CK,1,21,F,UnderGrad,2019_Nov_21_1153,AdjustExp1,3.1.5,59.95431864,Experiment
26,Stimuli/Morph26.JPG,Stimuli/Morph26.png,Stimuli/BlurLevel5/BlurEditedMorph26,Stimuli/BlurLevel5/BlurEditedMorph26.png,Stimuli/BlurLevel5/NumberedMorphs/BlurEditedMorph26.png,Stimuli/BlurLevel5/OriginalBlur/BlurEditedMorph26.png,Stimuli/BlurMorphTrio/EditedMorph26.png,010070right.gif,Stimuli/normal_thumbnails/26right.gif,1,0,1,0,0,15,15,25,,,80,2,16,349,2.454067959,-0.477022488,26,660.7958019,661.2940196,660.7958019,661.2940196,46.93877551,1574366609,1574366611,1.883868217,95,134,-108,39,1574366607,1574366609,,,CK,1,21,F,UnderGrad,2019_Nov_21_1153,AdjustExp1,3.1.5,59.95431864,Experiment
139,Stimuli/Morph139.JPG,Stimuli/Morph139.png,Stimuli/BlurLevel5/BlurEditedMorph139,Stimuli/BlurLevel5/BlurEditedMorph139.png,Stimuli/BlurLevel5/NumberedMorphs/BlurEditedMorph139.png,Stimuli/BlurLevel5/OriginalBlur/BlurEditedMorph139.png,Stimuli/BlurMorphTrio/EditedMorph139.png,None,None,1,0,1,0,0,16,16,138,,,22,2,17,306,1.469463131,-2.022542486,139,665.1761416,665.6774564,665.1761416,665.6774564,72.78911565,1574366614,1574366616,2.750499964,101,12,127,-20,1574366611,1574366614,,,CK,1,21,F,UnderGrad,2019_Nov_21_1153,AdjustExp1,3.1.5,59.95431864,Experiment
121,Stimuli/Morph121.JPG,Stimuli/Morph121.png,Stimuli/BlurLevel5/BlurEditedMorph121,Stimuli/BlurLevel5/BlurEditedMorph121.png,Stimuli/BlurLevel5/NumberedMorphs/BlurEditedMorph121.png,Stimuli/BlurLevel5/OriginalBlur/BlurEditedMorph121.png,Stimuli/BlurMorphTrio/EditedMorph121.png,None,None,1,0,1,0,0,17,17,120,,,47,2,18,351,2.469220851,-0.391086163,121,670.9332509,671.4269728,670.9332509,671.4269728,51.02040816,1574366619,1574366622,3.000309944,20,85,36,36,1574366617,1574366619,,,CK,1,21,F,UnderGrad,2019_Nov_21_1153,AdjustExp1,3.1.5,59.95431864,Experiment
95,Stimuli/Morph95.JPG,Stimuli/Morph95.png,Stimuli/BlurLevel5/BlurEditedMorph95,Stimuli/BlurLevel5/BlurEditedMorph95.png,Stimuli/BlurLevel5/NumberedMorphs/BlurEditedMorph95.png,Stimuli/BlurLevel5/OriginalBlur/BlurEditedMorph95.png,Stimuli/BlurMorphTrio/EditedMorph95.png,020287right.gif,Stimuli/normal_thumbnails/95right.gif,1,0,1,0,0,18,18,94,,,2,2,19,25,2.265769468,1.056545654,95,676.2107733,676.7103176,676.2107733,676.7103176,89.11564626,1574366625,1574366626,0.883409977,103,103,-8,-8,1574366623,1574366625,,,CK,1,21,F,UnderGrad,2019_Nov_21_1153,AdjustExp1,3.1.5,59.95431864,Experiment
114,Stimuli/Morph114.JPG,Stimuli/Morph114.png,Stimuli/BlurLevel5/BlurEditedMorph114,Stimuli/BlurLevel5/BlurEditedMorph114.png,Stimuli/BlurLevel5/NumberedMorphs/BlurEditedMorph114.png,Stimuli/BlurLevel5/OriginalBlur/BlurEditedMorph114.png,Stimuli/BlurMorphTrio/EditedMorph114.png,None,None,1,0,1,0,0,19,19,113,,,44,2,20,77,0.562377636,2.435925162,114,679.6777215,680.1761926,679.6777215,680.1761926,83.67346939,1574366628,1574366633,4.833968878,32,126,-12,-12,1574366626,1574366628,,,CK,1,21,F,UnderGrad,2019_Nov_21_1153,AdjustExp1,3.1.5,59.95431864,Experiment
143,Stimuli/Morph143.JPG,Stimuli/Morph143.png,Stimuli/BlurLevel5/BlurEditedMorph143,Stimuli/BlurLevel5/BlurEditedMorph143.png,Stimuli/BlurLevel5/NumberedMorphs/BlurEditedMorph143.png,Stimuli/BlurLevel5/OriginalBlur/BlurEditedMorph143.png,Stimuli/BlurMorphTrio/EditedMorph143.png,None,None,1,0,1,0,0,20,20,142,,,38,2,21,7,2.481365379,0.304673359,143,687.129386,687.6269085,687.129386,687.6269085,74.14965986,1574366636,1574366637,1.482887268,139,124,19,19,1574366633,1574366636,,,CK,1,21,F,UnderGrad,2019_Nov_21_1153,AdjustExp1,3.1.5,59.95431864,Experiment
67,Stimuli/Morph67.JPG,Stimuli/Morph67.png,Stimuli/BlurLevel5/BlurEditedMorph67,Stimuli/BlurLevel5/BlurEditedMorph67.png,Stimuli/BlurLevel5/NumberedMorphs/BlurEditedMorph67.png,Stimuli/BlurLevel5/OriginalBlur/BlurEditedMorph67.png,Stimuli/BlurMorphTrio/EditedMorph67.png,020217right.gif,Stimuli/normal_thumbnails/67right.gif,1,0,1,0,0,21,21,66,,,44,2,22,222,-1.857862064,-1.672826516,67,690.9596574,691.4596741,690.9596574,691.4596741,97.27891156,1574366639,1574366644,4.199729919,33,69,-2,-2,1574366637,1574366639,,,CK,1,21,F,UnderGrad,2019_Nov_21_1153,AdjustExp1,3.1.5,59.95431864,Experiment
25,Stimuli/Morph25.JPG,Stimuli/Morph25.png,Stimuli/BlurLevel5/BlurEditedMorph25,Stimuli/BlurLevel5/BlurEditedMorph25.png,Stimuli/BlurLevel5/NumberedMorphs/BlurEditedMorph25.png,Stimuli/BlurLevel5/OriginalBlur/BlurEditedMorph25.png,Stimuli/BlurMorphTrio/EditedMorph25.png,010069right.gif,Stimuli/normal_thumbnails/25right.gif,1,0,1,0,0,22,22,24,,,3,2,23,308,1.539153688,-1.970026884,25,697.7092882,698.210058,697.7092882,698.210058,52.38095238,1574366646,1574366656,9.832587004,104,137,-112,35,1574366644,1574366646,,,CK,1,21,F,UnderGrad,2019_Nov_21_1153,AdjustExp1,3.1.5,59.95431864,Experiment
130,Stimuli/Morph130.JPG,Stimuli/Morph130.png,Stimuli/BlurLevel5/BlurEditedMorph130,Stimuli/BlurLevel5/BlurEditedMorph130.png,Stimuli/BlurLevel5/NumberedMorphs/BlurEditedMorph130.png,Stimuli/BlurLevel5/OriginalBlur/BlurEditedMorph130.png,Stimuli/BlurMorphTrio/EditedMorph130.png,None,None,1,0,1,0,0,23,23,129,,,86,2,24,220,-1.915111108,-1.606969024,130,709.877145,710.3760739,709.877145,710.3760739,72.78911565,1574366658,1574366665,6.900524139,3,3,127,-20,1574366656,1574366658,,,CK,1,21,F,UnderGrad,2019_Nov_21_1153,AdjustExp1,3.1.5,59.95431864,Experiment
35,Stimuli/Morph35.JPG,Stimuli/Morph35.png,Stimuli/BlurLevel5/BlurEditedMorph35,Stimuli/BlurLevel5/BlurEditedMorph35.png,Stimuli/BlurLevel5/NumberedMorphs/BlurEditedMorph35.png,Stimuli/BlurLevel5/OriginalBlur/BlurEditedMorph35.png,Stimuli/BlurMorphTrio/EditedMorph35.png,010094right.gif,Stimuli/normal_thumbnails/35right.gif,1,0,1,0,0,24,24,34,,,84,2,25,281,0.477022488,-2.454067959,35,719.012735,719.5099366,719.012735,719.5099366,97.27891156,1574366668,1574366668,0.850229025,33,33,2,2,1574366666,1574366668,,,CK,1,21,F,UnderGrad,2019_Nov_21_1153,AdjustExp1,3.1.5,59.95431864,Experiment
147,Stimuli/Morph147.JPG,Stimuli/Morph147.png,Stimuli/BlurLevel5/BlurEditedMorph147,Stimuli/BlurLevel5/BlurEditedMorph147.png,Stimuli/BlurLevel5/NumberedMorphs/BlurEditedMorph147.png,Stimuli/BlurLevel5/OriginalBlur/BlurEditedMorph147.png,Stimuli/BlurMorphTrio/EditedMorph147.png,None,None,1,0,1,0,0,25,25,146,,,61,2,26,286,0.68909339,-2.40315424,147,722.6425022,723.1430977,722.6425022,723.1430977,93.19727891,1574366671,1574366674,2.748787403,101,5,142,-5,1574366669,1574366671,,,CK,1,21,F,UnderGrad,2019_Nov_21_1153,AdjustExp1,3.1.5,59.95431864,Experiment
115,Stimuli/Morph115.JPG,Stimuli/Morph115.png,Stimuli/BlurLevel5/BlurEditedMorph115,Stimuli/BlurLevel5/BlurEditedMorph115.png,Stimuli/BlurLevel5/NumberedMorphs/BlurEditedMorph115.png,Stimuli/BlurLevel5/OriginalBlur/BlurEditedMorph115.png,Stimuli/BlurMorphTrio/EditedMorph115.png,None,None,1,0,1,0,0,26,26,114,,,59,2,27,148,-2.12012024,1.324798161,115,727.6765277,728.1764931,727.6765277,728.1764931,87.75510204,1574366676,1574366678,1.531754971,75,106,9,9,1574366674,1574366676,,,CK,1,21,F,UnderGrad,2019_Nov_21_1153,AdjustExp1,3.1.5,59.95431864,Experiment
92,Stimuli/Morph92.JPG,Stimuli/Morph92.png,Stimuli/BlurLevel5/BlurEditedMorph92,Stimuli/BlurLevel5/BlurEditedMorph92.png,Stimuli/BlurLevel5/NumberedMorphs/BlurEditedMorph92.png,Stimuli/BlurLevel5/OriginalBlur/BlurEditedMorph92.png,Stimuli/BlurMorphTrio/EditedMorph92.png,020277right.gif,Stimuli/normal_thumbnails/92right.gif,1,0,1,0,0,27,27,91,,,97,2,28,16,2.40315424,0.68909339,92,732.0592777,732.5595181,732.0592777,732.5595181,63.26530612,1574366681,1574366682,1.815247059,125,119,-27,-27,1574366678,1574366681,,,CK,1,21,F,UnderGrad,2019_Nov_21_1153,AdjustExp1,3.1.5,59.95431864,Experiment
134,Stimuli/Morph134.JPG,Stimuli/Morph134.png,Stimuli/BlurLevel5/BlurEditedMorph134,Stimuli/BlurLevel5/BlurEditedMorph134.png,Stimuli/BlurLevel5/NumberedMorphs/BlurEditedMorph134.png,Stimuli/BlurLevel5/OriginalBlur/BlurEditedMorph134.png,Stimuli/BlurMorphTrio/EditedMorph134.png,None,None,1,0,1,0,0,28,28,133,,,13,2,29,61,1.212024051,2.186549268,134,736.7615532,737.2595781,736.7615532,737.2595781,82.31292517,1574366685,1574366686,1.016649961,115,121,13,13,1574366683,1574366685,,,CK,1,21,F,UnderGrad,2019_Nov_21_1153,AdjustExp1,3.1.5,59.95431864,Experiment
91,Stimuli/Morph91.JPG,Stimuli/Morph91.png,Stimuli/BlurLevel5/BlurEditedMorph91,Stimuli/BlurLevel5/BlurEditedMorph91.png,Stimuli/BlurLevel5/NumberedMorphs/BlurEditedMorph91.png,Stimuli/BlurLevel5/OriginalBlur/BlurEditedMorph91.png,Stimuli/BlurMorphTrio/EditedMorph91.png,020276right.gif,Stimuli/normal_thumbnails/91right.gif,1,0,1,0,0,29,29,90,,,36,2,30,328,2.12012024,-1.324798161,91,740.525428,741.025888,740.525428,741.025888,95.91836735,1574366689,1574366694,4.516098976,1,94,-3,-3,1574366687,1574366689,,,CK,1,21,F,UnderGrad,2019_Nov_21_1153,AdjustExp1,3.1.5,59.95431864,Experiment
120,Stimuli/Morph120.JPG,Stimuli/Morph120.png,Stimuli/BlurLevel5/BlurEditedMorph120,Stimuli/BlurLevel5/BlurEditedMorph120.png,Stimuli/BlurLevel5/NumberedMorphs/BlurEditedMorph120.png,Stimuli/BlurLevel5/OriginalBlur/BlurEditedMorph120.png,Stimuli/BlurMorphTrio/EditedMorph120.png,None,None,1,0,1,0,0,30,30,119,,,71,2,31,283,0.562377636,-2.435925162,120,747.575807,748.0759673,747.575807,748.0759673,93.19727891,1574366696,1574366702,5.95005703,4,125,-5,-5,1574366694,1574366696,,,CK,1,21,F,UnderGrad,2019_Nov_21_1153,AdjustExp1,3.1.5,59.95431864,Experiment
15,Stimuli/Morph15.JPG,Stimuli/Morph15.png,Stimuli/BlurLevel5/BlurEditedMorph15,Stimuli/BlurLevel5/BlurEditedMorph15.png,Stimuli/BlurLevel5/NumberedMorphs/BlurEditedMorph15.png,Stimuli/BlurLevel5/OriginalBlur/BlurEditedMorph15.png,Stimuli/BlurMorphTrio/EditedMorph15.png,010031right.gif,Stimuli/normal_thumbnails/15right.gif,1,0,1,0,0,31,31,14,,,76,2,32,20,2.349231552,0.855050358,15,755.6439625,756.142704,755.6439625,756.142704,100,1574366704,1574366705,1.099923849,9,15,0,0,1574366702,1574366704,,,CK,1,21,F,UnderGrad,2019_Nov_21_1153,AdjustExp1,3.1.5,59.95431864,Experiment
129,Stimuli/Morph129.JPG,Stimuli/Morph129.png,Stimuli/BlurLevel5/BlurEditedMorph129,Stimuli/BlurLevel5/BlurEditedMorph129.png,Stimuli/BlurLevel5/NumberedMorphs/BlurEditedMorph129.png,Stimuli/BlurLevel5/OriginalBlur/BlurEditedMorph129.png,Stimuli/BlurMorphTrio/EditedMorph129.png,None,None,1,0,1,0,0,32,32,128,,,27,2,33,330,2.165063509,-1.25,129,759.4930685,760.2255348,759.4930685,760.2255348,98.63945578,1574366708,1574366713,4.266412973,47,130,-1,-1,1574366706,1574366708,,,CK,1,21,F,UnderGrad,2019_Nov_21_1153,AdjustExp1,3.1.5,59.95431864,Experiment
9,Stimuli/Morph9.JPG,Stimuli/Morph9.png,Stimuli/BlurLevel5/BlurEditedMorph9,Stimuli/BlurLevel5/BlurEditedMorph9.png,Stimuli/BlurLevel5/NumberedMorphs/BlurEditedMorph9.png,Stimuli/BlurLevel5/OriginalBlur/BlurEditedMorph9.png,Stimuli/BlurMorphTrio/EditedMorph9.png,010015right.gif,Stimuli/normal_thumbnails/9right.gif,1,0,1,0,0,33,33,8,,,10,2,34,235,-1.433941091,-2.047880111,9,766.2756407,766.7759425,766.2756407,766.7759425,68.70748299,1574366715,1574366718,2.698221922,96,133,-124,23,1574366713,1574366715,,,CK,1,21,F,UnderGrad,2019_Nov_21_1153,AdjustExp1,3.1.5,59.95431864,Experiment
108,Stimuli/Morph108.JPG,Stimuli/Morph108.png,Stimuli/BlurLevel5/BlurEditedMorph108,Stimuli/BlurLevel5/BlurEditedMorph108.png,Stimuli/BlurLevel5/NumberedMorphs/BlurEditedMorph108.png,Stimuli/BlurLevel5/OriginalBlur/BlurEditedMorph108.png,Stimuli/BlurMorphTrio/EditedMorph108.png,None,None,1,0,1,0,0,34,34,107,,,76,2,35,224,-1.798349501,-1.736645926,108,771.0427569,771.5420463,771.0427569,771.5420463,94.55782313,1574366720,1574366720,0.799846888,112,112,-4,-4,1574366718,1574366720,,,CK,1,21,F,UnderGrad,2019_Nov_21_1153,AdjustExp1,3.1.5,59.95431864,Experiment
20,Stimuli/Morph20.JPG,Stimuli/Morph20.png,Stimuli/BlurLevel5/BlurEditedMorph20,Stimuli/BlurLevel5/BlurEditedMorph20.png,Stimuli/BlurLevel5/NumberedMorphs/BlurEditedMorph20.png,Stimuli/BlurLevel5/OriginalBlur/BlurEditedMorph20.png,Stimuli/BlurMorphTrio/EditedMorph20.png,010046right.gif,Stimuli/normal_thumbnails/20right.gif,1,0,1,0,0,35,35,19,,,60,2,36,238,-1.324798161,-2.12012024,20,774.2922488,774.7925105,774.2922488,774.7925105,95.91836735,1574366723,1574366726,2.71696496,101,23,-3,-3,1574366721,1574366723,,,CK,1,21,F,UnderGrad,2019_Nov_21_1153,AdjustExp1,3.1.5,59.95431864,Experiment
103,Stimuli/Morph103.JPG,Stimuli/Morph103.png,Stimuli/BlurLevel5/BlurEditedMorph103,Stimuli/BlurLevel5/BlurEditedMorph103.png,Stimuli/BlurLevel5/NumberedMorphs/BlurEditedMorph103.png,Stimuli/BlurLevel5/OriginalBlur/BlurEditedMorph103.png,Stimuli/BlurMorphTrio/EditedMorph103.png,None,None,1,0,1,0,0,36,36,102,,,74,2,37,55,1.433941091,2.047880111,103,779.6251319,780.1258192,779.6251319,780.1258192,11.56462585,1574366728,1574366730,1.666543245,3,21,82,-65,1574366726,1574366728,,,CK,1,21,F,UnderGrad,2019_Nov_21_1153,AdjustExp1,3.1.5,59.95431864,Experiment
128,Stimuli/Morph128.JPG,Stimuli/Morph128.png,Stimuli/BlurLevel5/BlurEditedMorph128,Stimuli/BlurLevel5/BlurEditedMorph128.png,Stimuli/BlurLevel5/NumberedMorphs/BlurEditedMorph128.png,Stimuli/BlurLevel5/OriginalBlur/BlurEditedMorph128.png,Stimuli/BlurMorphTrio/EditedMorph128.png,None,None,1,0,1,0,0,37,37,127,,,74,2,38,170,-2.462019383,0.434120444,128,783.5423328,784.0419948,783.5423328,784.0419948,83.67346939,1574366732,1574366733,1.049946308,132,140,-12,-12,1574366730,1574366732,,,CK,1,21,F,UnderGrad,2019_Nov_21_1153,AdjustExp1,3.1.5,59.95431864,Experiment
42,Stimuli/Morph42.JPG,Stimuli/Morph42.png,Stimuli/BlurLevel5/BlurEditedMorph42,Stimuli/BlurLevel5/BlurEditedMorph42.png,Stimuli/BlurLevel5/NumberedMorphs/BlurEditedMorph42.png,Stimuli/BlurLevel5/OriginalBlur/BlurEditedMorph42.png,Stimuli/BlurMorphTrio/EditedMorph42.png,010121right.gif,Stimuli/normal_thumbnails/42right.gif,1,0,1,0,0,38,38,41,,,62,2,39,354,2.486304738,-0.261321158,42,787.3255323,787.8255244,787.3255323,787.8255244,93.19727891,1574366736,1574366738,2.483874083,111,37,5,5,1574366733,1574366736,,,CK,1,21,F,UnderGrad,2019_Nov_21_1153,AdjustExp1,3.1.5,59.95431864,Experiment
29,Stimuli/Morph29.JPG,Stimuli/Morph29.png,Stimuli/BlurLevel5/BlurEditedMorph29,Stimuli/BlurLevel5/BlurEditedMorph29.png,Stimuli/BlurLevel5/NumberedMorphs/BlurEditedMorph29.png,Stimuli/BlurLevel5/OriginalBlur/BlurEditedMorph29.png,Stimuli/BlurMorphTrio/EditedMorph29.png,010074right.gif,Stimuli/normal_thumbnails/29right.gif,1,0,1,0,0,39,39,28,,,10,2,40,139,-1.886773951,1.640147572,29,792.045301,792.5423671,792.045301,792.5423671,95.91836735,1574366741,1574366742,1.800869942,59,32,-3,-3,1574366739,1574366741,,,CK,1,21,F,UnderGrad,2019_Nov_21_1153,AdjustExp1,3.1.5,59.95431864,Experiment
110,Stimuli/Morph110.JPG,Stimuli/Morph110.png,Stimuli/BlurLevel5/BlurEditedMorph110,Stimuli/BlurLevel5/BlurEditedMorph110.png,Stimuli/BlurLevel5/NumberedMorphs/BlurEditedMorph110.png,Stimuli/BlurLevel5/OriginalBlur/BlurEditedMorph110.png,Stimuli/BlurMorphTrio/EditedMorph110.png,None,None,1,0,1,0,0,40,40,109,,,5,2,41,56,1.397982259,2.072593931,110,796.393215,796.891853,796.393215,796.891853,75.51020408,1574366745,1574366748,2.600058794,128,92,18,18,1574366743,1574366745,,,CK,1,21,F,UnderGrad,2019_Nov_21_1153,AdjustExp1,3.1.5,59.95431864,Experiment
78,Stimuli/Morph78.JPG,Stimuli/Morph78.png,Stimuli/BlurLevel5/BlurEditedMorph78,Stimuli/BlurLevel5/BlurEditedMorph78.png,Stimuli/BlurLevel5/NumberedMorphs/BlurEditedMorph78.png,Stimuli/BlurLevel5/OriginalBlur/BlurEditedMorph78.png,Stimuli/BlurMorphTrio/EditedMorph78.png,020238right.gif,Stimuli/normal_thumbnails/78right.gif,1,0,1,0,0,41,41,77,,,28,2,42,296,1.095927867,-2.246985116,78,801.7584341,802.2586965,801.7584341,802.2586965,71.42857143,1574366750,1574366756,5.933614254,132,99,-21,-21,1574366748,1574366750,,,CK,1,21,F,UnderGrad,2019_Nov_21_1153,AdjustExp1,3.1.5,59.95431864,Experiment
49,Stimuli/Morph49.JPG,Stimuli/Morph49.png,Stimuli/BlurLevel5/BlurEditedMorph49,Stimuli/BlurLevel5/BlurEditedMorph49.png,Stimuli/BlurLevel5/NumberedMorphs/BlurEditedMorph49.png,Stimuli/BlurLevel5/OriginalBlur/BlurEditedMorph49.png,Stimuli/BlurMorphTrio/EditedMorph49.png,010135right.gif,Stimuli/normal_thumbnails/49right.gif,1,0,1,0,0,42,42,48,,,75,2,43,115,-1.056545654,2.265769468,49,810.1314065,810.625422,810.1314065,810.625422,90.47619048,1574366759,1574366761,2.016693115,141,56,-7,-7,1574366756,1574366759,,,CK,1,21,F,UnderGrad,2019_Nov_21_1153,AdjustExp1,3.1.5,59.95431864,Experiment
43,Stimuli/Morph43.JPG,Stimuli/Morph43.png,Stimuli/BlurLevel5/BlurEditedMorph43,Stimuli/BlurLevel5/BlurEditedMorph43.png,Stimuli/BlurLevel5/NumberedMorphs/BlurEditedMorph43.png,Stimuli/BlurLevel5/OriginalBlur/BlurEditedMorph43.png,Stimuli/BlurMorphTrio/EditedMorph43.png,010124right.gif,Stimuli/normal_thumbnails/43right.gif,1,0,1,0,0,43,43,42,,,46,2,44,89,0.043631016,2.499619238,43,814.6110114,815.1080647,814.6110114,815.1080647,68.70748299,1574366763,1574366766,2.448365688,22,66,-23,-23,1574366761,1574366763,,,CK,1,21,F,UnderGrad,2019_Nov_21_1153,AdjustExp1,3.1.5,59.95431864,Experiment
102,Stimuli/Morph102.JPG,Stimuli/Morph102.png,Stimuli/BlurLevel5/BlurEditedMorph102,Stimuli/BlurLevel5/BlurEditedMorph102.png,Stimuli/BlurLevel5/NumberedMorphs/BlurEditedMorph102.png,Stimuli/BlurLevel5/OriginalBlur/BlurEditedMorph102.png,Stimuli/BlurMorphTrio/EditedMorph102.png,None,None,1,0,1,0,0,44,44,101,,,82,2,45,77,0.562377636,2.435925162,102,819.4122265,820.0583798,819.4122265,820.0583798,97.27891156,1574366768,1574366770,1.566579103,131,100,2,2,1574366766,1574366768,,,CK,1,21,F,UnderGrad,2019_Nov_21_1153,AdjustExp1,3.1.5,59.95431864,Experiment
51,Stimuli/Morph51.JPG,Stimuli/Morph51.png,Stimuli/BlurLevel5/BlurEditedMorph51,Stimuli/BlurLevel5/BlurEditedMorph51.png,Stimuli/BlurLevel5/NumberedMorphs/BlurEditedMorph51.png,Stimuli/BlurLevel5/OriginalBlur/BlurEditedMorph51.png,Stimuli/BlurMorphTrio/EditedMorph51.png,010146right.gif,Stimuli/normal_thumbnails/51right.gif,1,0,1,0,0,45,45,50,,,10,2,46,293,0.976827821,-2.301262134,51,823.408548,823.9082317,823.408548,823.9082317,90.47619048,1574366772,1574366774,2.233436823,65,44,7,7,1574366770,1574366772,,,CK,1,21,F,UnderGrad,2019_Nov_21_1153,AdjustExp1,3.1.5,59.95431864,Experiment
141,Stimuli/Morph141.JPG,Stimuli/Morph141.png,Stimuli/BlurLevel5/BlurEditedMorph141,Stimuli/BlurLevel5/BlurEditedMorph141.png,Stimuli/BlurLevel5/NumberedMorphs/BlurEditedMorph141.png,Stimuli/BlurLevel5/OriginalBlur/BlurEditedMorph141.png,Stimuli/BlurMorphTrio/EditedMorph141.png,None,None,1,0,1,0,0,46,46,140,,,17,2,47,205,-2.265769468,-1.056545654,141,828.1284615,828.6251239,828.1284615,828.6251239,67.34693878,1574366777,1574366780,3.150319099,26,117,24,24,1574366774,1574366777,,,CK,1,21,F,UnderGrad,2019_Nov_21_1153,AdjustExp1,3.1.5,59.95431864,Experiment
81,Stimuli/Morph81.JPG,Stimuli/Morph81.png,Stimuli/BlurLevel5/BlurEditedMorph81,Stimuli/BlurLevel5/BlurEditedMorph81.png,Stimuli/BlurLevel5/NumberedMorphs/BlurEditedMorph81.png,Stimuli/BlurLevel5/OriginalBlur/BlurEditedMorph81.png,Stimuli/BlurMorphTrio/EditedMorph81.png,020245right.gif,Stimuli/normal_thumbnails/81right.gif,1,0,1,0,0,47,47,80,,,48,2,48,110,-0.855050358,2.349231552,81,833.8265052,834.3250304,833.8265052,834.3250304,91.83673469,1574366782,1574366786,3.334932804,57,87,-6,-6,1574366780,1574366782,,,CK,1,21,F,UnderGrad,2019_Nov_21_1153,AdjustExp1,3.1.5,59.95431864,Experiment
89,Stimuli/Morph89.JPG,Stimuli/Morph89.png,Stimuli/BlurLevel5/BlurEditedMorph89,Stimuli/BlurLevel5/BlurEditedMorph89.png,Stimuli/BlurLevel5/NumberedMorphs/BlurEditedMorph89.png,Stimuli/BlurLevel5/OriginalBlur/BlurEditedMorph89.png,Stimuli/BlurMorphTrio/EditedMorph89.png,020273right.gif,Stimuli/normal_thumbnails/89right.gif,1,0,1,0,0,48,48,88,,,91,2,49,52,1.539153688,1.970026884,89,839.9093276,840.4083127,839.9093276,840.4083127,93.19727891,1574366788,1574366791,2.217837095,23,84,5,5,1574366786,1574366788,,,CK,1,21,F,UnderGrad,2019_Nov_21_1153,AdjustExp1,3.1.5,59.95431864,Experiment
34,Stimuli/Morph34.JPG,Stimuli/Morph34.png,Stimuli/BlurLevel5/BlurEditedMorph34,Stimuli/BlurLevel5/BlurEditedMorph34.png,Stimuli/BlurLevel5/NumberedMorphs/BlurEditedMorph34.png,Stimuli/BlurLevel5/OriginalBlur/BlurEditedMorph34.png,Stimuli/BlurMorphTrio/EditedMorph34.png,010090right.gif,Stimuli/normal_thumbnails/34right.gif,1,0,1,0,0,49,49,33,,,88,2,50,258,-0.519779227,-2.445369002,34,844.7587893,845.2581332,844.7587893,845.2581332,95.91836735,1574366793,1574366795,1.784121037,121,37,-3,-3,1574366791,1574366793,,,CK,1,21,F,UnderGrad,2019_Nov_21_1153,AdjustExp1,3.1.5,59.95431864,Experiment
66,Stimuli/Morph66.JPG,Stimuli/Morph66.png,Stimuli/BlurLevel5/BlurEditedMorph66,Stimuli/BlurLevel5/BlurEditedMorph66.png,Stimuli/BlurLevel5/NumberedMorphs/BlurEditedMorph66.png,Stimuli/BlurLevel5/OriginalBlur/BlurEditedMorph66.png,Stimuli/BlurMorphTrio/EditedMorph66.png,020212right.gif,Stimuli/normal_thumbnails/66right.gif,1,0,1,0,0,50,50,65,,,11,2,51,170,-2.462019383,0.434120444,66,849.7685361,850.2579398,849.7685361,850.2579398,89.11564626,1574366798,1574366802,3.482983112,86,74,-8,-8,1574366795,1574366798,,,CK,1,21,F,UnderGrad,2019_Nov_21_1153,AdjustExp1,3.1.5,59.95431864,Experiment
21,Stimuli/Morph21.JPG,Stimuli/Morph21.png,Stimuli/BlurLevel5/BlurEditedMorph21,Stimuli/BlurLevel5/BlurEditedMorph21.png,Stimuli/BlurLevel5/NumberedMorphs/BlurEditedMorph21.png,Stimuli/BlurLevel5/OriginalBlur/BlurEditedMorph21.png,Stimuli/BlurMorphTrio/EditedMorph21.png,010049right.gif,Stimuli/normal_thumbnails/21right.gif,1,0,1,0,0,51,51,20,,,28,2,52,256,-0.604804739,-2.425739316,21,856.1077821,856.6079931,856.1077821,856.6079931,98.63945578,1574366805,1574366808,2.866640091,104,22,-1,-1,1574366802,1574366805,,,CK,1,21,F,UnderGrad,2019_Nov_21_1153,AdjustExp1,3.1.5,59.95431864,Experiment
52,Stimuli/Morph52.JPG,Stimuli/Morph52.png,Stimuli/BlurLevel5/BlurEditedMorph52,Stimuli/BlurLevel5/BlurEditedMorph52.png,Stimuli/BlurLevel5/NumberedMorphs/BlurEditedMorph52.png,Stimuli/BlurLevel5/OriginalBlur/BlurEditedMorph52.png,Stimuli/BlurMorphTrio/EditedMorph52.png,010148right.gif,Stimuli/normal_thumbnails/52right.gif,1,0,1,0,0,52,52,51,,,3,2,53,179,-2.499619238,0.043631016,52,861.6580659,862.1579289,861.6580659,862.1579289,83.67346939,1574366810,1574366812,1.700052977,129,40,12,12,1574366808,1574366810,,,CK,1,21,F,UnderGrad,2019_Nov_21_1153,AdjustExp1,3.1.5,59.95431864,Experiment
100,Stimuli/Morph100.JPG,Stimuli/Morph100.png,Stimuli/BlurLevel5/BlurEditedMorph100,Stimuli/BlurLevel5/BlurEditedMorph100.png,Stimuli/BlurLevel5/NumberedMorphs/BlurEditedMorph100.png,Stimuli/BlurLevel5/OriginalBlur/BlurEditedMorph100.png,Stimuli/BlurMorphTrio/EditedMorph100.png,020297right.gif,Stimuli/normal_thumbnails/100right.gif,1,0,1,0,0,53,53,99,,,2,2,54,193,-2.435925162,-0.562377636,100,865.8908538,866.3909874,865.8908538,866.3909874,97.27891156,1574366814,1574366816,1.983549833,70,102,-2,-2,1574366812,1574366814,,,CK,1,21,F,UnderGrad,2019_Nov_21_1153,AdjustExp1,3.1.5,59.95431864,Experiment
48,Stimuli/Morph48.JPG,Stimuli/Morph48.png,Stimuli/BlurLevel5/BlurEditedMorph48,Stimuli/BlurLevel5/BlurEditedMorph48.png,Stimuli/BlurLevel5/NumberedMorphs/BlurEditedMorph48.png,Stimuli/BlurLevel5/OriginalBlur/BlurEditedMorph48.png,Stimuli/BlurMorphTrio/EditedMorph48.png,010131right.gif,Stimuli/normal_thumbnails/48right.gif,1,0,1,0,0,54,54,47,,,54,2,55,190,-2.462019383,-0.434120444,48,870.4583627,870.9577151,870.4583627,870.9577151,90.47619048,1574366819,1574366821,2.282720089,96,41,7,7,1574366817,1574366819,,,CK,1,21,F,UnderGrad,2019_Nov_21_1153,AdjustExp1,3.1.5,59.95431864,Experiment
32,Stimuli/Morph32.JPG,Stimuli/Morph32.png,Stimuli/BlurLevel5/BlurEditedMorph32,Stimuli/BlurLevel5/BlurEditedMorph32.png,Stimuli/BlurLevel5/NumberedMorphs/BlurEditedMorph32.png,Stimuli/BlurLevel5/OriginalBlur/BlurEditedMorph32.png,Stimuli/BlurMorphTrio/EditedMorph32.png,010080right.gif,Stimuli/normal_thumbnails/32right.gif,1,0,1,0,0,55,55,31,,,59,2,56,150,-2.165063509,1.25,32,874.9744359,875.4740552,874.9744359,875.4740552,91.83673469,1574366824,1574366826,2.333471298,87,38,-6,-6,1574366822,1574366823,,,CK,1,21,F,UnderGrad,2019_Nov_21_1153,AdjustExp1,3.1.5,59.95431864,Experiment
23,Stimuli/Morph23.JPG,Stimuli/Morph23.png,Stimuli/BlurLevel5/BlurEditedMorph23,Stimuli/BlurLevel5/BlurEditedMorph23.png,Stimuli/BlurLevel5/NumberedMorphs/BlurEditedMorph23.png,Stimuli/BlurLevel5/OriginalBlur/BlurEditedMorph23.png,Stimuli/BlurMorphTrio/EditedMorph23.png,010063right.gif,Stimuli/normal_thumbnails/23right.gif,1,0,1,0,0,56,56,22,,,6,2,57,37,1.996588775,1.504537558,23,880.375396,880.8734687,880.375396,880.8734687,51.02040816,1574366829,1574366832,2.933199883,51,134,-111,36,1574366826,1574366829,,,CK,1,21,F,UnderGrad,2019_Nov_21_1153,AdjustExp1,3.1.5,59.95431864,Experiment
65,Stimuli/Morph65.JPG,Stimuli/Morph65.png,Stimuli/BlurLevel5/BlurEditedMorph65,Stimuli/BlurLevel5/BlurEditedMorph65.png,Stimuli/BlurLevel5/NumberedMorphs/BlurEditedMorph65.png,Stimuli/BlurLevel5/OriginalBlur/BlurEditedMorph65.png,Stimuli/BlurMorphTrio/EditedMorph65.png,020209right.gif,Stimuli/normal_thumbnails/65right.gif,1,0,1,0,0,57,57,64,,,55,2,58,100,-0.434120444,2.462019383,65,885.591506,886.0907151,885.591506,886.0907151,61.9047619,1574366834,1574366837,2.78297925,100,37,28,28,1574366832,1574366834,,,CK,1,21,F,UnderGrad,2019_Nov_21_1153,AdjustExp1,3.1.5,59.95431864,Experiment
105,Stimuli/Morph105.JPG,Stimuli/Morph105.png,Stimuli/BlurLevel5/BlurEditedMorph105,Stimuli/BlurLevel5/BlurEditedMorph105.png,Stimuli/BlurLevel5/NumberedMorphs/BlurEditedMorph105.png,Stimuli/BlurLevel5/OriginalBlur/BlurEditedMorph105.png,Stimuli/BlurMorphTrio/EditedMorph105.png,None,None,1,0,1,0,0,58,58,104,,,48,2,59,203,-2.301262134,-0.976827821,105,890.7139241,891.2074535,890.7139241,891.2074535,87.75510204,1574366839,1574366840,1.101144075,114,114,-9,-9,1574366837,1574366839,,,CK,1,21,F,UnderGrad,2019_Nov_21_1153,AdjustExp1,3.1.5,59.95431864,Experiment
84,Stimuli/Morph84.JPG,Stimuli/Morph84.png,Stimuli/BlurLevel5/BlurEditedMorph84,Stimuli/BlurLevel5/BlurEditedMorph84.png,Stimuli/BlurLevel5/NumberedMorphs/BlurEditedMorph84.png,Stimuli/BlurLevel5/OriginalBlur/BlurEditedMorph84.png,Stimuli/BlurMorphTrio/EditedMorph84.png,020261right.gif,Stimuli/normal_thumbnails/84right.gif,1,0,1,0,0,59,59,83,,,1,2,60,171,-2.469220851,0.391086163,84,893.7077084,894.2072226,893.7077084,894.2072226,56.46258503,1574366842,1574366845,2.550876856,5,116,-32,-32,1574366841,1574366842,,,CK,1,21,F,UnderGrad,2019_Nov_21_1153,AdjustExp1,3.1.5,59.95431864,Experiment
10,Stimuli/Morph10.JPG,Stimuli/Morph10.png,Stimuli/BlurLevel5/BlurEditedMorph10,Stimuli/BlurLevel5/BlurEditedMorph10.png,Stimuli/BlurLevel5/NumberedMorphs/BlurEditedMorph10.png,Stimuli/BlurLevel5/OriginalBlur/BlurEditedMorph10.png,Stimuli/BlurMorphTrio/EditedMorph10.png,010016right.gif,Stimuli/normal_thumbnails/10right.gif,1,0,1,0,0,60,60,9,,,100,2,61,197,-2.39076189,-0.730929262,10,898.5406241,899.0405256,898.5406241,899.0405256,53.7414966,1574366847,1574366849,1.466155052,114,123,-113,34,1574366845,1574366847,,,CK,1,21,F,UnderGrad,2019_Nov_21_1153,AdjustExp1,3.1.5,59.95431864,Experiment
85,Stimuli/Morph85.JPG,Stimuli/Morph85.png,Stimuli/BlurLevel5/BlurEditedMorph85,Stimuli/BlurLevel5/BlurEditedMorph85.png,Stimuli/BlurLevel5/NumberedMorphs/BlurEditedMorph85.png,Stimuli/BlurLevel5/OriginalBlur/BlurEditedMorph85.png,Stimuli/BlurMorphTrio/EditedMorph85.png,020264right.gif,Stimuli/normal_thumbnails/85right.gif,1,0,1,0,0,61,61,84,,,96,2,62,146,-2.072593931,1.397982259,85,903.3973749,903.8899969,903.3973749,903.8899969,74.14965986,1574366852,1574366855,2.683878899,51,104,-19,-19,1574366849,1574366852,,,CK,1,21,F,UnderGrad,2019_Nov_21_1153,AdjustExp1,3.1.5,59.95431864,Experiment
70,Stimuli/Morph70.JPG,Stimuli/Morph70.png,Stimuli/BlurLevel5/BlurEditedMorph70,Stimuli/BlurLevel5/BlurEditedMorph70.png,Stimuli/BlurLevel5/NumberedMorphs/BlurEditedMorph70.png,Stimuli/BlurLevel5/OriginalBlur/BlurEditedMorph70.png,Stimuli/BlurMorphTrio/EditedMorph70.png,020221right.gif,Stimuli/normal_thumbnails/70right.gif,1,0,1,0,0,62,62,69,,,77,2,63,84,0.261321158,2.486304738,70,908.6587797,909.1570149,908.6587797,909.1570149,94.55782313,1574366857,1574366860,2.284375191,28,74,-4,-4,1574366855,1574366857,,,CK,1,21,F,UnderGrad,2019_Nov_21_1153,AdjustExp1,3.1.5,59.95431864,Experiment
45,Stimuli/Morph45.JPG,Stimuli/Morph45.png,Stimuli/BlurLevel5/BlurEditedMorph45,Stimuli/BlurLevel5/BlurEditedMorph45.png,Stimuli/BlurLevel5/NumberedMorphs/BlurEditedMorph45.png,Stimuli/BlurLevel5/OriginalBlur/BlurEditedMorph45.png,Stimuli/BlurMorphTrio/EditedMorph45.png,010127right.gif,Stimuli/normal_thumbnails/45right.gif,1,0,1,0,0,63,63,44,,,31,2,64,251,-0.813920386,-2.363796439,45,913.7756644,914.2741008,913.7756644,914.2741008,86.39455782,1574366862,1574366866,3.332713127,74,35,10,10,1574366860,1574366862,,,CK,1,21,F,UnderGrad,2019_Nov_21_1153,AdjustExp1,3.1.5,59.95431864,Experiment
39,Stimuli/Morph39.JPG,Stimuli/Morph39.png,Stimuli/BlurLevel5/BlurEditedMorph39,Stimuli/BlurLevel5/BlurEditedMorph39.png,Stimuli/BlurLevel5/NumberedMorphs/BlurEditedMorph39.png,Stimuli/BlurLevel5/OriginalBlur/BlurEditedMorph39.png,Stimuli/BlurMorphTrio/EditedMorph39.png,010109right.gif,Stimuli/normal_thumbnails/39right.gif,1,0,1,0,0,64,64,38,,,52,2,65,2,2.498477068,0.087248742,39,919.7962456,920.2898003,919.7962456,920.2898003,61.9047619,1574366868,1574366870,1.367143154,52,67,-28,-28,1574366866,1574366868,,,CK,1,21,F,UnderGrad,2019_Nov_21_1153,AdjustExp1,3.1.5,59.95431864,Experiment
124,Stimuli/Morph124.JPG,Stimuli/Morph124.png,Stimuli/BlurLevel5/BlurEditedMorph124,Stimuli/BlurLevel5/BlurEditedMorph124.png,Stimuli/BlurLevel5/NumberedMorphs/BlurEditedMorph124.png,Stimuli/BlurLevel5/OriginalBlur/BlurEditedMorph124.png,Stimuli/BlurMorphTrio/EditedMorph124.png,None,None,1,0,1,0,0,65,65,123,,,20,2,66,346,2.425739316,-0.604804739,124,923.7420553,924.2400417,923.7420553,924.2400417,53.7414966,1574366872,1574366874,1.283075809,74,90,34,34,1574366870,1574366872,,,CK,1,21,F,UnderGrad,2019_Nov_21_1153,AdjustExp1,3.1.5,59.95431864,Experiment
71,Stimuli/Morph71.JPG,Stimuli/Morph71.png,Stimuli/BlurLevel5/BlurEditedMorph71,Stimuli/BlurLevel5/BlurEditedMorph71.png,Stimuli/BlurLevel5/NumberedMorphs/BlurEditedMorph71.png,Stimuli/BlurLevel5/OriginalBlur/BlurEditedMorph71.png,Stimuli/BlurMorphTrio/EditedMorph71.png,020225right.gif,Stimuli/normal_thumbnails/71right.gif,1,0,1,0,0,66,66,70,,,80,2,67,131,-1.640147572,1.886773951,71,927.5897386,928.090442,927.5897386,928.090442,86.39455782,1574366876,1574366878,1.683699369,45,81,-10,-10,1574366874,1574366876,,,CK,1,21,F,UnderGrad,2019_Nov_21_1153,AdjustExp1,3.1.5,59.95431864,Experiment
62,Stimuli/Morph62.JPG,Stimuli/Morph62.png,Stimuli/BlurLevel5/BlurEditedMorph62,Stimuli/BlurLevel5/BlurEditedMorph62.png,Stimuli/BlurLevel5/NumberedMorphs/BlurEditedMorph62.png,Stimuli/BlurLevel5/OriginalBlur/BlurEditedMorph62.png,Stimuli/BlurMorphTrio/EditedMorph62.png,020205right.gif,Stimuli/normal_thumbnails/62right.gif,1,0,1,0,0,67,67,61,,,76,2,68,223,-1.828384254,-1.7049959,62,931.3732354,931.8734958,931.3732354,931.8734958,74.14965986,1574366880,1574366883,3.116647005,136,43,19,19,1574366878,1574366880,,,CK,1,21,F,UnderGrad,2019_Nov_21_1153,AdjustExp1,3.1.5,59.95431864,Experiment
126,Stimuli/Morph126.JPG,Stimuli/Morph126.png,Stimuli/BlurLevel5/BlurEditedMorph126,Stimuli/BlurLevel5/BlurEditedMorph126.png,Stimuli/BlurLevel5/NumberedMorphs/BlurEditedMorph126.png,Stimuli/BlurLevel5/OriginalBlur/BlurEditedMorph126.png,Stimuli/BlurMorphTrio/EditedMorph126.png,None,None,1,0,1,0,0,68,68,125,,,67,2,69,3,2.496573837,0.130839891,126,936.9559316,937.456085,936.9559316,937.456085,90.47619048,1574366885,1574366887,1.049468994,126,133,-7,-7,1574366883,1574366885,,,CK,1,21,F,UnderGrad,2019_Nov_21_1153,AdjustExp1,3.1.5,59.95431864,Experiment
60,Stimuli/Morph60.JPG,Stimuli/Morph60.png,Stimuli/BlurLevel5/BlurEditedMorph60,Stimuli/BlurLevel5/BlurEditedMorph60.png,Stimuli/BlurLevel5/NumberedMorphs/BlurEditedMorph60.png,Stimuli/BlurLevel5/OriginalBlur/BlurEditedMorph60.png,Stimuli/BlurMorphTrio/EditedMorph60.png,020200right.gif,Stimuli/normal_thumbnails/60right.gif,1,0,1,0,0,69,69,59,,,80,2,70,224,-1.798349501,-1.736645926,60,940.2234946,940.9733961,940.2234946,940.9733961,68.70748299,1574366889,1574366892,2.582904816,135,37,23,23,1574366887,1574366889,,,CK,1,21,F,UnderGrad,2019_Nov_21_1153,AdjustExp1,3.1.5,59.95431864,Experiment
80,Stimuli/Morph80.JPG,Stimuli/Morph80.png,Stimuli/BlurLevel5/BlurEditedMorph80,Stimuli/BlurLevel5/BlurEditedMorph80.png,Stimuli/BlurLevel5/NumberedMorphs/BlurEditedMorph80.png,Stimuli/BlurLevel5/OriginalBlur/BlurEditedMorph80.png,Stimuli/BlurMorphTrio/EditedMorph80.png,020240right.gif,Stimuli/normal_thumbnails/80right.gif,1,0,1,0,0,70,70,79,,,88,2,71,259,-0.477022488,-2.454067959,80,945.4119421,945.9068452,945.4119421,945.9068452,94.55782313,1574366894,1574366896,2.267152786,14,76,4,4,1574366892,1574366894,,,CK,1,21,F,UnderGrad,2019_Nov_21_1153,AdjustExp1,3.1.5,59.95431864,Experiment
38,Stimuli/Morph38.JPG,Stimuli/Morph38.png,Stimuli/BlurLevel5/BlurEditedMorph38,Stimuli/BlurLevel5/BlurEditedMorph38.png,Stimuli/BlurLevel5/NumberedMorphs/BlurEditedMorph38.png,Stimuli/BlurLevel5/OriginalBlur/BlurEditedMorph38.png,Stimuli/BlurMorphTrio/EditedMorph38.png,010108right.gif,Stimuli/normal_thumbnails/38right.gif,1,0,1,0,0,71,71,37,,,53,2,72,170,-2.462019383,0.434120444,38,950.1410227,950.6396981,950.1410227,950.6396981,87.75510204,1574366899,1574366901,1.933082104,124,29,9,9,1574366896,1574366899,,,CK,1,21,F,UnderGrad,2019_Nov_21_1153,AdjustExp1,3.1.5,59.95431864,Experiment
31,Stimuli/Morph31.JPG,Stimuli/Morph31.png,Stimuli/BlurLevel5/BlurEditedMorph31,Stimuli/BlurLevel5/BlurEditedMorph31.png,Stimuli/BlurLevel5/NumberedMorphs/BlurEditedMorph31.png,Stimuli/BlurLevel5/OriginalBlur/BlurEditedMorph31.png,Stimuli/BlurMorphTrio/EditedMorph31.png,010079right.gif,Stimuli/normal_thumbnails/31right.gif,1,0,1,0,0,72,72,30,,,28,2,73,255,-0.647047613,-2.414814566,31,954.8889431,955.3898873,954.8889431,955.3898873,80.95238095,1574366903,1574366908,5.065996647,12,17,14,14,1574366901,1574366903,,,CK,1,21,F,UnderGrad,2019_Nov_21_1153,AdjustExp1,3.1.5,59.95431864,Experiment
94,Stimuli/Morph94.JPG,Stimuli/Morph94.png,Stimuli/BlurLevel5/BlurEditedMorph94,Stimuli/BlurLevel5/BlurEditedMorph94.png,Stimuli/BlurLevel5/NumberedMorphs/BlurEditedMorph94.png,Stimuli/BlurLevel5/OriginalBlur/BlurEditedMorph94.png,Stimuli/BlurMorphTrio/EditedMorph94.png,020286right.gif,Stimuli/normal_thumbnails/94right.gif,1,0,1,0,0,73,73,93,,,23,2,74,316,1.798349501,-1.736645926,94,962.6237826,963.1232457,962.6237826,963.1232457,71.42857143,1574366911,1574366913,1.750555038,70,115,-21,-21,1574366909,1574366911,,,CK,1,21,F,UnderGrad,2019_Nov_21_1153,AdjustExp1,3.1.5,59.95431864,Experiment
106,Stimuli/Morph106.JPG,Stimuli/Morph106.png,Stimuli/BlurLevel5/BlurEditedMorph106,Stimuli/BlurLevel5/BlurEditedMorph106.png,Stimuli/BlurLevel5/NumberedMorphs/BlurEditedMorph106.png,Stimuli/BlurLevel5/OriginalBlur/BlurEditedMorph106.png,Stimuli/BlurMorphTrio/EditedMorph106.png,None,None,1,0,1,0,0,74,74,105,,,78,2,75,284,0.604804739,-2.425739316,106,966.855508,967.3563259,966.855508,967.3563259,98.63945578,1574366915,1574366918,2.199320793,129,105,1,1,1574366913,1574366915,,,CK,1,21,F,UnderGrad,2019_Nov_21_1153,AdjustExp1,3.1.5,59.95431864,Experiment
1,Stimuli/Morph1.JPG,Stimuli/Morph1.png,Stimuli/BlurLevel5/BlurEditedMorph1,Stimuli/BlurLevel5/BlurEditedMorph1.png,Stimuli/BlurLevel5/NumberedMorphs/BlurEditedMorph1.png,Stimuli/BlurLevel5/OriginalBlur/BlurEditedMorph1.png,Stimuli/BlurMorphTrio/EditedMorph1.png,010003right.gif,Stimuli/normal_thumbnails/1right.gif,1,0,1,0,0,75,75,0,,,42,2,76,291,0.895919874,-2.333951066,1,972.0563568,972.5561069,972.0563568,972.5561069,75.51020408,1574366921,1574366922,1.650011778,135,130,-129,18,1574366918,1574366921,,,CK,1,21,F,UnderGrad,2019_Nov_21_1153,AdjustExp1,3.1.5,59.95431864,Experiment
98,Stimuli/Morph98.JPG,Stimuli/Morph98.png,Stimuli/BlurLevel5/BlurEditedMorph98,Stimuli/BlurLevel5/BlurEditedMorph98.png,Stimuli/BlurLevel5/NumberedMorphs/BlurEditedMorph98.png,Stimuli/BlurLevel5/OriginalBlur/BlurEditedMorph98.png,Stimuli/BlurMorphTrio/EditedMorph98.png,020298right.gif,Stimuli/normal_thumbnails/98right.gif,1,0,1,0,0,76,76,97,,,11,2,77,183,-2.496573837,-0.130839891,98,976.8260998,977.3224543,976.8260998,977.3224543,86.39455782,1574366925,1574366927,2.033624172,30,108,-10,-10,1574366923,1574366925,,,CK,1,21,F,UnderGrad,2019_Nov_21_1153,AdjustExp1,3.1.5,59.95431864,Experiment
88,Stimuli/Morph88.JPG,Stimuli/Morph88.png,Stimuli/BlurLevel5/BlurEditedMorph88,Stimuli/BlurLevel5/BlurEditedMorph88.png,Stimuli/BlurLevel5/NumberedMorphs/BlurEditedMorph88.png,Stimuli/BlurLevel5/OriginalBlur/BlurEditedMorph88.png,Stimuli/BlurMorphTrio/EditedMorph88.png,020271right.gif,Stimuli/normal_thumbnails/88right.gif,1,0,1,0,0,77,77,87,,,45,2,78,172,-2.475670172,0.347932752,88,981.1058406,981.606082,981.1058406,981.606082,75.51020408,1574366930,1574366932,2.299783945,47,106,-18,-18,1574366928,1574366930,,,CK,1,21,F,UnderGrad,2019_Nov_21_1153,AdjustExp1,3.1.5,59.95431864,Experiment
123,Stimuli/Morph123.JPG,Stimuli/Morph123.png,Stimuli/BlurLevel5/BlurEditedMorph123,Stimuli/BlurLevel5/BlurEditedMorph123.png,Stimuli/BlurLevel5/NumberedMorphs/BlurEditedMorph123.png,Stimuli/BlurLevel5/OriginalBlur/BlurEditedMorph123.png,Stimuli/BlurMorphTrio/EditedMorph123.png,None,None,1,0,1,0,0,78,78,122,,,18,2,79,319,1.886773951,-1.640147572,123,985.5944385,986.089399,985.5944385,986.089399,70.06802721,1574366934,1574366936,1.784060001,22,101,22,22,1574366932,1574366934,,,CK,1,21,F,UnderGrad,2019_Nov_21_1153,AdjustExp1,3.1.5,59.95431864,Experiment
11,Stimuli/Morph11.JPG,Stimuli/Morph11.png,Stimuli/BlurLevel5/BlurEditedMorph11,Stimuli/BlurLevel5/BlurEditedMorph11.png,Stimuli/BlurLevel5/NumberedMorphs/BlurEditedMorph11.png,Stimuli/BlurLevel5/OriginalBlur/BlurEditedMorph11.png,Stimuli/BlurMorphTrio/EditedMorph11.png,010024right.gif,Stimuli/normal_thumbnails/11right.gif,1,0,1,0,0,79,79,10,,,18,2,80,218,-1.970026884,-1.539153688,11,989.422359,989.9226401,989.422359,989.9226401,94.55782313,1574366938,1574366940,2.45014286,2,15,-4,-4,1574366936,1574366938,,,CK,1,21,F,UnderGrad,2019_Nov_21_1153,AdjustExp1,3.1.5,59.95431864,Experiment
47,Stimuli/Morph47.JPG,Stimuli/Morph47.png,Stimuli/BlurLevel5/BlurEditedMorph47,Stimuli/BlurLevel5/BlurEditedMorph47.png,Stimuli/BlurLevel5/NumberedMorphs/BlurEditedMorph47.png,Stimuli/BlurLevel5/OriginalBlur/BlurEditedMorph47.png,Stimuli/BlurMorphTrio/EditedMorph47.png,010130right.gif,Stimuli/normal_thumbnails/47right.gif,1,0,1,0,0,80,80,46,,,23,2,81,197,-2.39076189,-0.730929262,47,994.272827,994.7727335,994.272827,994.7727335,94.55782313,1574366943,1574366944,1.532951832,75,43,4,4,1574366941,1574366943,,,CK,1,21,F,UnderGrad,2019_Nov_21_1153,AdjustExp1,3.1.5,59.95431864,Experiment
2,Stimuli/Morph2.JPG,Stimuli/Morph2.png,Stimuli/BlurLevel5/BlurEditedMorph2,Stimuli/BlurLevel5/BlurEditedMorph2.png,Stimuli/BlurLevel5/NumberedMorphs/BlurEditedMorph2.png,Stimuli/BlurLevel5/OriginalBlur/BlurEditedMorph2.png,Stimuli/BlurMorphTrio/EditedMorph2.png,010006right.gif,Stimuli/normal_thumbnails/2right.gif,1,0,1,0,0,81,81,1,,,90,2,82,287,0.730929262,-2.39076189,2,998.3219992,998.8225563,998.3219992,998.8225563,89.11564626,1574366947,1574366951,4.083645821,97,141,-139,8,1574366945,1574366947,,,CK,1,21,F,UnderGrad,2019_Nov_21_1153,AdjustExp1,3.1.5,59.95431864,Experiment
96,Stimuli/Morph96.JPG,Stimuli/Morph96.png,Stimuli/BlurLevel5/BlurEditedMorph96,Stimuli/BlurLevel5/BlurEditedMorph96.png,Stimuli/BlurLevel5/NumberedMorphs/BlurEditedMorph96.png,Stimuli/BlurLevel5/OriginalBlur/BlurEditedMorph96.png,Stimuli/BlurMorphTrio/EditedMorph96.png,020292right.gif,Stimuli/normal_thumbnails/96right.gif,1,0,1,0,0,82,82,95,,,100,2,83,136,-1.798349501,1.736645926,96,1004.689235,1005.188665,1004.689235,1005.188665,95.91836735,1574366953,1574366955,1.549736023,134,93,3,3,1574366951,1574366953,,,CK,1,21,F,UnderGrad,2019_Nov_21_1153,AdjustExp1,3.1.5,59.95431864,Experiment
133,Stimuli/Morph133.JPG,Stimuli/Morph133.png,Stimuli/BlurLevel5/BlurEditedMorph133,Stimuli/BlurLevel5/BlurEditedMorph133.png,Stimuli/BlurLevel5/NumberedMorphs/BlurEditedMorph133.png,Stimuli/BlurLevel5/OriginalBlur/BlurEditedMorph133.png,Stimuli/BlurMorphTrio/EditedMorph133.png,None,None,1,0,1,0,0,83,83,132,,,78,2,84,2,2.498477068,0.087248742,133,1008.489171,1008.989206,1008.489171,1008.989206,97.27891156,1574366957,1574366959,2.066311836,76,135,-2,-2,1574366955,1574366957,,,CK,1,21,F,UnderGrad,2019_Nov_21_1153,AdjustExp1,3.1.5,59.95431864,Experiment
30,Stimuli/Morph30.JPG,Stimuli/Morph30.png,Stimuli/BlurLevel5/BlurEditedMorph30,Stimuli/BlurLevel5/BlurEditedMorph30.png,Stimuli/BlurLevel5/NumberedMorphs/BlurEditedMorph30.png,Stimuli/BlurLevel5/OriginalBlur/BlurEditedMorph30.png,Stimuli/BlurMorphTrio/EditedMorph30.png,010076right.gif,Stimuli/normal_thumbnails/30right.gif,1,0,1,0,0,84,84,29,,,95,2,85,303,1.361597588,-2.09667642,30,1013.340648,1013.838674,1013.340648,1013.838674,76.8707483,1574366962,1574366964,2.333202839,87,13,17,17,1574366959,1574366962,,,CK,1,21,F,UnderGrad,2019_Nov_21_1153,AdjustExp1,3.1.5,59.95431864,Experiment
