stimulusID,stimulus_JPG,stimulusPath,stimulusPath2,stimulusPath3,stimulusPath4,stimulusPath5,stimulusPath6,xRayOriginal,xRayPath,Blocks.thisRepN,Blocks.thisTrialN,Blocks.thisN,Blocks.thisIndex,Trials.thisRepN,Trials.thisTrialN,Trials.thisN,Trials.thisIndex,text_2.started,text_2.stopped,xrayID,blockNumber,trialNumber,stimLocationDeg,stimXCoord,stimYCoord,stimulusID,xray1.started,xray1.stopped,tumors.started,tumors.stopped,trialCorrect%,startRespTime,endRespTime,RT,morphTrack,morphID,errorRaw,errorCorrected,startStimTime,endStimTime,key_resp.keys,key_resp.rt,participant,session,age,gender,status,date,expName,psychopyVersion,frameRate,blockType
39,Stimuli/Morph39.JPG,Stimuli/Morph39.png,Stimuli/BlurLevel5/BlurEditedMorph39,Stimuli/BlurLevel5/BlurEditedMorph39.png,Stimuli/BlurLevel5/NumberedMorphs/BlurEditedMorph39.png,Stimuli/BlurLevel5/OriginalBlur/BlurEditedMorph39.png,Stimuli/BlurMorphTrio/EditedMorph39.png,010109right.gif,Stimuli/normal_thumbnails/39right.gif,0,0,0,0,0,0,0,38,34.73784761,None,32,1,1,350,2.462019383,-0.434120444,39,54.71341737,55.20450602,54.71341737,55.20450602,67.34693878,1574381654,1574381660,5.550719023,147,63,-24,-24,1574381652,1574381654,,,CT,1,20,F,Undergrad,2019_Nov_21_1613,AdjustExp1,3.1.5,60.10029766,Experiment
136,Stimuli/Morph136.JPG,Stimuli/Morph136.png,Stimuli/BlurLevel5/BlurEditedMorph136,Stimuli/BlurLevel5/BlurEditedMorph136.png,Stimuli/BlurLevel5/NumberedMorphs/BlurEditedMorph136.png,Stimuli/BlurLevel5/OriginalBlur/BlurEditedMorph136.png,Stimuli/BlurMorphTrio/EditedMorph136.png,None,None,0,0,0,0,0,1,1,135,,,21,1,2,204,-2.283863644,-1.016841608,136,62.68847506,63.18865606,62.68847506,63.18865606,85.03401361,1574381662,1574381665,3.315124273,82,147,-11,-11,1574381660,1574381662,,,CT,1,20,F,Undergrad,2019_Nov_21_1613,AdjustExp1,3.1.5,60.10029766,Experiment
70,Stimuli/Morph70.JPG,Stimuli/Morph70.png,Stimuli/BlurLevel5/BlurEditedMorph70,Stimuli/BlurLevel5/BlurEditedMorph70.png,Stimuli/BlurLevel5/NumberedMorphs/BlurEditedMorph70.png,Stimuli/BlurLevel5/OriginalBlur/BlurEditedMorph70.png,Stimuli/BlurMorphTrio/EditedMorph70.png,020221right.gif,Stimuli/normal_thumbnails/70right.gif,0,0,0,0,0,2,2,69,,,62,1,3,299,1.212024051,-2.186549268,70,68.38838345,68.88812974,68.38838345,68.88812974,97.27891156,1574381668,1574381669,1.833121777,61,68,2,2,1574381665,1574381668,,,CT,1,20,F,Undergrad,2019_Nov_21_1613,AdjustExp1,3.1.5,60.10029766,Experiment
89,Stimuli/Morph89.JPG,Stimuli/Morph89.png,Stimuli/BlurLevel5/BlurEditedMorph89,Stimuli/BlurLevel5/BlurEditedMorph89.png,Stimuli/BlurLevel5/NumberedMorphs/BlurEditedMorph89.png,Stimuli/BlurLevel5/OriginalBlur/BlurEditedMorph89.png,Stimuli/BlurMorphTrio/EditedMorph89.png,020273right.gif,Stimuli/normal_thumbnails/89right.gif,0,0,0,0,0,3,3,88,,,67,1,4,304,1.397982259,-2.072593931,89,72.6211672,73.12139499,72.6211672,73.12139499,71.42857143,1574381672,1574381674,2.28312397,13,110,-21,-21,1574381670,1574381672,,,CT,1,20,F,Undergrad,2019_Nov_21_1613,AdjustExp1,3.1.5,60.10029766,Experiment
13,Stimuli/Morph13.JPG,Stimuli/Morph13.png,Stimuli/BlurLevel5/BlurEditedMorph13,Stimuli/BlurLevel5/BlurEditedMorph13.png,Stimuli/BlurLevel5/NumberedMorphs/BlurEditedMorph13.png,Stimuli/BlurLevel5/OriginalBlur/BlurEditedMorph13.png,Stimuli/BlurMorphTrio/EditedMorph13.png,010027right.gif,Stimuli/normal_thumbnails/13right.gif,0,0,0,0,0,4,4,12,,,22,1,5,194,-2.425739316,-0.604804739,13,77.18822476,77.68837401,77.18822476,77.68837401,90.47619048,1574381676,1574381681,4.716586113,86,20,-7,-7,1574381674,1574381676,,,CT,1,20,F,Undergrad,2019_Nov_21_1613,AdjustExp1,3.1.5,60.10029766,Experiment
16,Stimuli/Morph16.JPG,Stimuli/Morph16.png,Stimuli/BlurLevel5/BlurEditedMorph16,Stimuli/BlurLevel5/BlurEditedMorph16.png,Stimuli/BlurLevel5/NumberedMorphs/BlurEditedMorph16.png,Stimuli/BlurLevel5/OriginalBlur/BlurEditedMorph16.png,Stimuli/BlurMorphTrio/EditedMorph16.png,010034right.gif,Stimuli/normal_thumbnails/16right.gif,0,0,0,0,0,5,5,15,,,87,1,6,201,-2.333951066,-0.895919874,16,84.25476699,84.75471481,84.25476699,84.75471481,95.91836735,1574381683,1574381687,3.150047064,122,13,3,3,1574381681,1574381683,,,CT,1,20,F,Undergrad,2019_Nov_21_1613,AdjustExp1,3.1.5,60.10029766,Experiment
140,Stimuli/Morph140.JPG,Stimuli/Morph140.png,Stimuli/BlurLevel5/BlurEditedMorph140,Stimuli/BlurLevel5/BlurEditedMorph140.png,Stimuli/BlurLevel5/NumberedMorphs/BlurEditedMorph140.png,Stimuli/BlurLevel5/OriginalBlur/BlurEditedMorph140.png,Stimuli/BlurMorphTrio/EditedMorph140.png,None,None,0,0,0,0,0,6,6,139,,,2,1,7,121,-1.287595187,2.142918252,140,89.85447092,90.35483718,89.85447092,90.35483718,82.31292517,1574381689,1574381691,1.73431015,23,6,134,-13,1574381687,1574381689,,,CT,1,20,F,Undergrad,2019_Nov_21_1613,AdjustExp1,3.1.5,60.10029766,Experiment
76,Stimuli/Morph76.JPG,Stimuli/Morph76.png,Stimuli/BlurLevel5/BlurEditedMorph76,Stimuli/BlurLevel5/BlurEditedMorph76.png,Stimuli/BlurLevel5/NumberedMorphs/BlurEditedMorph76.png,Stimuli/BlurLevel5/OriginalBlur/BlurEditedMorph76.png,Stimuli/BlurMorphTrio/EditedMorph76.png,020234right.gif,Stimuli/normal_thumbnails/76right.gif,0,0,0,0,0,7,7,75,,,48,1,8,85,0.217889357,2.490486745,76,93.87126213,94.37155471,93.87126213,94.37155471,34.69387755,1574381693,1574381696,3.284326077,36,124,-48,-48,1574381691,1574381693,,,CT,1,20,F,Undergrad,2019_Nov_21_1613,AdjustExp1,3.1.5,60.10029766,Experiment
108,Stimuli/Morph108.JPG,Stimuli/Morph108.png,Stimuli/BlurLevel5/BlurEditedMorph108,Stimuli/BlurLevel5/BlurEditedMorph108.png,Stimuli/BlurLevel5/NumberedMorphs/BlurEditedMorph108.png,Stimuli/BlurLevel5/OriginalBlur/BlurEditedMorph108.png,Stimuli/BlurMorphTrio/EditedMorph108.png,None,None,0,0,0,0,0,8,8,107,,,94,1,9,349,2.454067959,-0.477022488,108,99.72114471,100.2210171,99.72114471,100.2210171,52.38095238,1574381699,1574381704,5.533112764,87,143,-35,-35,1574381697,1574381699,,,CT,1,20,F,Undergrad,2019_Nov_21_1613,AdjustExp1,3.1.5,60.10029766,Experiment
48,Stimuli/Morph48.JPG,Stimuli/Morph48.png,Stimuli/BlurLevel5/BlurEditedMorph48,Stimuli/BlurLevel5/BlurEditedMorph48.png,Stimuli/BlurLevel5/NumberedMorphs/BlurEditedMorph48.png,Stimuli/BlurLevel5/OriginalBlur/BlurEditedMorph48.png,Stimuli/BlurMorphTrio/EditedMorph48.png,010131right.gif,Stimuli/normal_thumbnails/48right.gif,0,0,0,0,0,9,9,47,,,19,1,10,83,0.304673359,2.481365379,48,108.1872866,108.6876995,108.1872866,108.6876995,85.03401361,1574381707,1574381713,5.766885757,94,59,-11,-11,1574381705,1574381707,,,CT,1,20,F,Undergrad,2019_Nov_21_1613,AdjustExp1,3.1.5,60.10029766,Experiment
31,Stimuli/Morph31.JPG,Stimuli/Morph31.png,Stimuli/BlurLevel5/BlurEditedMorph31,Stimuli/BlurLevel5/BlurEditedMorph31.png,Stimuli/BlurLevel5/NumberedMorphs/BlurEditedMorph31.png,Stimuli/BlurLevel5/OriginalBlur/BlurEditedMorph31.png,Stimuli/BlurMorphTrio/EditedMorph31.png,010079right.gif,Stimuli/normal_thumbnails/31right.gif,0,0,0,0,0,10,10,30,,,15,1,11,288,0.772542486,-2.377641291,31,116.5537018,117.054233,116.5537018,117.054233,95.91836735,1574381716,1574381718,1.966599226,49,34,-3,-3,1574381713,1574381716,,,CT,1,20,F,Undergrad,2019_Nov_21_1613,AdjustExp1,3.1.5,60.10029766,Experiment
68,Stimuli/Morph68.JPG,Stimuli/Morph68.png,Stimuli/BlurLevel5/BlurEditedMorph68,Stimuli/BlurLevel5/BlurEditedMorph68.png,Stimuli/BlurLevel5/NumberedMorphs/BlurEditedMorph68.png,Stimuli/BlurLevel5/OriginalBlur/BlurEditedMorph68.png,Stimuli/BlurMorphTrio/EditedMorph68.png,020218right.gif,Stimuli/normal_thumbnails/68right.gif,0,0,0,0,0,11,11,67,,,61,1,12,181,-2.499619238,-0.043631016,68,121.3709082,121.8707896,121.3709082,121.8707896,91.83673469,1574381721,1574381726,5.067037344,8,74,-6,-6,1574381718,1574381721,,,CT,1,20,F,Undergrad,2019_Nov_21_1613,AdjustExp1,3.1.5,60.10029766,Experiment
85,Stimuli/Morph85.JPG,Stimuli/Morph85.png,Stimuli/BlurLevel5/BlurEditedMorph85,Stimuli/BlurLevel5/BlurEditedMorph85.png,Stimuli/BlurLevel5/NumberedMorphs/BlurEditedMorph85.png,Stimuli/BlurLevel5/OriginalBlur/BlurEditedMorph85.png,Stimuli/BlurMorphTrio/EditedMorph85.png,020264right.gif,Stimuli/normal_thumbnails/85right.gif,0,0,0,0,0,12,12,84,,,10,1,13,214,-2.072593931,-1.397982259,85,128.8752942,129.3705216,128.8752942,129.3705216,67.34693878,1574381728,1574381737,8.533227921,37,109,-24,-24,1574381726,1574381728,,,CT,1,20,F,Undergrad,2019_Nov_21_1613,AdjustExp1,3.1.5,60.10029766,Experiment
55,Stimuli/Morph55.JPG,Stimuli/Morph55.png,Stimuli/BlurLevel5/BlurEditedMorph55,Stimuli/BlurLevel5/BlurEditedMorph55.png,Stimuli/BlurLevel5/NumberedMorphs/BlurEditedMorph55.png,Stimuli/BlurLevel5/OriginalBlur/BlurEditedMorph55.png,Stimuli/BlurMorphTrio/EditedMorph55.png,010151right.gif,Stimuli/normal_thumbnails/55right.gif,0,0,0,0,0,13,13,54,,,12,1,14,207,-2.22751631,-1.134976249,55,140.40348,140.9037434,140.40348,140.9037434,90.47619048,1574381740,1574381743,3.300193071,2,62,-7,-7,1574381737,1574381740,,,CT,1,20,F,Undergrad,2019_Nov_21_1613,AdjustExp1,3.1.5,60.10029766,Experiment
28,Stimuli/Morph28.JPG,Stimuli/Morph28.png,Stimuli/BlurLevel5/BlurEditedMorph28,Stimuli/BlurLevel5/BlurEditedMorph28.png,Stimuli/BlurLevel5/NumberedMorphs/BlurEditedMorph28.png,Stimuli/BlurLevel5/OriginalBlur/BlurEditedMorph28.png,Stimuli/BlurMorphTrio/EditedMorph28.png,010073right.gif,Stimuli/normal_thumbnails/28right.gif,0,0,0,0,0,14,14,27,,,76,1,15,288,0.772542486,-2.377641291,28,145.8540992,146.3540964,145.8540992,146.3540964,94.55782313,1574381745,1574381750,4.967076778,128,24,4,4,1574381743,1574381745,,,CT,1,20,F,Undergrad,2019_Nov_21_1613,AdjustExp1,3.1.5,60.10029766,Experiment
90,Stimuli/Morph90.JPG,Stimuli/Morph90.png,Stimuli/BlurLevel5/BlurEditedMorph90,Stimuli/BlurLevel5/BlurEditedMorph90.png,Stimuli/BlurLevel5/NumberedMorphs/BlurEditedMorph90.png,Stimuli/BlurLevel5/OriginalBlur/BlurEditedMorph90.png,Stimuli/BlurMorphTrio/EditedMorph90.png,020275right.gif,Stimuli/normal_thumbnails/90right.gif,0,0,0,0,0,15,15,89,,,5,1,16,344,2.40315424,-0.68909339,90,153.0705829,153.5704945,153.0705829,153.5704945,80.95238095,1574381752,1574381755,3.184181929,12,76,14,14,1574381750,1574381752,,,CT,1,20,F,Undergrad,2019_Nov_21_1613,AdjustExp1,3.1.5,60.10029766,Experiment
8,Stimuli/Morph8.JPG,Stimuli/Morph8.png,Stimuli/BlurLevel5/BlurEditedMorph8,Stimuli/BlurLevel5/BlurEditedMorph8.png,Stimuli/BlurLevel5/NumberedMorphs/BlurEditedMorph8.png,Stimuli/BlurLevel5/OriginalBlur/BlurEditedMorph8.png,Stimuli/BlurMorphTrio/EditedMorph8.png,010014right.gif,Stimuli/normal_thumbnails/8right.gif,0,0,0,0,0,16,16,7,,,20,1,17,58,1.324798161,2.12012024,8,158.5582104,159.0535882,158.5582104,159.0535882,93.19727891,1574381758,1574381760,2.533756018,59,13,-5,-5,1574381756,1574381758,,,CT,1,20,F,Undergrad,2019_Nov_21_1613,AdjustExp1,3.1.5,60.10029766,Experiment
109,Stimuli/Morph109.JPG,Stimuli/Morph109.png,Stimuli/BlurLevel5/BlurEditedMorph109,Stimuli/BlurLevel5/BlurEditedMorph109.png,Stimuli/BlurLevel5/NumberedMorphs/BlurEditedMorph109.png,Stimuli/BlurLevel5/OriginalBlur/BlurEditedMorph109.png,Stimuli/BlurMorphTrio/EditedMorph109.png,None,None,0,0,0,0,0,17,17,108,,,21,1,18,266,-0.174391184,-2.493910126,109,163.3869488,163.8867599,163.3869488,163.8867599,74.14965986,1574381763,1574381766,3.433037758,87,90,19,19,1574381761,1574381763,,,CT,1,20,F,Undergrad,2019_Nov_21_1613,AdjustExp1,3.1.5,60.10029766,Experiment
121,Stimuli/Morph121.JPG,Stimuli/Morph121.png,Stimuli/BlurLevel5/BlurEditedMorph121,Stimuli/BlurLevel5/BlurEditedMorph121.png,Stimuli/BlurLevel5/NumberedMorphs/BlurEditedMorph121.png,Stimuli/BlurLevel5/OriginalBlur/BlurEditedMorph121.png,Stimuli/BlurMorphTrio/EditedMorph121.png,None,None,0,0,0,0,0,18,18,120,,,16,1,19,93,-0.130839891,2.496573837,121,169.4041915,169.9035281,169.4041915,169.9035281,98.63945578,1574381769,1574381771,2.849920034,127,120,1,1,1574381766,1574381769,,,CT,1,20,F,Undergrad,2019_Nov_21_1613,AdjustExp1,3.1.5,60.10029766,Experiment
45,Stimuli/Morph45.JPG,Stimuli/Morph45.png,Stimuli/BlurLevel5/BlurEditedMorph45,Stimuli/BlurLevel5/BlurEditedMorph45.png,Stimuli/BlurLevel5/NumberedMorphs/BlurEditedMorph45.png,Stimuli/BlurLevel5/OriginalBlur/BlurEditedMorph45.png,Stimuli/BlurMorphTrio/EditedMorph45.png,010127right.gif,Stimuli/normal_thumbnails/45right.gif,0,0,0,0,0,19,19,44,,,58,1,20,133,-1.7049959,1.828384254,45,174.8073211,175.3024512,174.8073211,175.3024512,75.51020408,1574381774,1574381778,3.933349848,124,63,-18,-18,1574381772,1574381774,,,CT,1,20,F,Undergrad,2019_Nov_21_1613,AdjustExp1,3.1.5,60.10029766,Experiment
69,Stimuli/Morph69.JPG,Stimuli/Morph69.png,Stimuli/BlurLevel5/BlurEditedMorph69,Stimuli/BlurLevel5/BlurEditedMorph69.png,Stimuli/BlurLevel5/NumberedMorphs/BlurEditedMorph69.png,Stimuli/BlurLevel5/OriginalBlur/BlurEditedMorph69.png,Stimuli/BlurMorphTrio/EditedMorph69.png,020220right.gif,Stimuli/normal_thumbnails/69right.gif,0,0,0,0,0,20,20,68,,,25,1,21,171,-2.469220851,0.391086163,69,181.0546381,181.5535401,181.0546381,181.5535401,87.75510204,1574381780,1574381783,2.866785049,80,60,9,9,1574381778,1574381780,,,CT,1,20,F,Undergrad,2019_Nov_21_1613,AdjustExp1,3.1.5,60.10029766,Experiment
144,Stimuli/Morph144.JPG,Stimuli/Morph144.png,Stimuli/BlurLevel5/BlurEditedMorph144,Stimuli/BlurLevel5/BlurEditedMorph144.png,Stimuli/BlurLevel5/NumberedMorphs/BlurEditedMorph144.png,Stimuli/BlurLevel5/OriginalBlur/BlurEditedMorph144.png,Stimuli/BlurMorphTrio/EditedMorph144.png,None,None,0,0,0,0,0,21,21,143,,,74,1,22,60,1.25,2.165063509,144,186.6032338,187.1030891,186.6032338,187.1030891,93.19727891,1574381786,1574381790,4.149912119,78,2,142,-5,1574381783,1574381786,,,CT,1,20,F,Undergrad,2019_Nov_21_1613,AdjustExp1,3.1.5,60.10029766,Experiment
101,Stimuli/Morph101.JPG,Stimuli/Morph101.png,Stimuli/BlurLevel5/BlurEditedMorph101,Stimuli/BlurLevel5/BlurEditedMorph101.png,Stimuli/BlurLevel5/NumberedMorphs/BlurEditedMorph101.png,Stimuli/BlurLevel5/OriginalBlur/BlurEditedMorph101.png,Stimuli/BlurMorphTrio/EditedMorph101.png,None,None,0,0,0,0,0,22,22,100,,,68,1,23,343,2.39076189,-0.730929262,101,193.1736637,193.6702106,193.1736637,193.6702106,70.06802721,1574381792,1574381795,2.949809074,42,123,-22,-22,1574381790,1574381792,,,CT,1,20,F,Undergrad,2019_Nov_21_1613,AdjustExp1,3.1.5,60.10029766,Experiment
23,Stimuli/Morph23.JPG,Stimuli/Morph23.png,Stimuli/BlurLevel5/BlurEditedMorph23,Stimuli/BlurLevel5/BlurEditedMorph23.png,Stimuli/BlurLevel5/NumberedMorphs/BlurEditedMorph23.png,Stimuli/BlurLevel5/OriginalBlur/BlurEditedMorph23.png,Stimuli/BlurMorphTrio/EditedMorph23.png,010063right.gif,Stimuli/normal_thumbnails/23right.gif,0,0,0,0,0,23,23,22,,,22,1,24,156,-2.283863644,1.016841608,23,198.6703286,199.1690805,198.6703286,199.1690805,48.29931973,1574381798,1574381801,3.349660873,96,132,-109,38,1574381796,1574381798,,,CT,1,20,F,Undergrad,2019_Nov_21_1613,AdjustExp1,3.1.5,60.10029766,Experiment
50,Stimuli/Morph50.JPG,Stimuli/Morph50.png,Stimuli/BlurLevel5/BlurEditedMorph50,Stimuli/BlurLevel5/BlurEditedMorph50.png,Stimuli/BlurLevel5/NumberedMorphs/BlurEditedMorph50.png,Stimuli/BlurLevel5/OriginalBlur/BlurEditedMorph50.png,Stimuli/BlurMorphTrio/EditedMorph50.png,010142right.gif,Stimuli/normal_thumbnails/50right.gif,0,0,0,0,0,24,24,49,,,99,1,25,83,0.304673359,2.481365379,50,204.4029304,204.9029564,204.4029304,204.9029564,89.11564626,1574381804,1574381809,5.216783047,32,58,-8,-8,1574381801,1574381804,,,CT,1,20,F,Undergrad,2019_Nov_21_1613,AdjustExp1,3.1.5,60.10029766,Experiment
35,Stimuli/Morph35.JPG,Stimuli/Morph35.png,Stimuli/BlurLevel5/BlurEditedMorph35,Stimuli/BlurLevel5/BlurEditedMorph35.png,Stimuli/BlurLevel5/NumberedMorphs/BlurEditedMorph35.png,Stimuli/BlurLevel5/OriginalBlur/BlurEditedMorph35.png,Stimuli/BlurMorphTrio/EditedMorph35.png,010094right.gif,Stimuli/normal_thumbnails/35right.gif,0,0,0,0,0,25,25,34,,,82,1,26,294,1.016841608,-2.283863644,35,212.1028094,212.603022,212.1028094,212.603022,91.83673469,1574381811,1574381818,6.633800983,105,29,6,6,1574381809,1574381811,,,CT,1,20,F,Undergrad,2019_Nov_21_1613,AdjustExp1,3.1.5,60.10029766,Experiment
52,Stimuli/Morph52.JPG,Stimuli/Morph52.png,Stimuli/BlurLevel5/BlurEditedMorph52,Stimuli/BlurLevel5/BlurEditedMorph52.png,Stimuli/BlurLevel5/NumberedMorphs/BlurEditedMorph52.png,Stimuli/BlurLevel5/OriginalBlur/BlurEditedMorph52.png,Stimuli/BlurMorphTrio/EditedMorph52.png,010148right.gif,Stimuli/normal_thumbnails/52right.gif,0,0,0,0,0,26,26,51,,,42,1,27,308,1.539153688,-1.970026884,52,221.340971,221.8349982,221.340971,221.8349982,98.63945578,1574381821,1574381824,3.26770997,121,51,1,1,1574381818,1574381821,,,CT,1,20,F,Undergrad,2019_Nov_21_1613,AdjustExp1,3.1.5,60.10029766,Experiment
33,Stimuli/Morph33.JPG,Stimuli/Morph33.png,Stimuli/BlurLevel5/BlurEditedMorph33,Stimuli/BlurLevel5/BlurEditedMorph33.png,Stimuli/BlurLevel5/NumberedMorphs/BlurEditedMorph33.png,Stimuli/BlurLevel5/OriginalBlur/BlurEditedMorph33.png,Stimuli/BlurMorphTrio/EditedMorph33.png,010089right.gif,Stimuli/normal_thumbnails/33right.gif,0,0,0,0,0,27,27,32,,,56,1,28,325,2.047880111,-1.433941091,33,227.3416904,227.835896,227.3416904,227.835896,86.39455782,1574381827,1574381831,4.533747911,89,43,-10,-10,1574381824,1574381827,,,CT,1,20,F,Undergrad,2019_Nov_21_1613,AdjustExp1,3.1.5,60.10029766,Experiment
17,Stimuli/Morph17.JPG,Stimuli/Morph17.png,Stimuli/BlurLevel5/BlurEditedMorph17,Stimuli/BlurLevel5/BlurEditedMorph17.png,Stimuli/BlurLevel5/NumberedMorphs/BlurEditedMorph17.png,Stimuli/BlurLevel5/OriginalBlur/BlurEditedMorph17.png,Stimuli/BlurMorphTrio/EditedMorph17.png,010036right.gif,Stimuli/normal_thumbnails/17right.gif,0,0,0,0,0,28,28,16,,,97,1,29,195,-2.414814566,-0.647047613,17,234.6029961,235.1027523,234.6029961,235.1027523,100,1574381834,1574381839,4.816849947,140,17,0,0,1574381831,1574381834,,,CT,1,20,F,Undergrad,2019_Nov_21_1613,AdjustExp1,3.1.5,60.10029766,Experiment
93,Stimuli/Morph93.JPG,Stimuli/Morph93.png,Stimuli/BlurLevel5/BlurEditedMorph93,Stimuli/BlurLevel5/BlurEditedMorph93.png,Stimuli/BlurLevel5/NumberedMorphs/BlurEditedMorph93.png,Stimuli/BlurLevel5/OriginalBlur/BlurEditedMorph93.png,Stimuli/BlurMorphTrio/EditedMorph93.png,020280right.gif,Stimuli/normal_thumbnails/93right.gif,0,0,0,0,0,29,29,92,,,51,1,30,249,-0.895919874,-2.333951066,93,242.2753576,242.7692661,242.2753576,242.7692661,95.91836735,1574381841,1574381844,2.983876944,77,90,3,3,1574381839,1574381841,,,CT,1,20,F,Undergrad,2019_Nov_21_1613,AdjustExp1,3.1.5,60.10029766,Experiment
83,Stimuli/Morph83.JPG,Stimuli/Morph83.png,Stimuli/BlurLevel5/BlurEditedMorph83,Stimuli/BlurLevel5/BlurEditedMorph83.png,Stimuli/BlurLevel5/NumberedMorphs/BlurEditedMorph83.png,Stimuli/BlurLevel5/OriginalBlur/BlurEditedMorph83.png,Stimuli/BlurMorphTrio/EditedMorph83.png,020259right.gif,Stimuli/normal_thumbnails/83right.gif,0,0,0,0,0,30,30,82,,,13,1,31,140,-1.915111108,1.606969024,83,248.1520705,248.6528414,248.1520705,248.6528414,53.7414966,1574381847,1574381851,3.199564934,57,117,-34,-34,1574381845,1574381847,,,CT,1,20,F,Undergrad,2019_Nov_21_1613,AdjustExp1,3.1.5,60.10029766,Experiment
139,Stimuli/Morph139.JPG,Stimuli/Morph139.png,Stimuli/BlurLevel5/BlurEditedMorph139,Stimuli/BlurLevel5/BlurEditedMorph139.png,Stimuli/BlurLevel5/NumberedMorphs/BlurEditedMorph139.png,Stimuli/BlurLevel5/OriginalBlur/BlurEditedMorph139.png,Stimuli/BlurMorphTrio/EditedMorph139.png,None,None,0,0,0,0,0,31,31,138,,,88,1,32,296,1.095927867,-2.246985116,139,254.1184055,254.6193211,254.1184055,254.6193211,3.401360544,1574381853,1574381858,4.449984074,143,63,76,-71,1574381851,1574381853,,,CT,1,20,F,Undergrad,2019_Nov_21_1613,AdjustExp1,3.1.5,60.10029766,Experiment
134,Stimuli/Morph134.JPG,Stimuli/Morph134.png,Stimuli/BlurLevel5/BlurEditedMorph134,Stimuli/BlurLevel5/BlurEditedMorph134.png,Stimuli/BlurLevel5/NumberedMorphs/BlurEditedMorph134.png,Stimuli/BlurLevel5/OriginalBlur/BlurEditedMorph134.png,Stimuli/BlurMorphTrio/EditedMorph134.png,None,None,0,0,0,0,0,32,32,133,,,88,1,33,357,2.496573837,-0.130839891,134,260.8709982,261.369066,260.8709982,261.369066,98.63945578,1574381860,1574381863,3.133707047,97,135,-1,-1,1574381858,1574381860,,,CT,1,20,F,Undergrad,2019_Nov_21_1613,AdjustExp1,3.1.5,60.10029766,Experiment
128,Stimuli/Morph128.JPG,Stimuli/Morph128.png,Stimuli/BlurLevel5/BlurEditedMorph128,Stimuli/BlurLevel5/BlurEditedMorph128.png,Stimuli/BlurLevel5/NumberedMorphs/BlurEditedMorph128.png,Stimuli/BlurLevel5/OriginalBlur/BlurEditedMorph128.png,Stimuli/BlurMorphTrio/EditedMorph128.png,None,None,0,0,0,0,0,33,33,127,,,44,1,34,263,-0.304673359,-2.481365379,128,266.7515055,267.2520266,266.7515055,267.2520266,85.03401361,1574381866,1574381868,1.866935968,114,139,-11,-11,1574381864,1574381866,,,CT,1,20,F,Undergrad,2019_Nov_21_1613,AdjustExp1,3.1.5,60.10029766,Experiment
34,Stimuli/Morph34.JPG,Stimuli/Morph34.png,Stimuli/BlurLevel5/BlurEditedMorph34,Stimuli/BlurLevel5/BlurEditedMorph34.png,Stimuli/BlurLevel5/NumberedMorphs/BlurEditedMorph34.png,Stimuli/BlurLevel5/OriginalBlur/BlurEditedMorph34.png,Stimuli/BlurMorphTrio/EditedMorph34.png,010090right.gif,Stimuli/normal_thumbnails/34right.gif,0,0,0,0,0,34,34,33,,,32,1,35,326,2.072593931,-1.397982259,34,271.3189999,271.8189936,271.3189999,271.8189936,100,1574381871,1574381873,2.450675011,41,34,0,0,1574381868,1574381871,,,CT,1,20,F,Undergrad,2019_Nov_21_1613,AdjustExp1,3.1.5,60.10029766,Experiment
3,Stimuli/Morph3.JPG,Stimuli/Morph3.png,Stimuli/BlurLevel5/BlurEditedMorph3,Stimuli/BlurLevel5/BlurEditedMorph3.png,Stimuli/BlurLevel5/NumberedMorphs/BlurEditedMorph3.png,Stimuli/BlurLevel5/OriginalBlur/BlurEditedMorph3.png,Stimuli/BlurMorphTrio/EditedMorph3.png,010009right.gif,Stimuli/normal_thumbnails/3right.gif,0,0,0,0,0,35,35,2,,,2,1,36,291,0.895919874,-2.333951066,3,276.304638,276.8020343,276.304638,276.8020343,80.95238095,1574381875,1574381878,2.967213869,73,136,-133,14,1574381874,1574381875,,,CT,1,20,F,Undergrad,2019_Nov_21_1613,AdjustExp1,3.1.5,60.10029766,Experiment
96,Stimuli/Morph96.JPG,Stimuli/Morph96.png,Stimuli/BlurLevel5/BlurEditedMorph96,Stimuli/BlurLevel5/BlurEditedMorph96.png,Stimuli/BlurLevel5/NumberedMorphs/BlurEditedMorph96.png,Stimuli/BlurLevel5/OriginalBlur/BlurEditedMorph96.png,Stimuli/BlurMorphTrio/EditedMorph96.png,020292right.gif,Stimuli/normal_thumbnails/96right.gif,0,0,0,0,0,36,36,95,,,37,1,37,73,0.730929262,2.39076189,96,281.619126,282.1184126,281.619126,282.1184126,59.18367347,1574381881,1574381885,3.716412067,51,126,-30,-30,1574381879,1574381881,,,CT,1,20,F,Undergrad,2019_Nov_21_1613,AdjustExp1,3.1.5,60.10029766,Experiment
51,Stimuli/Morph51.JPG,Stimuli/Morph51.png,Stimuli/BlurLevel5/BlurEditedMorph51,Stimuli/BlurLevel5/BlurEditedMorph51.png,Stimuli/BlurLevel5/NumberedMorphs/BlurEditedMorph51.png,Stimuli/BlurLevel5/OriginalBlur/BlurEditedMorph51.png,Stimuli/BlurMorphTrio/EditedMorph51.png,010146right.gif,Stimuli/normal_thumbnails/51right.gif,0,0,0,0,0,37,37,50,,,14,1,38,44,1.798349501,1.736645926,51,288.0396031,288.5348264,288.0396031,288.5348264,83.67346939,1574381887,1574381890,2.69922924,127,63,-12,-12,1574381885,1574381887,,,CT,1,20,F,Undergrad,2019_Nov_21_1613,AdjustExp1,3.1.5,60.10029766,Experiment
71,Stimuli/Morph71.JPG,Stimuli/Morph71.png,Stimuli/BlurLevel5/BlurEditedMorph71,Stimuli/BlurLevel5/BlurEditedMorph71.png,Stimuli/BlurLevel5/NumberedMorphs/BlurEditedMorph71.png,Stimuli/BlurLevel5/OriginalBlur/BlurEditedMorph71.png,Stimuli/BlurMorphTrio/EditedMorph71.png,020225right.gif,Stimuli/normal_thumbnails/71right.gif,0,0,0,0,0,38,38,70,,,6,1,39,204,-2.283863644,-1.016841608,71,293.6219832,294.1188802,293.6219832,294.1188802,94.55782313,1574381893,1574381896,2.700427055,107,75,-4,-4,1574381890,1574381893,,,CT,1,20,F,Undergrad,2019_Nov_21_1613,AdjustExp1,3.1.5,60.10029766,Experiment
36,Stimuli/Morph36.JPG,Stimuli/Morph36.png,Stimuli/BlurLevel5/BlurEditedMorph36,Stimuli/BlurLevel5/BlurEditedMorph36.png,Stimuli/BlurLevel5/NumberedMorphs/BlurEditedMorph36.png,Stimuli/BlurLevel5/OriginalBlur/BlurEditedMorph36.png,Stimuli/BlurMorphTrio/EditedMorph36.png,010095right.gif,Stimuli/normal_thumbnails/36right.gif,0,0,0,0,0,39,39,35,,,61,1,40,73,0.730929262,2.39076189,36,299.1851312,299.6853192,299.1851312,299.6853192,91.83673469,1574381898,1574381902,3.799832106,76,30,6,6,1574381896,1574381898,,,CT,1,20,F,Undergrad,2019_Nov_21_1613,AdjustExp1,3.1.5,60.10029766,Experiment
10,Stimuli/Morph10.JPG,Stimuli/Morph10.png,Stimuli/BlurLevel5/BlurEditedMorph10,Stimuli/BlurLevel5/BlurEditedMorph10.png,Stimuli/BlurLevel5/NumberedMorphs/BlurEditedMorph10.png,Stimuli/BlurLevel5/OriginalBlur/BlurEditedMorph10.png,Stimuli/BlurMorphTrio/EditedMorph10.png,010016right.gif,Stimuli/normal_thumbnails/10right.gif,0,0,0,0,0,40,40,9,,,44,1,41,229,-1.640147572,-1.886773951,10,305.4185971,305.9181991,305.4185971,305.9181991,95.91836735,1574381905,1574381907,2.600991964,4,13,-3,-3,1574381902,1574381905,,,CT,1,20,F,Undergrad,2019_Nov_21_1613,AdjustExp1,3.1.5,60.10029766,Experiment
59,Stimuli/Morph59.JPG,Stimuli/Morph59.png,Stimuli/BlurLevel5/BlurEditedMorph59,Stimuli/BlurLevel5/BlurEditedMorph59.png,Stimuli/BlurLevel5/NumberedMorphs/BlurEditedMorph59.png,Stimuli/BlurLevel5/OriginalBlur/BlurEditedMorph59.png,Stimuli/BlurMorphTrio/EditedMorph59.png,010160right.gif,Stimuli/normal_thumbnails/59right.gif,0,0,0,0,0,41,41,58,,,39,1,42,153,-2.22751631,1.134976249,59,310.4916356,310.9847028,310.4916356,310.9847028,82.31292517,1574381910,1574381914,4.083439112,5,46,13,13,1574381907,1574381910,,,CT,1,20,F,Undergrad,2019_Nov_21_1613,AdjustExp1,3.1.5,60.10029766,Experiment
141,Stimuli/Morph141.JPG,Stimuli/Morph141.png,Stimuli/BlurLevel5/BlurEditedMorph141,Stimuli/BlurLevel5/BlurEditedMorph141.png,Stimuli/BlurLevel5/NumberedMorphs/BlurEditedMorph141.png,Stimuli/BlurLevel5/OriginalBlur/BlurEditedMorph141.png,Stimuli/BlurMorphTrio/EditedMorph141.png,None,None,0,0,0,0,0,42,42,140,,,62,1,43,150,-2.165063509,1.25,141,317.3173771,317.8178522,317.3173771,317.8178522,85.03401361,1574381917,1574381922,5.134447813,57,5,136,-11,1574381914,1574381916,,,CT,1,20,F,Undergrad,2019_Nov_21_1613,AdjustExp1,3.1.5,60.10029766,Experiment
124,Stimuli/Morph124.JPG,Stimuli/Morph124.png,Stimuli/BlurLevel5/BlurEditedMorph124,Stimuli/BlurLevel5/BlurEditedMorph124.png,Stimuli/BlurLevel5/NumberedMorphs/BlurEditedMorph124.png,Stimuli/BlurLevel5/OriginalBlur/BlurEditedMorph124.png,Stimuli/BlurMorphTrio/EditedMorph124.png,None,None,0,0,0,0,0,43,43,123,,,38,1,44,248,-0.936516484,-2.317959636,124,325.1847101,325.6848413,325.1847101,325.6848413,65.98639456,1574381924,1574381930,5.69890523,8,2,122,-25,1574381922,1574381924,,,CT,1,20,F,Undergrad,2019_Nov_21_1613,AdjustExp1,3.1.5,60.10029766,Experiment
64,Stimuli/Morph64.JPG,Stimuli/Morph64.png,Stimuli/BlurLevel5/BlurEditedMorph64,Stimuli/BlurLevel5/BlurEditedMorph64.png,Stimuli/BlurLevel5/NumberedMorphs/BlurEditedMorph64.png,Stimuli/BlurLevel5/OriginalBlur/BlurEditedMorph64.png,Stimuli/BlurMorphTrio/EditedMorph64.png,020208right.gif,Stimuli/normal_thumbnails/64right.gif,0,0,0,0,0,44,44,63,,,29,1,45,37,1.996588775,1.504537558,64,333.3835939,333.8841833,333.3835939,333.8841833,97.27891156,1574381933,1574381937,4.433158159,66,66,-2,-2,1574381930,1574381933,,,CT,1,20,F,Undergrad,2019_Nov_21_1613,AdjustExp1,3.1.5,60.10029766,Experiment
66,Stimuli/Morph66.JPG,Stimuli/Morph66.png,Stimuli/BlurLevel5/BlurEditedMorph66,Stimuli/BlurLevel5/BlurEditedMorph66.png,Stimuli/BlurLevel5/NumberedMorphs/BlurEditedMorph66.png,Stimuli/BlurLevel5/OriginalBlur/BlurEditedMorph66.png,Stimuli/BlurMorphTrio/EditedMorph66.png,020212right.gif,Stimuli/normal_thumbnails/66right.gif,0,0,0,0,0,45,45,65,,,35,1,46,327,2.09667642,-1.361597588,66,340.1234695,340.6182007,340.1234695,340.6182007,90.47619048,1574381939,1574381943,3.932654142,13,73,-7,-7,1574381937,1574381939,,,CT,1,20,F,Undergrad,2019_Nov_21_1613,AdjustExp1,3.1.5,60.10029766,Experiment
131,Stimuli/Morph131.JPG,Stimuli/Morph131.png,Stimuli/BlurLevel5/BlurEditedMorph131,Stimuli/BlurLevel5/BlurEditedMorph131.png,Stimuli/BlurLevel5/NumberedMorphs/BlurEditedMorph131.png,Stimuli/BlurLevel5/OriginalBlur/BlurEditedMorph131.png,Stimuli/BlurMorphTrio/EditedMorph131.png,None,None,0,0,0,0,0,46,46,130,,,1,1,47,344,2.40315424,-0.68909339,131,346.0022106,346.5009948,346.0022106,346.5009948,85.03401361,1574381945,1574381946,1.283428907,120,120,11,11,1574381944,1574381945,,,CT,1,20,F,Undergrad,2019_Nov_21_1613,AdjustExp1,3.1.5,60.10029766,Experiment
7,Stimuli/Morph7.JPG,Stimuli/Morph7.png,Stimuli/BlurLevel5/BlurEditedMorph7,Stimuli/BlurLevel5/BlurEditedMorph7.png,Stimuli/BlurLevel5/NumberedMorphs/BlurEditedMorph7.png,Stimuli/BlurLevel5/OriginalBlur/BlurEditedMorph7.png,Stimuli/BlurMorphTrio/EditedMorph7.png,010013right.gif,Stimuli/normal_thumbnails/7right.gif,0,0,0,0,0,47,47,6,,,33,1,48,49,1.640147572,1.886773951,7,349.8550598,350.3513849,349.8550598,350.3513849,100,1574381949,1574381953,3.967798948,82,7,0,0,1574381947,1574381949,,,CT,1,20,F,Undergrad,2019_Nov_21_1613,AdjustExp1,3.1.5,60.10029766,Experiment
135,Stimuli/Morph135.JPG,Stimuli/Morph135.png,Stimuli/BlurLevel5/BlurEditedMorph135,Stimuli/BlurLevel5/BlurEditedMorph135.png,Stimuli/BlurLevel5/NumberedMorphs/BlurEditedMorph135.png,Stimuli/BlurLevel5/OriginalBlur/BlurEditedMorph135.png,Stimuli/BlurMorphTrio/EditedMorph135.png,None,None,0,0,0,0,0,48,48,134,,,65,1,49,0,2.5,0,135,356.4741658,356.9679173,356.4741658,356.9679173,74.14965986,1574381956,1574381957,1.100195169,7,7,128,-19,1574381953,1574381956,,,CT,1,20,F,Undergrad,2019_Nov_21_1613,AdjustExp1,3.1.5,60.10029766,Experiment
125,Stimuli/Morph125.JPG,Stimuli/Morph125.png,Stimuli/BlurLevel5/BlurEditedMorph125,Stimuli/BlurLevel5/BlurEditedMorph125.png,Stimuli/BlurLevel5/NumberedMorphs/BlurEditedMorph125.png,Stimuli/BlurLevel5/OriginalBlur/BlurEditedMorph125.png,Stimuli/BlurMorphTrio/EditedMorph125.png,None,None,0,0,0,0,0,49,49,124,,,18,1,50,72,0.772542486,2.377641291,125,359.8685566,360.3676132,359.8685566,360.3676132,93.19727891,1574381959,1574381960,1.032732248,130,130,-5,-5,1574381957,1574381959,,,CT,1,20,F,Undergrad,2019_Nov_21_1613,AdjustExp1,3.1.5,60.10029766,Experiment
79,Stimuli/Morph79.JPG,Stimuli/Morph79.png,Stimuli/BlurLevel5/BlurEditedMorph79,Stimuli/BlurLevel5/BlurEditedMorph79.png,Stimuli/BlurLevel5/NumberedMorphs/BlurEditedMorph79.png,Stimuli/BlurLevel5/OriginalBlur/BlurEditedMorph79.png,Stimuli/BlurMorphTrio/EditedMorph79.png,020239right.gif,Stimuli/normal_thumbnails/79right.gif,0,0,0,0,0,50,50,78,,,16,1,51,191,-2.454067959,-0.477022488,79,363.6511556,364.1511141,363.6511556,364.1511141,100,1574381963,1574381968,4.716438055,86,79,0,0,1574381960,1574381963,,,CT,1,20,F,Undergrad,2019_Nov_21_1613,AdjustExp1,3.1.5,60.10029766,Experiment
111,Stimuli/Morph111.JPG,Stimuli/Morph111.png,Stimuli/BlurLevel5/BlurEditedMorph111,Stimuli/BlurLevel5/BlurEditedMorph111.png,Stimuli/BlurLevel5/NumberedMorphs/BlurEditedMorph111.png,Stimuli/BlurLevel5/OriginalBlur/BlurEditedMorph111.png,Stimuli/BlurMorphTrio/EditedMorph111.png,None,None,0,0,0,0,0,51,51,110,,,66,1,52,101,-0.477022488,2.454067959,111,370.8671365,371.3673163,370.8671365,371.3673163,80.95238095,1574381970,1574381977,6.550120115,25,125,-14,-14,1574381968,1574381970,,,CT,1,20,F,Undergrad,2019_Nov_21_1613,AdjustExp1,3.1.5,60.10029766,Experiment
43,Stimuli/Morph43.JPG,Stimuli/Morph43.png,Stimuli/BlurLevel5/BlurEditedMorph43,Stimuli/BlurLevel5/BlurEditedMorph43.png,Stimuli/BlurLevel5/NumberedMorphs/BlurEditedMorph43.png,Stimuli/BlurLevel5/OriginalBlur/BlurEditedMorph43.png,Stimuli/BlurMorphTrio/EditedMorph43.png,010124right.gif,Stimuli/normal_thumbnails/43right.gif,0,0,0,0,0,52,52,42,,,31,1,53,256,-0.604804739,-2.425739316,43,380.1059788,380.6008213,380.1059788,380.6008213,93.19727891,1574381979,1574381984,4.733566284,40,38,5,5,1574381977,1574381979,,,CT,1,20,F,Undergrad,2019_Nov_21_1613,AdjustExp1,3.1.5,60.10029766,Experiment
126,Stimuli/Morph126.JPG,Stimuli/Morph126.png,Stimuli/BlurLevel5/BlurEditedMorph126,Stimuli/BlurLevel5/BlurEditedMorph126.png,Stimuli/BlurLevel5/NumberedMorphs/BlurEditedMorph126.png,Stimuli/BlurLevel5/OriginalBlur/BlurEditedMorph126.png,Stimuli/BlurMorphTrio/EditedMorph126.png,None,None,0,0,0,0,0,53,53,125,,,13,1,54,270,-4.59E-16,-2.5,126,387.7500785,388.251049,387.7500785,388.251049,93.19727891,1574381987,1574381989,2.300170898,144,131,-5,-5,1574381984,1574381987,,,CT,1,20,F,Undergrad,2019_Nov_21_1613,AdjustExp1,3.1.5,60.10029766,Experiment
147,Stimuli/Morph147.JPG,Stimuli/Morph147.png,Stimuli/BlurLevel5/BlurEditedMorph147,Stimuli/BlurLevel5/BlurEditedMorph147.png,Stimuli/BlurLevel5/NumberedMorphs/BlurEditedMorph147.png,Stimuli/BlurLevel5/OriginalBlur/BlurEditedMorph147.png,Stimuli/BlurMorphTrio/EditedMorph147.png,None,None,0,0,0,0,0,54,54,146,,,30,1,55,230,-1.606969024,-1.915111108,147,392.7334163,393.2337844,392.7334163,393.2337844,85.03401361,1574381992,1574381995,3.516746044,120,136,11,11,1574381990,1574381992,,,CT,1,20,F,Undergrad,2019_Nov_21_1613,AdjustExp1,3.1.5,60.10029766,Experiment
74,Stimuli/Morph74.JPG,Stimuli/Morph74.png,Stimuli/BlurLevel5/BlurEditedMorph74,Stimuli/BlurLevel5/BlurEditedMorph74.png,Stimuli/BlurLevel5/NumberedMorphs/BlurEditedMorph74.png,Stimuli/BlurLevel5/OriginalBlur/BlurEditedMorph74.png,Stimuli/BlurMorphTrio/EditedMorph74.png,020232right.gif,Stimuli/normal_thumbnails/74right.gif,0,0,0,0,0,55,55,73,,,4,1,56,72,0.772542486,2.377641291,74,398.750612,399.2505486,398.750612,399.2505486,93.19727891,1574381998,1574382003,4.599880934,44,69,5,5,1574381996,1574381998,,,CT,1,20,F,Undergrad,2019_Nov_21_1613,AdjustExp1,3.1.5,60.10029766,Experiment
143,Stimuli/Morph143.JPG,Stimuli/Morph143.png,Stimuli/BlurLevel5/BlurEditedMorph143,Stimuli/BlurLevel5/BlurEditedMorph143.png,Stimuli/BlurLevel5/NumberedMorphs/BlurEditedMorph143.png,Stimuli/BlurLevel5/OriginalBlur/BlurEditedMorph143.png,Stimuli/BlurMorphTrio/EditedMorph143.png,None,None,0,0,0,0,0,56,56,142,,,32,1,57,335,2.265769468,-1.056545654,143,405.8003187,406.3001332,405.8003187,406.3001332,94.55782313,1574382005,1574382009,3.665898085,102,147,-4,-4,1574382003,1574382005,,,CT,1,20,F,Undergrad,2019_Nov_21_1613,AdjustExp1,3.1.5,60.10029766,Experiment
112,Stimuli/Morph112.JPG,Stimuli/Morph112.png,Stimuli/BlurLevel5/BlurEditedMorph112,Stimuli/BlurLevel5/BlurEditedMorph112.png,Stimuli/BlurLevel5/NumberedMorphs/BlurEditedMorph112.png,Stimuli/BlurLevel5/OriginalBlur/BlurEditedMorph112.png,Stimuli/BlurMorphTrio/EditedMorph112.png,None,None,0,0,0,0,0,57,57,111,,,53,1,58,205,-2.265769468,-1.056545654,112,412.3495309,412.8503718,412.3495309,412.8503718,85.03401361,1574382012,1574382013,1.566758871,4,123,-11,-11,1574382009,1574382012,,,CT,1,20,F,Undergrad,2019_Nov_21_1613,AdjustExp1,3.1.5,60.10029766,Experiment
97,Stimuli/Morph97.JPG,Stimuli/Morph97.png,Stimuli/BlurLevel5/BlurEditedMorph97,Stimuli/BlurLevel5/BlurEditedMorph97.png,Stimuli/BlurLevel5/NumberedMorphs/BlurEditedMorph97.png,Stimuli/BlurLevel5/OriginalBlur/BlurEditedMorph97.png,Stimuli/BlurMorphTrio/EditedMorph97.png,020294right.gif,Stimuli/normal_thumbnails/97right.gif,0,0,0,0,0,58,58,96,,,20,1,59,314,1.736645926,-1.798349501,97,416.4999517,416.9997998,416.4999517,416.9997998,78.23129252,1574382016,1574382017,1.033941984,113,113,-16,-16,1574382013,1574382016,,,CT,1,20,F,Undergrad,2019_Nov_21_1613,AdjustExp1,3.1.5,60.10029766,Experiment
1,Stimuli/Morph1.JPG,Stimuli/Morph1.png,Stimuli/BlurLevel5/BlurEditedMorph1,Stimuli/BlurLevel5/BlurEditedMorph1.png,Stimuli/BlurLevel5/NumberedMorphs/BlurEditedMorph1.png,Stimuli/BlurLevel5/OriginalBlur/BlurEditedMorph1.png,Stimuli/BlurMorphTrio/EditedMorph1.png,010003right.gif,Stimuli/normal_thumbnails/1right.gif,0,0,0,0,0,59,59,0,,,77,1,60,3,2.496573837,0.130839891,1,420.149747,420.6501059,420.149747,420.6501059,95.91836735,1574382019,1574382024,4.866217852,23,145,-144,3,1574382017,1574382019,,,CT,1,20,F,Undergrad,2019_Nov_21_1613,AdjustExp1,3.1.5,60.10029766,Experiment
123,Stimuli/Morph123.JPG,Stimuli/Morph123.png,Stimuli/BlurLevel5/BlurEditedMorph123,Stimuli/BlurLevel5/BlurEditedMorph123.png,Stimuli/BlurLevel5/NumberedMorphs/BlurEditedMorph123.png,Stimuli/BlurLevel5/OriginalBlur/BlurEditedMorph123.png,Stimuli/BlurMorphTrio/EditedMorph123.png,None,None,0,0,0,0,0,60,60,122,,,61,1,61,214,-2.072593931,-1.397982259,123,427.8363812,428.3336136,427.8363812,428.3336136,82.31292517,1574382027,1574382029,2.434093714,59,136,-13,-13,1574382024,1574382027,,,CT,1,20,F,Undergrad,2019_Nov_21_1613,AdjustExp1,3.1.5,60.10029766,Experiment
94,Stimuli/Morph94.JPG,Stimuli/Morph94.png,Stimuli/BlurLevel5/BlurEditedMorph94,Stimuli/BlurLevel5/BlurEditedMorph94.png,Stimuli/BlurLevel5/NumberedMorphs/BlurEditedMorph94.png,Stimuli/BlurLevel5/OriginalBlur/BlurEditedMorph94.png,Stimuli/BlurMorphTrio/EditedMorph94.png,020286right.gif,Stimuli/normal_thumbnails/94right.gif,0,0,0,0,0,61,61,93,,,41,1,62,177,-2.496573837,0.130839891,94,432.7162837,433.2166281,432.7162837,433.2166281,82.31292517,1574382032,1574382033,1.000045061,107,107,-13,-13,1574382030,1574382032,,,CT,1,20,F,Undergrad,2019_Nov_21_1613,AdjustExp1,3.1.5,60.10029766,Experiment
24,Stimuli/Morph24.JPG,Stimuli/Morph24.png,Stimuli/BlurLevel5/BlurEditedMorph24,Stimuli/BlurLevel5/BlurEditedMorph24.png,Stimuli/BlurLevel5/NumberedMorphs/BlurEditedMorph24.png,Stimuli/BlurLevel5/OriginalBlur/BlurEditedMorph24.png,Stimuli/BlurMorphTrio/EditedMorph24.png,010068right.gif,Stimuli/normal_thumbnails/24right.gif,0,0,0,0,0,62,62,23,,,16,1,63,117,-1.134976249,2.22751631,24,436.5496747,437.0503079,436.5496747,437.0503079,2.040816327,1574382036,1574382037,1.183306932,99,99,-75,72,1574382033,1574382036,,,CT,1,20,F,Undergrad,2019_Nov_21_1613,AdjustExp1,3.1.5,60.10029766,Experiment
63,Stimuli/Morph63.JPG,Stimuli/Morph63.png,Stimuli/BlurLevel5/BlurEditedMorph63,Stimuli/BlurLevel5/BlurEditedMorph63.png,Stimuli/BlurLevel5/NumberedMorphs/BlurEditedMorph63.png,Stimuli/BlurLevel5/OriginalBlur/BlurEditedMorph63.png,Stimuli/BlurMorphTrio/EditedMorph63.png,020206right.gif,Stimuli/normal_thumbnails/63right.gif,0,0,0,0,0,63,63,62,,,80,1,64,193,-2.435925162,-0.562377636,63,440.0677041,440.5668182,440.0677041,440.5668182,76.8707483,1574382039,1574382043,3.382975817,107,46,17,17,1574382037,1574382039,,,CT,1,20,F,Undergrad,2019_Nov_21_1613,AdjustExp1,3.1.5,60.10029766,Experiment
11,Stimuli/Morph11.JPG,Stimuli/Morph11.png,Stimuli/BlurLevel5/BlurEditedMorph11,Stimuli/BlurLevel5/BlurEditedMorph11.png,Stimuli/BlurLevel5/NumberedMorphs/BlurEditedMorph11.png,Stimuli/BlurLevel5/OriginalBlur/BlurEditedMorph11.png,Stimuli/BlurMorphTrio/EditedMorph11.png,010024right.gif,Stimuli/normal_thumbnails/11right.gif,0,0,0,0,0,64,64,10,,,99,1,65,14,2.425739316,0.604804739,11,445.6999577,446.2000955,445.6999577,446.2000955,80.95238095,1574382045,1574382046,0.916371107,144,144,-133,14,1574382043,1574382045,,,CT,1,20,F,Undergrad,2019_Nov_21_1613,AdjustExp1,3.1.5,60.10029766,Experiment
103,Stimuli/Morph103.JPG,Stimuli/Morph103.png,Stimuli/BlurLevel5/BlurEditedMorph103,Stimuli/BlurLevel5/BlurEditedMorph103.png,Stimuli/BlurLevel5/NumberedMorphs/BlurEditedMorph103.png,Stimuli/BlurLevel5/OriginalBlur/BlurEditedMorph103.png,Stimuli/BlurMorphTrio/EditedMorph103.png,None,None,0,0,0,0,0,65,65,102,,,59,1,66,210,-2.165063509,-1.25,103,448.9877997,449.4829461,448.9877997,449.4829461,97.27891156,1574382048,1574382049,0.933069944,105,105,-2,-2,1574382046,1574382048,,,CT,1,20,F,Undergrad,2019_Nov_21_1613,AdjustExp1,3.1.5,60.10029766,Experiment
47,Stimuli/Morph47.JPG,Stimuli/Morph47.png,Stimuli/BlurLevel5/BlurEditedMorph47,Stimuli/BlurLevel5/BlurEditedMorph47.png,Stimuli/BlurLevel5/NumberedMorphs/BlurEditedMorph47.png,Stimuli/BlurLevel5/OriginalBlur/BlurEditedMorph47.png,Stimuli/BlurMorphTrio/EditedMorph47.png,010130right.gif,Stimuli/normal_thumbnails/47right.gif,0,0,0,0,0,66,66,46,,,99,1,67,284,0.604804739,-2.425739316,47,452.0517027,452.5495527,452.0517027,452.5495527,90.47619048,1574382051,1574382054,2.816101313,74,40,7,7,1574382049,1574382051,,,CT,1,20,F,Undergrad,2019_Nov_21_1613,AdjustExp1,3.1.5,60.10029766,Experiment
84,Stimuli/Morph84.JPG,Stimuli/Morph84.png,Stimuli/BlurLevel5/BlurEditedMorph84,Stimuli/BlurLevel5/BlurEditedMorph84.png,Stimuli/BlurLevel5/NumberedMorphs/BlurEditedMorph84.png,Stimuli/BlurLevel5/OriginalBlur/BlurEditedMorph84.png,Stimuli/BlurMorphTrio/EditedMorph84.png,020261right.gif,Stimuli/normal_thumbnails/84right.gif,0,0,0,0,0,67,67,83,,,73,1,68,59,1.287595187,2.142918252,84,457.3662354,457.8664359,457.3662354,457.8664359,55.10204082,1574382057,1574382059,2.232446909,20,117,-33,-33,1574382055,1574382057,,,CT,1,20,F,Undergrad,2019_Nov_21_1613,AdjustExp1,3.1.5,60.10029766,Experiment
54,Stimuli/Morph54.JPG,Stimuli/Morph54.png,Stimuli/BlurLevel5/BlurEditedMorph54,Stimuli/BlurLevel5/BlurEditedMorph54.png,Stimuli/BlurLevel5/NumberedMorphs/BlurEditedMorph54.png,Stimuli/BlurLevel5/OriginalBlur/BlurEditedMorph54.png,Stimuli/BlurMorphTrio/EditedMorph54.png,010150right.gif,Stimuli/normal_thumbnails/54right.gif,0,0,0,0,0,68,68,53,,,59,1,69,179,-2.499619238,0.043631016,54,461.7003663,462.1995632,461.7003663,462.1995632,89.11564626,1574382061,1574382065,3.733654737,20,62,-8,-8,1574382059,1574382061,,,CT,1,20,F,Undergrad,2019_Nov_21_1613,AdjustExp1,3.1.5,60.10029766,Experiment
62,Stimuli/Morph62.JPG,Stimuli/Morph62.png,Stimuli/BlurLevel5/BlurEditedMorph62,Stimuli/BlurLevel5/BlurEditedMorph62.png,Stimuli/BlurLevel5/NumberedMorphs/BlurEditedMorph62.png,Stimuli/BlurLevel5/OriginalBlur/BlurEditedMorph62.png,Stimuli/BlurMorphTrio/EditedMorph62.png,020205right.gif,Stimuli/normal_thumbnails/62right.gif,0,0,0,0,0,69,69,61,,,44,1,70,324,2.022542486,-1.469463131,62,467.7727601,468.2659062,467.7727601,468.2659062,95.91836735,1574382067,1574382069,2.448913813,89,59,3,3,1574382065,1574382067,,,CT,1,20,F,Undergrad,2019_Nov_21_1613,AdjustExp1,3.1.5,60.10029766,Experiment
87,Stimuli/Morph87.JPG,Stimuli/Morph87.png,Stimuli/BlurLevel5/BlurEditedMorph87,Stimuli/BlurLevel5/BlurEditedMorph87.png,Stimuli/BlurLevel5/NumberedMorphs/BlurEditedMorph87.png,Stimuli/BlurLevel5/OriginalBlur/BlurEditedMorph87.png,Stimuli/BlurMorphTrio/EditedMorph87.png,020270right.gif,Stimuli/normal_thumbnails/87right.gif,0,0,0,0,0,70,70,86,,,78,1,71,176,-2.493910126,0.174391184,87,472.4376803,472.9326362,472.4376803,472.9326362,78.23129252,1574382072,1574382077,5.016773939,62,103,-16,-16,1574382070,1574382072,,,CT,1,20,F,Undergrad,2019_Nov_21_1613,AdjustExp1,3.1.5,60.10029766,Experiment
114,Stimuli/Morph114.JPG,Stimuli/Morph114.png,Stimuli/BlurLevel5/BlurEditedMorph114,Stimuli/BlurLevel5/BlurEditedMorph114.png,Stimuli/BlurLevel5/NumberedMorphs/BlurEditedMorph114.png,Stimuli/BlurLevel5/OriginalBlur/BlurEditedMorph114.png,Stimuli/BlurMorphTrio/EditedMorph114.png,None,None,0,0,0,0,0,71,71,113,,,5,1,72,317,1.828384254,-1.7049959,114,479.9853794,480.4825928,479.9853794,480.4825928,98.63945578,1574382079,1574382081,1.617114305,120,113,1,1,1574382077,1574382079,,,CT,1,20,F,Undergrad,2019_Nov_21_1613,AdjustExp1,3.1.5,60.10029766,Experiment
102,Stimuli/Morph102.JPG,Stimuli/Morph102.png,Stimuli/BlurLevel5/BlurEditedMorph102,Stimuli/BlurLevel5/BlurEditedMorph102.png,Stimuli/BlurLevel5/NumberedMorphs/BlurEditedMorph102.png,Stimuli/BlurLevel5/OriginalBlur/BlurEditedMorph102.png,Stimuli/BlurMorphTrio/EditedMorph102.png,None,None,0,0,0,0,0,72,72,101,,,30,1,73,324,2.022542486,-1.469463131,102,484.2490662,484.748951,484.2490662,484.748951,95.91836735,1574382083,1574382088,4.46739006,87,99,3,3,1574382081,1574382083,,,CT,1,20,F,Undergrad,2019_Nov_21_1613,AdjustExp1,3.1.5,60.10029766,Experiment
137,Stimuli/Morph137.JPG,Stimuli/Morph137.png,Stimuli/BlurLevel5/BlurEditedMorph137,Stimuli/BlurLevel5/BlurEditedMorph137.png,Stimuli/BlurLevel5/NumberedMorphs/BlurEditedMorph137.png,Stimuli/BlurLevel5/OriginalBlur/BlurEditedMorph137.png,Stimuli/BlurMorphTrio/EditedMorph137.png,None,None,0,0,0,0,0,73,73,136,,,31,1,74,301,1.287595187,-2.142918252,137,491.3317647,491.8326688,491.3317647,491.8326688,87.75510204,1574382091,1574382094,3.39973712,29,146,-9,-9,1574382088,1574382091,,,CT,1,20,F,Undergrad,2019_Nov_21_1613,AdjustExp1,3.1.5,60.10029766,Experiment
73,Stimuli/Morph73.JPG,Stimuli/Morph73.png,Stimuli/BlurLevel5/BlurEditedMorph73,Stimuli/BlurLevel5/BlurEditedMorph73.png,Stimuli/BlurLevel5/NumberedMorphs/BlurEditedMorph73.png,Stimuli/BlurLevel5/OriginalBlur/BlurEditedMorph73.png,Stimuli/BlurMorphTrio/EditedMorph73.png,020230right.gif,Stimuli/normal_thumbnails/73right.gif,0,0,0,0,0,74,74,72,,,23,1,75,243,-1.134976249,-2.22751631,73,497.3822352,497.8822771,497.3822352,497.8822771,97.27891156,1574382097,1574382101,3.950011969,7,75,-2,-2,1574382094,1574382097,,,CT,1,20,F,Undergrad,2019_Nov_21_1613,AdjustExp1,3.1.5,60.10029766,Experiment
12,Stimuli/Morph12.JPG,Stimuli/Morph12.png,Stimuli/BlurLevel5/BlurEditedMorph12,Stimuli/BlurLevel5/BlurEditedMorph12.png,Stimuli/BlurLevel5/NumberedMorphs/BlurEditedMorph12.png,Stimuli/BlurLevel5/OriginalBlur/BlurEditedMorph12.png,Stimuli/BlurMorphTrio/EditedMorph12.png,010026right.gif,Stimuli/normal_thumbnails/12right.gif,0,0,0,0,0,75,75,11,,,45,1,76,263,-0.304673359,-2.481365379,12,503.7656595,504.2657166,503.7656595,504.2657166,98.63945578,1574382103,1574382105,2.483088017,87,13,-1,-1,1574382101,1574382103,,,CT,1,20,F,Undergrad,2019_Nov_21_1613,AdjustExp1,3.1.5,60.10029766,Experiment
100,Stimuli/Morph100.JPG,Stimuli/Morph100.png,Stimuli/BlurLevel5/BlurEditedMorph100,Stimuli/BlurLevel5/BlurEditedMorph100.png,Stimuli/BlurLevel5/NumberedMorphs/BlurEditedMorph100.png,Stimuli/BlurLevel5/OriginalBlur/BlurEditedMorph100.png,Stimuli/BlurMorphTrio/EditedMorph100.png,020297right.gif,Stimuli/normal_thumbnails/100right.gif,0,0,0,0,0,76,76,99,,,81,1,77,158,-2.317959636,0.936516484,100,508.455429,508.9483564,508.455429,508.9483564,85.03401361,1574382108,1574382110,2.716048002,52,111,-11,-11,1574382106,1574382108,,,CT,1,20,F,Undergrad,2019_Nov_21_1613,AdjustExp1,3.1.5,60.10029766,Experiment
122,Stimuli/Morph122.JPG,Stimuli/Morph122.png,Stimuli/BlurLevel5/BlurEditedMorph122,Stimuli/BlurLevel5/BlurEditedMorph122.png,Stimuli/BlurLevel5/NumberedMorphs/BlurEditedMorph122.png,Stimuli/BlurLevel5/OriginalBlur/BlurEditedMorph122.png,Stimuli/BlurMorphTrio/EditedMorph122.png,None,None,0,0,0,0,0,77,77,121,,,13,1,78,110,-0.855050358,2.349231552,122,513.7154333,514.215696,513.7154333,514.215696,95.91836735,1574382113,1574382115,2.248774767,10,125,-3,-3,1574382111,1574382113,,,CT,1,20,F,Undergrad,2019_Nov_21_1613,AdjustExp1,3.1.5,60.10029766,Experiment
127,Stimuli/Morph127.JPG,Stimuli/Morph127.png,Stimuli/BlurLevel5/BlurEditedMorph127,Stimuli/BlurLevel5/BlurEditedMorph127.png,Stimuli/BlurLevel5/NumberedMorphs/BlurEditedMorph127.png,Stimuli/BlurLevel5/OriginalBlur/BlurEditedMorph127.png,Stimuli/BlurMorphTrio/EditedMorph127.png,None,None,0,0,0,0,0,78,78,126,,,82,1,79,263,-0.304673359,-2.481365379,127,518.3654963,518.8656452,518.3654963,518.8656452,90.47619048,1574382118,1574382122,3.983082056,82,120,7,7,1574382115,1574382118,,,CT,1,20,F,Undergrad,2019_Nov_21_1613,AdjustExp1,3.1.5,60.10029766,Experiment
99,Stimuli/Morph99.JPG,Stimuli/Morph99.png,Stimuli/BlurLevel5/BlurEditedMorph99,Stimuli/BlurLevel5/BlurEditedMorph99.png,Stimuli/BlurLevel5/NumberedMorphs/BlurEditedMorph99.png,Stimuli/BlurLevel5/OriginalBlur/BlurEditedMorph99.png,Stimuli/BlurMorphTrio/EditedMorph99.png,020299right.gif,Stimuli/normal_thumbnails/99right.gif,0,0,0,0,0,79,79,98,,,42,1,80,106,-0.68909339,2.40315424,99,525.3043312,525.7988132,525.3043312,525.7988132,87.75510204,1574382124,1574382127,2.999293327,40,108,-9,-9,1574382122,1574382124,,,CT,1,20,F,Undergrad,2019_Nov_21_1613,AdjustExp1,3.1.5,60.10029766,Experiment
6,Stimuli/Morph6.JPG,Stimuli/Morph6.png,Stimuli/BlurLevel5/BlurEditedMorph6,Stimuli/BlurLevel5/BlurEditedMorph6.png,Stimuli/BlurLevel5/NumberedMorphs/BlurEditedMorph6.png,Stimuli/BlurLevel5/OriginalBlur/BlurEditedMorph6.png,Stimuli/BlurMorphTrio/EditedMorph6.png,010012right.gif,Stimuli/normal_thumbnails/6right.gif,0,0,0,0,0,80,80,5,,,10,1,81,28,2.207368982,1.173678907,6,530.8706008,531.364987,530.8706008,531.364987,83.67346939,1574382130,1574382132,1.667499065,122,141,-135,12,1574382128,1574382130,,,CT,1,20,F,Undergrad,2019_Nov_21_1613,AdjustExp1,3.1.5,60.10029766,Experiment
82,Stimuli/Morph82.JPG,Stimuli/Morph82.png,Stimuli/BlurLevel5/BlurEditedMorph82,Stimuli/BlurLevel5/BlurEditedMorph82.png,Stimuli/BlurLevel5/NumberedMorphs/BlurEditedMorph82.png,Stimuli/BlurLevel5/OriginalBlur/BlurEditedMorph82.png,Stimuli/BlurMorphTrio/EditedMorph82.png,020247right.gif,Stimuli/normal_thumbnails/82right.gif,0,0,0,0,0,81,81,81,,,75,1,82,178,-2.498477068,0.087248742,82,534.9987761,535.4988549,534.9987761,535.4988549,89.11564626,1574382134,1574382136,1.684366703,124,90,-8,-8,1574382132,1574382134,,,CT,1,20,F,Undergrad,2019_Nov_21_1613,AdjustExp1,3.1.5,60.10029766,Experiment
95,Stimuli/Morph95.JPG,Stimuli/Morph95.png,Stimuli/BlurLevel5/BlurEditedMorph95,Stimuli/BlurLevel5/BlurEditedMorph95.png,Stimuli/BlurLevel5/NumberedMorphs/BlurEditedMorph95.png,Stimuli/BlurLevel5/OriginalBlur/BlurEditedMorph95.png,Stimuli/BlurMorphTrio/EditedMorph95.png,020287right.gif,Stimuli/normal_thumbnails/95right.gif,0,0,0,0,0,82,82,94,,,25,1,83,269,-0.043631016,-2.499619238,95,539.1175196,539.6150391,539.1175196,539.6150391,85.03401361,1574382138,1574382142,3.832743168,47,106,-11,-11,1574382136,1574382138,,,CT,1,20,F,Undergrad,2019_Nov_21_1613,AdjustExp1,3.1.5,60.10029766,Experiment
37,Stimuli/Morph37.JPG,Stimuli/Morph37.png,Stimuli/BlurLevel5/BlurEditedMorph37,Stimuli/BlurLevel5/BlurEditedMorph37.png,Stimuli/BlurLevel5/NumberedMorphs/BlurEditedMorph37.png,Stimuli/BlurLevel5/OriginalBlur/BlurEditedMorph37.png,Stimuli/BlurMorphTrio/EditedMorph37.png,010097right.gif,Stimuli/normal_thumbnails/37right.gif,0,0,0,0,0,83,83,36,,,61,1,84,6,2.486304738,0.261321158,37,545.684375,546.1815265,545.684375,546.1815265,52.38095238,1574382145,1574382150,4.64934206,57,2,35,35,1574382142,1574382145,,,CT,1,20,F,Undergrad,2019_Nov_21_1613,AdjustExp1,3.1.5,60.10029766,Experiment
15,Stimuli/Morph15.JPG,Stimuli/Morph15.png,Stimuli/BlurLevel5/BlurEditedMorph15,Stimuli/BlurLevel5/BlurEditedMorph15.png,Stimuli/BlurLevel5/NumberedMorphs/BlurEditedMorph15.png,Stimuli/BlurLevel5/OriginalBlur/BlurEditedMorph15.png,Stimuli/BlurMorphTrio/EditedMorph15.png,010031right.gif,Stimuli/normal_thumbnails/15right.gif,0,0,0,0,0,84,84,14,,,24,1,85,30,2.165063509,1.25,15,553.0343769,553.5317245,553.0343769,553.5317245,89.11564626,1574382152,1574382159,6.43302989,137,7,8,8,1574382150,1574382152,,,CT,1,20,F,Undergrad,2019_Nov_21_1613,AdjustExp1,3.1.5,60.10029766,Experiment
143,Stimuli/Morph143.JPG,Stimuli/Morph143.png,Stimuli/BlurLevel5/BlurEditedMorph143,Stimuli/BlurLevel5/BlurEditedMorph143.png,Stimuli/BlurLevel5/NumberedMorphs/BlurEditedMorph143.png,Stimuli/BlurLevel5/OriginalBlur/BlurEditedMorph143.png,Stimuli/BlurMorphTrio/EditedMorph143.png,None,None,1,0,1,0,0,0,0,142,,,34,2,1,64,1.095927867,2.246985116,143,589.2303189,589.7306872,589.2303189,589.7306872,95.91836735,1574382188,1574382191,2.166735172,53,146,-3,-3,1574382186,1574382188,space,27.1167001,CT,1,20,F,Undergrad,2019_Nov_21_1613,AdjustExp1,3.1.5,60.10029766,Experiment
67,Stimuli/Morph67.JPG,Stimuli/Morph67.png,Stimuli/BlurLevel5/BlurEditedMorph67,Stimuli/BlurLevel5/BlurEditedMorph67.png,Stimuli/BlurLevel5/NumberedMorphs/BlurEditedMorph67.png,Stimuli/BlurLevel5/OriginalBlur/BlurEditedMorph67.png,Stimuli/BlurMorphTrio/EditedMorph67.png,020217right.gif,Stimuli/normal_thumbnails/67right.gif,1,0,1,0,0,1,1,66,,,17,2,2,333,2.22751631,-1.134976249,67,593.9310056,594.4309319,593.9310056,594.4309319,93.19727891,1574382193,1574382196,3.183381081,61,62,5,5,1574382191,1574382193,,,CT,1,20,F,Undergrad,2019_Nov_21_1613,AdjustExp1,3.1.5,60.10029766,Experiment
53,Stimuli/Morph53.JPG,Stimuli/Morph53.png,Stimuli/BlurLevel5/BlurEditedMorph53,Stimuli/BlurLevel5/BlurEditedMorph53.png,Stimuli/BlurLevel5/NumberedMorphs/BlurEditedMorph53.png,Stimuli/BlurLevel5/OriginalBlur/BlurEditedMorph53.png,Stimuli/BlurMorphTrio/EditedMorph53.png,010149right.gif,Stimuli/normal_thumbnails/53right.gif,1,0,1,0,0,2,2,52,,,30,2,3,246,-1.016841608,-2.283863644,53,599.7637054,600.2646324,599.7637054,600.2646324,80.95238095,1574382199,1574382205,6.482750893,21,67,-14,-14,1574382197,1574382199,,,CT,1,20,F,Undergrad,2019_Nov_21_1613,AdjustExp1,3.1.5,60.10029766,Experiment
76,Stimuli/Morph76.JPG,Stimuli/Morph76.png,Stimuli/BlurLevel5/BlurEditedMorph76,Stimuli/BlurLevel5/BlurEditedMorph76.png,Stimuli/BlurLevel5/NumberedMorphs/BlurEditedMorph76.png,Stimuli/BlurLevel5/OriginalBlur/BlurEditedMorph76.png,Stimuli/BlurMorphTrio/EditedMorph76.png,020234right.gif,Stimuli/normal_thumbnails/76right.gif,1,0,1,0,0,3,3,75,,,42,2,4,165,-2.414814566,0.647047613,76,609.1708463,609.6645363,609.1708463,609.6645363,94.55782313,1574382208,1574382211,3.067418098,125,72,4,4,1574382206,1574382208,,,CT,1,20,F,Undergrad,2019_Nov_21_1613,AdjustExp1,3.1.5,60.10029766,Experiment
147,Stimuli/Morph147.JPG,Stimuli/Morph147.png,Stimuli/BlurLevel5/BlurEditedMorph147,Stimuli/BlurLevel5/BlurEditedMorph147.png,Stimuli/BlurLevel5/NumberedMorphs/BlurEditedMorph147.png,Stimuli/BlurLevel5/OriginalBlur/BlurEditedMorph147.png,Stimuli/BlurMorphTrio/EditedMorph147.png,None,None,1,0,1,0,0,4,4,146,,,31,2,5,228,-1.672826516,-1.857862064,147,614.9162155,615.4137012,614.9162155,615.4137012,97.27891156,1574382214,1574382217,3.200113058,92,2,145,-2,1574382212,1574382214,,,CT,1,20,F,Undergrad,2019_Nov_21_1613,AdjustExp1,3.1.5,60.10029766,Experiment
85,Stimuli/Morph85.JPG,Stimuli/Morph85.png,Stimuli/BlurLevel5/BlurEditedMorph85,Stimuli/BlurLevel5/BlurEditedMorph85.png,Stimuli/BlurLevel5/NumberedMorphs/BlurEditedMorph85.png,Stimuli/BlurLevel5/OriginalBlur/BlurEditedMorph85.png,Stimuli/BlurMorphTrio/EditedMorph85.png,020264right.gif,Stimuli/normal_thumbnails/85right.gif,1,0,1,0,0,5,5,84,,,8,2,6,221,-1.886773951,-1.640147572,85,620.8636807,621.3635319,620.8636807,621.3635319,87.75510204,1574382220,1574382232,11.49942875,22,94,-9,-9,1574382218,1574382220,,,CT,1,20,F,Undergrad,2019_Nov_21_1613,AdjustExp1,3.1.5,60.10029766,Experiment
91,Stimuli/Morph91.JPG,Stimuli/Morph91.png,Stimuli/BlurLevel5/BlurEditedMorph91,Stimuli/BlurLevel5/BlurEditedMorph91.png,Stimuli/BlurLevel5/NumberedMorphs/BlurEditedMorph91.png,Stimuli/BlurLevel5/OriginalBlur/BlurEditedMorph91.png,Stimuli/BlurMorphTrio/EditedMorph91.png,020276right.gif,Stimuli/normal_thumbnails/91right.gif,1,0,1,0,0,6,6,90,,,92,2,7,87,0.130839891,2.496573837,91,634.9466964,635.4473632,634.9466964,635.4473632,74.14965986,1574382234,1574382238,3.431440115,35,110,-19,-19,1574382232,1574382234,,,CT,1,20,F,Undergrad,2019_Nov_21_1613,AdjustExp1,3.1.5,60.10029766,Experiment
146,Stimuli/Morph146.JPG,Stimuli/Morph146.png,Stimuli/BlurLevel5/BlurEditedMorph146,Stimuli/BlurLevel5/BlurEditedMorph146.png,Stimuli/BlurLevel5/NumberedMorphs/BlurEditedMorph146.png,Stimuli/BlurLevel5/OriginalBlur/BlurEditedMorph146.png,Stimuli/BlurMorphTrio/EditedMorph146.png,None,None,1,0,1,0,0,7,7,145,,,78,2,8,314,1.736645926,-1.798349501,146,640.6372572,641.1301904,640.6372572,641.1301904,98.63945578,1574382240,1574382242,2.399459124,112,145,1,1,1574382238,1574382240,,,CT,1,20,F,Undergrad,2019_Nov_21_1613,AdjustExp1,3.1.5,60.10029766,Experiment
73,Stimuli/Morph73.JPG,Stimuli/Morph73.png,Stimuli/BlurLevel5/BlurEditedMorph73,Stimuli/BlurLevel5/BlurEditedMorph73.png,Stimuli/BlurLevel5/NumberedMorphs/BlurEditedMorph73.png,Stimuli/BlurLevel5/OriginalBlur/BlurEditedMorph73.png,Stimuli/BlurMorphTrio/EditedMorph73.png,020230right.gif,Stimuli/normal_thumbnails/73right.gif,1,0,1,0,0,8,8,72,,,58,2,9,90,1.53E-16,2.5,73,645.4795799,645.9801384,645.4795799,645.9801384,85.03401361,1574382245,1574382249,4.133597851,102,84,-11,-11,1574382242,1574382245,,,CT,1,20,F,Undergrad,2019_Nov_21_1613,AdjustExp1,3.1.5,60.10029766,Experiment
120,Stimuli/Morph120.JPG,Stimuli/Morph120.png,Stimuli/BlurLevel5/BlurEditedMorph120,Stimuli/BlurLevel5/BlurEditedMorph120.png,Stimuli/BlurLevel5/NumberedMorphs/BlurEditedMorph120.png,Stimuli/BlurLevel5/OriginalBlur/BlurEditedMorph120.png,Stimuli/BlurMorphTrio/EditedMorph120.png,None,None,1,0,1,0,0,9,9,119,,,4,2,10,165,-2.414814566,0.647047613,120,652.5667151,653.0639173,652.5667151,653.0639173,98.63945578,1574382252,1574382257,4.750707865,48,121,-1,-1,1574382249,1574382252,,,CT,1,20,F,Undergrad,2019_Nov_21_1613,AdjustExp1,3.1.5,60.10029766,Experiment
107,Stimuli/Morph107.JPG,Stimuli/Morph107.png,Stimuli/BlurLevel5/BlurEditedMorph107,Stimuli/BlurLevel5/BlurEditedMorph107.png,Stimuli/BlurLevel5/NumberedMorphs/BlurEditedMorph107.png,Stimuli/BlurLevel5/OriginalBlur/BlurEditedMorph107.png,Stimuli/BlurMorphTrio/EditedMorph107.png,None,None,1,0,1,0,0,10,10,106,,,81,2,11,257,-0.562377636,-2.435925162,107,659.7166779,660.2136016,659.7166779,660.2136016,100,1574382259,1574382261,1.799645901,121,107,0,0,1574382257,1574382259,,,CT,1,20,F,Undergrad,2019_Nov_21_1613,AdjustExp1,3.1.5,60.10029766,Experiment
34,Stimuli/Morph34.JPG,Stimuli/Morph34.png,Stimuli/BlurLevel5/BlurEditedMorph34,Stimuli/BlurLevel5/BlurEditedMorph34.png,Stimuli/BlurLevel5/NumberedMorphs/BlurEditedMorph34.png,Stimuli/BlurLevel5/OriginalBlur/BlurEditedMorph34.png,Stimuli/BlurMorphTrio/EditedMorph34.png,010090right.gif,Stimuli/normal_thumbnails/34right.gif,1,0,1,0,0,11,11,33,,,13,2,12,211,-2.142918252,-1.287595187,34,664.4200683,664.9132193,664.4200683,664.9132193,60.54421769,1574382264,1574382267,2.966170073,125,5,29,29,1574382261,1574382264,,,CT,1,20,F,Undergrad,2019_Nov_21_1613,AdjustExp1,3.1.5,60.10029766,Experiment
141,Stimuli/Morph141.JPG,Stimuli/Morph141.png,Stimuli/BlurLevel5/BlurEditedMorph141,Stimuli/BlurLevel5/BlurEditedMorph141.png,Stimuli/BlurLevel5/NumberedMorphs/BlurEditedMorph141.png,Stimuli/BlurLevel5/OriginalBlur/BlurEditedMorph141.png,Stimuli/BlurMorphTrio/EditedMorph141.png,None,None,1,0,1,0,0,12,12,140,,,30,2,13,17,2.39076189,0.730929262,141,669.9348824,670.446542,669.9348824,670.446542,95.91836735,1574382269,1574382274,4.433462143,44,138,3,3,1574382267,1574382269,,,CT,1,20,F,Undergrad,2019_Nov_21_1613,AdjustExp1,3.1.5,60.10029766,Experiment
23,Stimuli/Morph23.JPG,Stimuli/Morph23.png,Stimuli/BlurLevel5/BlurEditedMorph23,Stimuli/BlurLevel5/BlurEditedMorph23.png,Stimuli/BlurLevel5/NumberedMorphs/BlurEditedMorph23.png,Stimuli/BlurLevel5/OriginalBlur/BlurEditedMorph23.png,Stimuli/BlurMorphTrio/EditedMorph23.png,010063right.gif,Stimuli/normal_thumbnails/23right.gif,1,0,1,0,0,13,13,22,,,60,2,14,21,2.333951066,0.895919874,23,677.2145803,677.7136669,677.2145803,677.7136669,97.27891156,1574382276,1574382280,3.131911039,66,25,-2,-2,1574382274,1574382276,,,CT,1,20,F,Undergrad,2019_Nov_21_1613,AdjustExp1,3.1.5,60.10029766,Experiment
68,Stimuli/Morph68.JPG,Stimuli/Morph68.png,Stimuli/BlurLevel5/BlurEditedMorph68,Stimuli/BlurLevel5/BlurEditedMorph68.png,Stimuli/BlurLevel5/NumberedMorphs/BlurEditedMorph68.png,Stimuli/BlurLevel5/OriginalBlur/BlurEditedMorph68.png,Stimuli/BlurMorphTrio/EditedMorph68.png,020218right.gif,Stimuli/normal_thumbnails/68right.gif,1,0,1,0,0,14,14,67,,,46,2,15,57,1.361597588,2.09667642,68,682.8332855,683.3295985,682.8332855,683.3295985,75.51020408,1574382282,1574382285,2.899218798,78,86,-18,-18,1574382280,1574382282,,,CT,1,20,F,Undergrad,2019_Nov_21_1613,AdjustExp1,3.1.5,60.10029766,Experiment
99,Stimuli/Morph99.JPG,Stimuli/Morph99.png,Stimuli/BlurLevel5/BlurEditedMorph99,Stimuli/BlurLevel5/BlurEditedMorph99.png,Stimuli/BlurLevel5/NumberedMorphs/BlurEditedMorph99.png,Stimuli/BlurLevel5/OriginalBlur/BlurEditedMorph99.png,Stimuli/BlurMorphTrio/EditedMorph99.png,020299right.gif,Stimuli/normal_thumbnails/99right.gif,1,0,1,0,0,15,15,98,,,34,2,16,359,2.499619238,-0.043631016,99,688.665973,689.1628838,688.665973,689.1628838,91.83673469,1574382288,1574382291,2.699466944,93,93,6,6,1574382285,1574382288,,,CT,1,20,F,Undergrad,2019_Nov_21_1613,AdjustExp1,3.1.5,60.10029766,Experiment
47,Stimuli/Morph47.JPG,Stimuli/Morph47.png,Stimuli/BlurLevel5/BlurEditedMorph47,Stimuli/BlurLevel5/BlurEditedMorph47.png,Stimuli/BlurLevel5/NumberedMorphs/BlurEditedMorph47.png,Stimuli/BlurLevel5/OriginalBlur/BlurEditedMorph47.png,Stimuli/BlurMorphTrio/EditedMorph47.png,010130right.gif,Stimuli/normal_thumbnails/47right.gif,1,0,1,0,0,16,16,46,,,92,2,17,318,1.857862064,-1.672826516,47,694.0841897,694.5798141,694.0841897,694.5798141,97.27891156,1574382293,1574382296,3.016013861,37,45,2,2,1574382291,1574382293,,,CT,1,20,F,Undergrad,2019_Nov_21_1613,AdjustExp1,3.1.5,60.10029766,Experiment
57,Stimuli/Morph57.JPG,Stimuli/Morph57.png,Stimuli/BlurLevel5/BlurEditedMorph57,Stimuli/BlurLevel5/BlurEditedMorph57.png,Stimuli/BlurLevel5/NumberedMorphs/BlurEditedMorph57.png,Stimuli/BlurLevel5/OriginalBlur/BlurEditedMorph57.png,Stimuli/BlurMorphTrio/EditedMorph57.png,010158right.gif,Stimuli/normal_thumbnails/57right.gif,1,0,1,0,0,17,17,56,,,49,2,18,181,-2.499619238,-0.043631016,57,699.5137227,700.013299,699.5137227,700.013299,93.19727891,1574382299,1574382302,3.599225998,48,62,-5,-5,1574382297,1574382299,,,CT,1,20,F,Undergrad,2019_Nov_21_1613,AdjustExp1,3.1.5,60.10029766,Experiment
109,Stimuli/Morph109.JPG,Stimuli/Morph109.png,Stimuli/BlurLevel5/BlurEditedMorph109,Stimuli/BlurLevel5/BlurEditedMorph109.png,Stimuli/BlurLevel5/NumberedMorphs/BlurEditedMorph109.png,Stimuli/BlurLevel5/OriginalBlur/BlurEditedMorph109.png,Stimuli/BlurMorphTrio/EditedMorph109.png,None,None,1,0,1,0,0,18,18,108,,,53,2,19,211,-2.142918252,-1.287595187,109,705.9801555,706.4793905,705.9801555,706.4793905,98.63945578,1574382305,1574382309,3.350111008,112,110,-1,-1,1574382303,1574382305,,,CT,1,20,F,Undergrad,2019_Nov_21_1613,AdjustExp1,3.1.5,60.10029766,Experiment
74,Stimuli/Morph74.JPG,Stimuli/Morph74.png,Stimuli/BlurLevel5/BlurEditedMorph74,Stimuli/BlurLevel5/BlurEditedMorph74.png,Stimuli/BlurLevel5/NumberedMorphs/BlurEditedMorph74.png,Stimuli/BlurLevel5/OriginalBlur/BlurEditedMorph74.png,Stimuli/BlurMorphTrio/EditedMorph74.png,020232right.gif,Stimuli/normal_thumbnails/74right.gif,1,0,1,0,0,19,19,73,,,10,2,20,234,-1.469463131,-2.022542486,74,711.962648,712.4631004,711.962648,712.4631004,97.27891156,1574382311,1574382316,4.364917755,17,72,2,2,1574382309,1574382311,,,CT,1,20,F,Undergrad,2019_Nov_21_1613,AdjustExp1,3.1.5,60.10029766,Experiment
119,Stimuli/Morph119.JPG,Stimuli/Morph119.png,Stimuli/BlurLevel5/BlurEditedMorph119,Stimuli/BlurLevel5/BlurEditedMorph119.png,Stimuli/BlurLevel5/NumberedMorphs/BlurEditedMorph119.png,Stimuli/BlurLevel5/OriginalBlur/BlurEditedMorph119.png,Stimuli/BlurMorphTrio/EditedMorph119.png,None,None,1,0,1,0,0,20,20,118,,,52,2,21,172,-2.475670172,0.347932752,119,718.912989,719.4129782,718.912989,719.4129782,98.63945578,1574382318,1574382321,3.133780003,30,120,-1,-1,1574382316,1574382318,,,CT,1,20,F,Undergrad,2019_Nov_21_1613,AdjustExp1,3.1.5,60.10029766,Experiment
94,Stimuli/Morph94.JPG,Stimuli/Morph94.png,Stimuli/BlurLevel5/BlurEditedMorph94,Stimuli/BlurLevel5/BlurEditedMorph94.png,Stimuli/BlurLevel5/NumberedMorphs/BlurEditedMorph94.png,Stimuli/BlurLevel5/OriginalBlur/BlurEditedMorph94.png,Stimuli/BlurMorphTrio/EditedMorph94.png,020286right.gif,Stimuli/normal_thumbnails/94right.gif,1,0,1,0,0,21,21,93,,,12,2,22,99,-0.391086163,2.469220851,94,725.0128853,725.5129999,725.0128853,725.5129999,71.42857143,1574382324,1574382330,5.684145927,127,115,-21,-21,1574382322,1574382324,,,CT,1,20,F,Undergrad,2019_Nov_21_1613,AdjustExp1,3.1.5,60.10029766,Experiment
77,Stimuli/Morph77.JPG,Stimuli/Morph77.png,Stimuli/BlurLevel5/BlurEditedMorph77,Stimuli/BlurLevel5/BlurEditedMorph77.png,Stimuli/BlurLevel5/NumberedMorphs/BlurEditedMorph77.png,Stimuli/BlurLevel5/OriginalBlur/BlurEditedMorph77.png,Stimuli/BlurMorphTrio/EditedMorph77.png,020235right.gif,Stimuli/normal_thumbnails/77right.gif,1,0,1,0,0,22,22,76,,,35,2,23,348,2.445369002,-0.519779227,77,733.2861868,733.7789165,733.2861868,733.7789165,97.27891156,1574382332,1574382335,2.582990885,131,75,2,2,1574382330,1574382332,,,CT,1,20,F,Undergrad,2019_Nov_21_1613,AdjustExp1,3.1.5,60.10029766,Experiment
66,Stimuli/Morph66.JPG,Stimuli/Morph66.png,Stimuli/BlurLevel5/BlurEditedMorph66,Stimuli/BlurLevel5/BlurEditedMorph66.png,Stimuli/BlurLevel5/NumberedMorphs/BlurEditedMorph66.png,Stimuli/BlurLevel5/OriginalBlur/BlurEditedMorph66.png,Stimuli/BlurMorphTrio/EditedMorph66.png,020212right.gif,Stimuli/normal_thumbnails/66right.gif,1,0,1,0,0,23,23,65,,,84,2,24,88,0.087248742,2.498477068,66,738.1487257,738.6461332,738.1487257,738.6461332,89.11564626,1574382337,1574382340,2.500479937,110,74,-8,-8,1574382335,1574382337,,,CT,1,20,F,Undergrad,2019_Nov_21_1613,AdjustExp1,3.1.5,60.10029766,Experiment
22,Stimuli/Morph22.JPG,Stimuli/Morph22.png,Stimuli/BlurLevel5/BlurEditedMorph22,Stimuli/BlurLevel5/BlurEditedMorph22.png,Stimuli/BlurLevel5/NumberedMorphs/BlurEditedMorph22.png,Stimuli/BlurLevel5/OriginalBlur/BlurEditedMorph22.png,Stimuli/BlurMorphTrio/EditedMorph22.png,010055right.gif,Stimuli/normal_thumbnails/22right.gif,1,0,1,0,0,24,24,21,,,2,2,25,153,-2.22751631,1.134976249,22,743.2453476,743.7457423,743.2453476,743.7457423,93.19727891,1574382342,1574382346,3.450034857,16,17,5,5,1574382340,1574382342,,,CT,1,20,F,Undergrad,2019_Nov_21_1613,AdjustExp1,3.1.5,60.10029766,Experiment
103,Stimuli/Morph103.JPG,Stimuli/Morph103.png,Stimuli/BlurLevel5/BlurEditedMorph103,Stimuli/BlurLevel5/BlurEditedMorph103.png,Stimuli/BlurLevel5/NumberedMorphs/BlurEditedMorph103.png,Stimuli/BlurLevel5/OriginalBlur/BlurEditedMorph103.png,Stimuli/BlurMorphTrio/EditedMorph103.png,None,None,1,0,1,0,0,25,25,102,,,65,2,26,348,2.445369002,-0.519779227,103,749.3981417,749.896007,749.3981417,749.896007,83.67346939,1574382349,1574382351,2.250030994,7,115,-12,-12,1574382346,1574382349,,,CT,1,20,F,Undergrad,2019_Nov_21_1613,AdjustExp1,3.1.5,60.10029766,Experiment
139,Stimuli/Morph139.JPG,Stimuli/Morph139.png,Stimuli/BlurLevel5/BlurEditedMorph139,Stimuli/BlurLevel5/BlurEditedMorph139.png,Stimuli/BlurLevel5/NumberedMorphs/BlurEditedMorph139.png,Stimuli/BlurLevel5/OriginalBlur/BlurEditedMorph139.png,Stimuli/BlurMorphTrio/EditedMorph139.png,None,None,1,0,1,0,0,26,26,138,,,65,2,27,100,-0.434120444,2.462019383,139,754.0809882,754.5792342,754.0809882,754.5792342,86.39455782,1574382353,1574382358,4.83351922,32,129,10,10,1574382351,1574382353,,,CT,1,20,F,Undergrad,2019_Nov_21_1613,AdjustExp1,3.1.5,60.10029766,Experiment
48,Stimuli/Morph48.JPG,Stimuli/Morph48.png,Stimuli/BlurLevel5/BlurEditedMorph48,Stimuli/BlurLevel5/BlurEditedMorph48.png,Stimuli/BlurLevel5/NumberedMorphs/BlurEditedMorph48.png,Stimuli/BlurLevel5/OriginalBlur/BlurEditedMorph48.png,Stimuli/BlurMorphTrio/EditedMorph48.png,010131right.gif,Stimuli/normal_thumbnails/48right.gif,1,0,1,0,0,27,27,47,,,22,2,28,334,2.246985116,-1.095927867,48,761.2125403,761.7124989,761.2125403,761.7124989,90.47619048,1574382360,1574382364,3.200417042,134,55,-7,-7,1574382358,1574382360,,,CT,1,20,F,Undergrad,2019_Nov_21_1613,AdjustExp1,3.1.5,60.10029766,Experiment
96,Stimuli/Morph96.JPG,Stimuli/Morph96.png,Stimuli/BlurLevel5/BlurEditedMorph96,Stimuli/BlurLevel5/BlurEditedMorph96.png,Stimuli/BlurLevel5/NumberedMorphs/BlurEditedMorph96.png,Stimuli/BlurLevel5/OriginalBlur/BlurEditedMorph96.png,Stimuli/BlurMorphTrio/EditedMorph96.png,020292right.gif,Stimuli/normal_thumbnails/96right.gif,1,0,1,0,0,28,28,95,,,32,2,29,117,-1.134976249,2.22751631,96,766.8135273,767.3121086,766.8135273,767.3121086,91.83673469,1574382366,1574382370,3.549836159,113,102,-6,-6,1574382364,1574382366,,,CT,1,20,F,Undergrad,2019_Nov_21_1613,AdjustExp1,3.1.5,60.10029766,Experiment
128,Stimuli/Morph128.JPG,Stimuli/Morph128.png,Stimuli/BlurLevel5/BlurEditedMorph128,Stimuli/BlurLevel5/BlurEditedMorph128.png,Stimuli/BlurLevel5/NumberedMorphs/BlurEditedMorph128.png,Stimuli/BlurLevel5/OriginalBlur/BlurEditedMorph128.png,Stimuli/BlurMorphTrio/EditedMorph128.png,None,None,1,0,1,0,0,29,29,127,,,84,2,30,302,1.324798161,-2.12012024,128,772.5479405,773.045355,772.5479405,773.045355,95.91836735,1574382372,1574382375,2.916157007,134,125,3,3,1574382370,1574382372,,,CT,1,20,F,Undergrad,2019_Nov_21_1613,AdjustExp1,3.1.5,60.10029766,Experiment
30,Stimuli/Morph30.JPG,Stimuli/Morph30.png,Stimuli/BlurLevel5/BlurEditedMorph30,Stimuli/BlurLevel5/BlurEditedMorph30.png,Stimuli/BlurLevel5/NumberedMorphs/BlurEditedMorph30.png,Stimuli/BlurLevel5/OriginalBlur/BlurEditedMorph30.png,Stimuli/BlurMorphTrio/EditedMorph30.png,010076right.gif,Stimuli/normal_thumbnails/30right.gif,1,0,1,0,0,30,30,29,,,65,2,31,309,1.573300978,-1.942864904,30,777.7288164,778.228071,777.7288164,778.228071,94.55782313,1574382377,1574382381,4.282757998,95,26,4,4,1574382375,1574382377,,,CT,1,20,F,Undergrad,2019_Nov_21_1613,AdjustExp1,3.1.5,60.10029766,Experiment
3,Stimuli/Morph3.JPG,Stimuli/Morph3.png,Stimuli/BlurLevel5/BlurEditedMorph3,Stimuli/BlurLevel5/BlurEditedMorph3.png,Stimuli/BlurLevel5/NumberedMorphs/BlurEditedMorph3.png,Stimuli/BlurLevel5/OriginalBlur/BlurEditedMorph3.png,Stimuli/BlurMorphTrio/EditedMorph3.png,010009right.gif,Stimuli/normal_thumbnails/3right.gif,1,0,1,0,0,31,31,2,,,28,2,32,111,-0.895919874,2.333951066,3,784.7014474,785.1951138,784.7014474,785.1951138,100,1574382384,1574382393,9.28353405,108,3,0,0,1574382381,1574382384,,,CT,1,20,F,Undergrad,2019_Nov_21_1613,AdjustExp1,3.1.5,60.10029766,Experiment
112,Stimuli/Morph112.JPG,Stimuli/Morph112.png,Stimuli/BlurLevel5/BlurEditedMorph112,Stimuli/BlurLevel5/BlurEditedMorph112.png,Stimuli/BlurLevel5/NumberedMorphs/BlurEditedMorph112.png,Stimuli/BlurLevel5/OriginalBlur/BlurEditedMorph112.png,Stimuli/BlurMorphTrio/EditedMorph112.png,None,None,1,0,1,0,0,32,32,111,,,32,2,33,221,-1.886773951,-1.640147572,112,796.3780236,796.8781648,796.3780236,796.8781648,93.19727891,1574382396,1574382399,3.299853086,44,117,-5,-5,1574382393,1574382396,,,CT,1,20,F,Undergrad,2019_Nov_21_1613,AdjustExp1,3.1.5,60.10029766,Experiment
16,Stimuli/Morph16.JPG,Stimuli/Morph16.png,Stimuli/BlurLevel5/BlurEditedMorph16,Stimuli/BlurLevel5/BlurEditedMorph16.png,Stimuli/BlurLevel5/NumberedMorphs/BlurEditedMorph16.png,Stimuli/BlurLevel5/OriginalBlur/BlurEditedMorph16.png,Stimuli/BlurMorphTrio/EditedMorph16.png,010034right.gif,Stimuli/normal_thumbnails/16right.gif,1,0,1,0,0,33,33,15,,,59,2,34,281,0.477022488,-2.454067959,16,801.9341714,802.4281672,801.9341714,802.4281672,93.19727891,1574382401,1574382404,2.965739965,62,21,-5,-5,1574382399,1574382401,,,CT,1,20,F,Undergrad,2019_Nov_21_1613,AdjustExp1,3.1.5,60.10029766,Experiment
29,Stimuli/Morph29.JPG,Stimuli/Morph29.png,Stimuli/BlurLevel5/BlurEditedMorph29,Stimuli/BlurLevel5/BlurEditedMorph29.png,Stimuli/BlurLevel5/NumberedMorphs/BlurEditedMorph29.png,Stimuli/BlurLevel5/OriginalBlur/BlurEditedMorph29.png,Stimuli/BlurMorphTrio/EditedMorph29.png,010074right.gif,Stimuli/normal_thumbnails/29right.gif,1,0,1,0,0,34,34,28,,,69,2,35,87,0.130839891,2.496573837,29,807.7617692,808.2615262,807.7617692,808.2615262,42.85714286,1574382407,1574382411,3.933154106,61,71,-42,-42,1574382404,1574382407,,,CT,1,20,F,Undergrad,2019_Nov_21_1613,AdjustExp1,3.1.5,60.10029766,Experiment
33,Stimuli/Morph33.JPG,Stimuli/Morph33.png,Stimuli/BlurLevel5/BlurEditedMorph33,Stimuli/BlurLevel5/BlurEditedMorph33.png,Stimuli/BlurLevel5/NumberedMorphs/BlurEditedMorph33.png,Stimuli/BlurLevel5/OriginalBlur/BlurEditedMorph33.png,Stimuli/BlurMorphTrio/EditedMorph33.png,010089right.gif,Stimuli/normal_thumbnails/33right.gif,1,0,1,0,0,35,35,32,,,67,2,36,235,-1.433941091,-2.047880111,33,814.2654067,814.7613565,814.2654067,814.7613565,91.83673469,1574382413,1574382416,2.583329201,62,27,6,6,1574382411,1574382413,,,CT,1,20,F,Undergrad,2019_Nov_21_1613,AdjustExp1,3.1.5,60.10029766,Experiment
101,Stimuli/Morph101.JPG,Stimuli/Morph101.png,Stimuli/BlurLevel5/BlurEditedMorph101,Stimuli/BlurLevel5/BlurEditedMorph101.png,Stimuli/BlurLevel5/NumberedMorphs/BlurEditedMorph101.png,Stimuli/BlurLevel5/OriginalBlur/BlurEditedMorph101.png,Stimuli/BlurMorphTrio/EditedMorph101.png,None,None,1,0,1,0,0,36,36,100,,,67,2,37,180,-2.5,3.06E-16,101,819.0450472,819.544127,819.0450472,819.544127,94.55782313,1574382418,1574382422,3.882951021,109,105,-4,-4,1574382416,1574382418,,,CT,1,20,F,Undergrad,2019_Nov_21_1613,AdjustExp1,3.1.5,60.10029766,Experiment
126,Stimuli/Morph126.JPG,Stimuli/Morph126.png,Stimuli/BlurLevel5/BlurEditedMorph126,Stimuli/BlurLevel5/BlurEditedMorph126.png,Stimuli/BlurLevel5/NumberedMorphs/BlurEditedMorph126.png,Stimuli/BlurLevel5/OriginalBlur/BlurEditedMorph126.png,Stimuli/BlurMorphTrio/EditedMorph126.png,None,None,1,0,1,0,0,37,37,125,,,77,2,38,238,-1.324798161,-2.12012024,126,825.2606203,825.7616083,825.2606203,825.7616083,95.91836735,1574382424,1574382427,2.417087793,36,123,3,3,1574382422,1574382424,,,CT,1,20,F,Undergrad,2019_Nov_21_1613,AdjustExp1,3.1.5,60.10029766,Experiment
83,Stimuli/Morph83.JPG,Stimuli/Morph83.png,Stimuli/BlurLevel5/BlurEditedMorph83,Stimuli/BlurLevel5/BlurEditedMorph83.png,Stimuli/BlurLevel5/NumberedMorphs/BlurEditedMorph83.png,Stimuli/BlurLevel5/OriginalBlur/BlurEditedMorph83.png,Stimuli/BlurMorphTrio/EditedMorph83.png,020259right.gif,Stimuli/normal_thumbnails/83right.gif,1,0,1,0,0,38,38,82,,,11,2,39,357,2.496573837,-0.130839891,83,830.328206,830.8280665,830.328206,830.8280665,94.55782313,1574382430,1574382438,8.432686806,145,87,-4,-4,1574382427,1574382430,,,CT,1,20,F,Undergrad,2019_Nov_21_1613,AdjustExp1,3.1.5,60.10029766,Experiment
116,Stimuli/Morph116.JPG,Stimuli/Morph116.png,Stimuli/BlurLevel5/BlurEditedMorph116,Stimuli/BlurLevel5/BlurEditedMorph116.png,Stimuli/BlurLevel5/NumberedMorphs/BlurEditedMorph116.png,Stimuli/BlurLevel5/OriginalBlur/BlurEditedMorph116.png,Stimuli/BlurMorphTrio/EditedMorph116.png,None,None,1,0,1,0,0,39,39,115,,,59,2,40,325,2.047880111,-1.433941091,116,840.9278074,841.4285814,840.9278074,841.4285814,95.91836735,1574382440,1574382443,2.433022261,1,119,-3,-3,1574382438,1574382440,,,CT,1,20,F,Undergrad,2019_Nov_21_1613,AdjustExp1,3.1.5,60.10029766,Experiment
134,Stimuli/Morph134.JPG,Stimuli/Morph134.png,Stimuli/BlurLevel5/BlurEditedMorph134,Stimuli/BlurLevel5/BlurEditedMorph134.png,Stimuli/BlurLevel5/NumberedMorphs/BlurEditedMorph134.png,Stimuli/BlurLevel5/OriginalBlur/BlurEditedMorph134.png,Stimuli/BlurMorphTrio/EditedMorph134.png,None,None,1,0,1,0,0,40,40,133,,,66,2,41,354,2.486304738,-0.261321158,134,845.8442993,846.3444722,845.8442993,846.3444722,90.47619048,1574382445,1574382449,4.0166502,38,127,7,7,1574382443,1574382445,,,CT,1,20,F,Undergrad,2019_Nov_21_1613,AdjustExp1,3.1.5,60.10029766,Experiment
44,Stimuli/Morph44.JPG,Stimuli/Morph44.png,Stimuli/BlurLevel5/BlurEditedMorph44,Stimuli/BlurLevel5/BlurEditedMorph44.png,Stimuli/BlurLevel5/NumberedMorphs/BlurEditedMorph44.png,Stimuli/BlurLevel5/OriginalBlur/BlurEditedMorph44.png,Stimuli/BlurMorphTrio/EditedMorph44.png,010126right.gif,Stimuli/normal_thumbnails/44right.gif,1,0,1,0,0,41,41,43,,,81,2,42,106,-0.68909339,2.40315424,44,852.1773205,852.676866,852.1773205,852.676866,85.03401361,1574382451,1574382457,5.300103188,134,33,11,11,1574382449,1574382451,,,CT,1,20,F,Undergrad,2019_Nov_21_1613,AdjustExp1,3.1.5,60.10029766,Experiment
12,Stimuli/Morph12.JPG,Stimuli/Morph12.png,Stimuli/BlurLevel5/BlurEditedMorph12,Stimuli/BlurLevel5/BlurEditedMorph12.png,Stimuli/BlurLevel5/NumberedMorphs/BlurEditedMorph12.png,Stimuli/BlurLevel5/OriginalBlur/BlurEditedMorph12.png,Stimuli/BlurMorphTrio/EditedMorph12.png,010026right.gif,Stimuli/normal_thumbnails/12right.gif,1,0,1,0,0,42,42,11,,,48,2,43,343,2.39076189,-0.730929262,12,860.0441183,860.5442477,860.0441183,860.5442477,87.75510204,1574382459,1574382462,2.899975777,76,21,-9,-9,1574382457,1574382459,,,CT,1,20,F,Undergrad,2019_Nov_21_1613,AdjustExp1,3.1.5,60.10029766,Experiment
4,Stimuli/Morph4.JPG,Stimuli/Morph4.png,Stimuli/BlurLevel5/BlurEditedMorph4,Stimuli/BlurLevel5/BlurEditedMorph4.png,Stimuli/BlurLevel5/NumberedMorphs/BlurEditedMorph4.png,Stimuli/BlurLevel5/OriginalBlur/BlurEditedMorph4.png,Stimuli/BlurMorphTrio/EditedMorph4.png,010010right.gif,Stimuli/normal_thumbnails/4right.gif,1,0,1,0,0,43,43,3,,,15,2,44,166,-2.425739316,0.604804739,4,865.5434912,866.0441831,865.5434912,866.0441831,95.91836735,1574382465,1574382468,3.067018747,66,7,-3,-3,1574382462,1574382465,,,CT,1,20,F,Undergrad,2019_Nov_21_1613,AdjustExp1,3.1.5,60.10029766,Experiment
84,Stimuli/Morph84.JPG,Stimuli/Morph84.png,Stimuli/BlurLevel5/BlurEditedMorph84,Stimuli/BlurLevel5/BlurEditedMorph84.png,Stimuli/BlurLevel5/NumberedMorphs/BlurEditedMorph84.png,Stimuli/BlurLevel5/OriginalBlur/BlurEditedMorph84.png,Stimuli/BlurMorphTrio/EditedMorph84.png,020261right.gif,Stimuli/normal_thumbnails/84right.gif,1,0,1,0,0,44,44,83,,,6,2,45,62,1.173678907,2.207368982,84,871.5635135,872.0609665,871.5635135,872.0609665,70.06802721,1574382471,1574382475,3.86590004,12,106,-22,-22,1574382468,1574382471,,,CT,1,20,F,Undergrad,2019_Nov_21_1613,AdjustExp1,3.1.5,60.10029766,Experiment
10,Stimuli/Morph10.JPG,Stimuli/Morph10.png,Stimuli/BlurLevel5/BlurEditedMorph10,Stimuli/BlurLevel5/BlurEditedMorph10.png,Stimuli/BlurLevel5/NumberedMorphs/BlurEditedMorph10.png,Stimuli/BlurLevel5/OriginalBlur/BlurEditedMorph10.png,Stimuli/BlurMorphTrio/EditedMorph10.png,010016right.gif,Stimuli/normal_thumbnails/10right.gif,1,0,1,0,0,45,45,9,,,76,2,46,58,1.324798161,2.12012024,10,877.532903,878.0271777,877.532903,878.0271777,98.63945578,1574382477,1574382478,1.48344183,5,11,-1,-1,1574382475,1574382477,,,CT,1,20,F,Undergrad,2019_Nov_21_1613,AdjustExp1,3.1.5,60.10029766,Experiment
41,Stimuli/Morph41.JPG,Stimuli/Morph41.png,Stimuli/BlurLevel5/BlurEditedMorph41,Stimuli/BlurLevel5/BlurEditedMorph41.png,Stimuli/BlurLevel5/NumberedMorphs/BlurEditedMorph41.png,Stimuli/BlurLevel5/OriginalBlur/BlurEditedMorph41.png,Stimuli/BlurMorphTrio/EditedMorph41.png,010112right.gif,Stimuli/normal_thumbnails/41right.gif,1,0,1,0,0,46,46,40,,,60,2,47,299,1.212024051,-2.186549268,41,881.4612548,881.960542,881.4612548,881.960542,74.14965986,1574382481,1574382485,4.61653614,140,60,-19,-19,1574382478,1574382481,,,CT,1,20,F,Undergrad,2019_Nov_21_1613,AdjustExp1,3.1.5,60.10029766,Experiment
135,Stimuli/Morph135.JPG,Stimuli/Morph135.png,Stimuli/BlurLevel5/BlurEditedMorph135,Stimuli/BlurLevel5/BlurEditedMorph135.png,Stimuli/BlurLevel5/NumberedMorphs/BlurEditedMorph135.png,Stimuli/BlurLevel5/OriginalBlur/BlurEditedMorph135.png,Stimuli/BlurMorphTrio/EditedMorph135.png,None,None,1,0,1,0,0,47,47,134,,,71,2,48,239,-1.287595187,-2.142918252,135,888.3605687,888.8604505,888.3605687,888.8604505,90.47619048,1574382488,1574382492,4.550455809,46,128,7,7,1574382486,1574382488,,,CT,1,20,F,Undergrad,2019_Nov_21_1613,AdjustExp1,3.1.5,60.10029766,Experiment
110,Stimuli/Morph110.JPG,Stimuli/Morph110.png,Stimuli/BlurLevel5/BlurEditedMorph110,Stimuli/BlurLevel5/BlurEditedMorph110.png,Stimuli/BlurLevel5/NumberedMorphs/BlurEditedMorph110.png,Stimuli/BlurLevel5/OriginalBlur/BlurEditedMorph110.png,Stimuli/BlurMorphTrio/EditedMorph110.png,None,None,1,0,1,0,0,48,48,109,,,32,2,49,338,2.317959636,-0.936516484,110,895.6601234,896.160284,895.6601234,896.160284,86.39455782,1574382495,1574382498,2.666974306,60,120,-10,-10,1574382492,1574382495,,,CT,1,20,F,Undergrad,2019_Nov_21_1613,AdjustExp1,3.1.5,60.10029766,Experiment
132,Stimuli/Morph132.JPG,Stimuli/Morph132.png,Stimuli/BlurLevel5/BlurEditedMorph132,Stimuli/BlurLevel5/BlurEditedMorph132.png,Stimuli/BlurLevel5/NumberedMorphs/BlurEditedMorph132.png,Stimuli/BlurLevel5/OriginalBlur/BlurEditedMorph132.png,Stimuli/BlurMorphTrio/EditedMorph132.png,None,None,1,0,1,0,0,49,49,131,,,70,2,50,343,2.39076189,-0.730929262,132,900.7475108,901.243676,900.7475108,901.243676,76.8707483,1574382500,1574382503,3.050225735,119,115,17,17,1574382498,1574382500,,,CT,1,20,F,Undergrad,2019_Nov_21_1613,AdjustExp1,3.1.5,60.10029766,Experiment
138,Stimuli/Morph138.JPG,Stimuli/Morph138.png,Stimuli/BlurLevel5/BlurEditedMorph138,Stimuli/BlurLevel5/BlurEditedMorph138.png,Stimuli/BlurLevel5/NumberedMorphs/BlurEditedMorph138.png,Stimuli/BlurLevel5/OriginalBlur/BlurEditedMorph138.png,Stimuli/BlurMorphTrio/EditedMorph138.png,None,None,1,0,1,0,0,50,50,137,,,55,2,51,349,2.454067959,-0.477022488,138,906.3795146,906.8770925,906.3795146,906.8770925,98.63945578,1574382506,1574382509,3.483785868,112,137,1,1,1574382503,1574382506,,,CT,1,20,F,Undergrad,2019_Nov_21_1613,AdjustExp1,3.1.5,60.10029766,Experiment
42,Stimuli/Morph42.JPG,Stimuli/Morph42.png,Stimuli/BlurLevel5/BlurEditedMorph42,Stimuli/BlurLevel5/BlurEditedMorph42.png,Stimuli/BlurLevel5/NumberedMorphs/BlurEditedMorph42.png,Stimuli/BlurLevel5/OriginalBlur/BlurEditedMorph42.png,Stimuli/BlurMorphTrio/EditedMorph42.png,010121right.gif,Stimuli/normal_thumbnails/42right.gif,1,0,1,0,0,51,51,41,,,25,2,52,339,2.333951066,-0.895919874,42,912.2307417,912.7270644,912.2307417,912.7270644,87.75510204,1574382511,1574382514,2.666462898,117,33,9,9,1574382509,1574382511,,,CT,1,20,F,Undergrad,2019_Nov_21_1613,AdjustExp1,3.1.5,60.10029766,Experiment
14,Stimuli/Morph14.JPG,Stimuli/Morph14.png,Stimuli/BlurLevel5/BlurEditedMorph14,Stimuli/BlurLevel5/BlurEditedMorph14.png,Stimuli/BlurLevel5/NumberedMorphs/BlurEditedMorph14.png,Stimuli/BlurLevel5/OriginalBlur/BlurEditedMorph14.png,Stimuli/BlurMorphTrio/EditedMorph14.png,010030right.gif,Stimuli/normal_thumbnails/14right.gif,1,0,1,0,0,52,52,13,,,37,2,53,231,-1.573300978,-1.942864904,14,917.2940817,917.7933947,917.2940817,917.7933947,95.91836735,1574382516,1574382523,6.683754921,79,17,-3,-3,1574382514,1574382516,,,CT,1,20,F,Undergrad,2019_Nov_21_1613,AdjustExp1,3.1.5,60.10029766,Experiment
11,Stimuli/Morph11.JPG,Stimuli/Morph11.png,Stimuli/BlurLevel5/BlurEditedMorph11,Stimuli/BlurLevel5/BlurEditedMorph11.png,Stimuli/BlurLevel5/NumberedMorphs/BlurEditedMorph11.png,Stimuli/BlurLevel5/OriginalBlur/BlurEditedMorph11.png,Stimuli/BlurMorphTrio/EditedMorph11.png,010024right.gif,Stimuli/normal_thumbnails/11right.gif,1,0,1,0,0,53,53,10,,,61,2,54,336,2.283863644,-1.016841608,11,926.8259226,927.3266711,926.8259226,927.3266711,95.91836735,1574382526,1574382529,3.233593941,96,14,-3,-3,1574382523,1574382526,,,CT,1,20,F,Undergrad,2019_Nov_21_1613,AdjustExp1,3.1.5,60.10029766,Experiment
86,Stimuli/Morph86.JPG,Stimuli/Morph86.png,Stimuli/BlurLevel5/BlurEditedMorph86,Stimuli/BlurLevel5/BlurEditedMorph86.png,Stimuli/BlurLevel5/NumberedMorphs/BlurEditedMorph86.png,Stimuli/BlurLevel5/OriginalBlur/BlurEditedMorph86.png,Stimuli/BlurMorphTrio/EditedMorph86.png,020266right.gif,Stimuli/normal_thumbnails/86right.gif,1,0,1,0,0,54,54,85,,,18,2,55,36,2.022542486,1.469463131,86,932.3434228,932.843346,932.3434228,932.843346,67.34693878,1574382532,1574382535,3.415972948,122,110,-24,-24,1574382530,1574382532,,,CT,1,20,F,Undergrad,2019_Nov_21_1613,AdjustExp1,3.1.5,60.10029766,Experiment
56,Stimuli/Morph56.JPG,Stimuli/Morph56.png,Stimuli/BlurLevel5/BlurEditedMorph56,Stimuli/BlurLevel5/BlurEditedMorph56.png,Stimuli/BlurLevel5/NumberedMorphs/BlurEditedMorph56.png,Stimuli/BlurLevel5/OriginalBlur/BlurEditedMorph56.png,Stimuli/BlurMorphTrio/EditedMorph56.png,010157right.gif,Stimuli/normal_thumbnails/56right.gif,1,0,1,0,0,55,55,55,,,69,2,56,291,0.895919874,-2.333951066,56,938.2145912,938.7099671,938.2145912,938.7099671,98.63945578,1574382537,1574382544,6.650376081,8,55,1,1,1574382535,1574382537,,,CT,1,20,F,Undergrad,2019_Nov_21_1613,AdjustExp1,3.1.5,60.10029766,Experiment
32,Stimuli/Morph32.JPG,Stimuli/Morph32.png,Stimuli/BlurLevel5/BlurEditedMorph32,Stimuli/BlurLevel5/BlurEditedMorph32.png,Stimuli/BlurLevel5/NumberedMorphs/BlurEditedMorph32.png,Stimuli/BlurLevel5/OriginalBlur/BlurEditedMorph32.png,Stimuli/BlurMorphTrio/EditedMorph32.png,010080right.gif,Stimuli/normal_thumbnails/32right.gif,1,0,1,0,0,56,56,31,,,56,2,57,135,-1.767766953,1.767766953,32,947.4091369,947.9093657,947.4091369,947.9093657,89.11564626,1574382547,1574382550,3.132126808,79,24,8,8,1574382544,1574382547,,,CT,1,20,F,Undergrad,2019_Nov_21_1613,AdjustExp1,3.1.5,60.10029766,Experiment
122,Stimuli/Morph122.JPG,Stimuli/Morph122.png,Stimuli/BlurLevel5/BlurEditedMorph122,Stimuli/BlurLevel5/BlurEditedMorph122.png,Stimuli/BlurLevel5/NumberedMorphs/BlurEditedMorph122.png,Stimuli/BlurLevel5/OriginalBlur/BlurEditedMorph122.png,Stimuli/BlurMorphTrio/EditedMorph122.png,None,None,1,0,1,0,0,57,57,121,,,50,2,58,4,2.493910126,0.174391184,122,953.1932563,953.6926714,953.1932563,953.6926714,23.80952381,1574382552,1574382562,9.234133959,11,31,91,-56,1574382550,1574382552,,,CT,1,20,F,Undergrad,2019_Nov_21_1613,AdjustExp1,3.1.5,60.10029766,Experiment
5,Stimuli/Morph5.JPG,Stimuli/Morph5.png,Stimuli/BlurLevel5/BlurEditedMorph5,Stimuli/BlurLevel5/BlurEditedMorph5.png,Stimuli/BlurLevel5/NumberedMorphs/BlurEditedMorph5.png,Stimuli/BlurLevel5/OriginalBlur/BlurEditedMorph5.png,Stimuli/BlurMorphTrio/EditedMorph5.png,010011right.gif,Stimuli/normal_thumbnails/5right.gif,1,0,1,0,0,58,58,4,,,27,2,59,43,1.828384254,1.7049959,5,965.175664,965.6764031,965.175664,965.6764031,100,1574382564,1574382569,4.199855328,102,5,0,0,1574382562,1574382564,,,CT,1,20,F,Undergrad,2019_Nov_21_1613,AdjustExp1,3.1.5,60.10029766,Experiment
108,Stimuli/Morph108.JPG,Stimuli/Morph108.png,Stimuli/BlurLevel5/BlurEditedMorph108,Stimuli/BlurLevel5/BlurEditedMorph108.png,Stimuli/BlurLevel5/NumberedMorphs/BlurEditedMorph108.png,Stimuli/BlurLevel5/OriginalBlur/BlurEditedMorph108.png,Stimuli/BlurMorphTrio/EditedMorph108.png,None,None,1,0,1,0,0,59,59,107,,,39,2,60,29,2.186549268,1.212024051,108,972.0085007,972.5095483,972.0085007,972.5095483,100,1574382571,1574382575,3.33297801,103,108,0,0,1574382569,1574382571,,,CT,1,20,F,Undergrad,2019_Nov_21_1613,AdjustExp1,3.1.5,60.10029766,Experiment
129,Stimuli/Morph129.JPG,Stimuli/Morph129.png,Stimuli/BlurLevel5/BlurEditedMorph129,Stimuli/BlurLevel5/BlurEditedMorph129.png,Stimuli/BlurLevel5/NumberedMorphs/BlurEditedMorph129.png,Stimuli/BlurLevel5/OriginalBlur/BlurEditedMorph129.png,Stimuli/BlurMorphTrio/EditedMorph129.png,None,None,1,0,1,0,0,60,60,128,,,100,2,61,209,-2.186549268,-1.212024051,129,977.9426905,978.4428235,977.9426905,978.4428235,90.47619048,1574382577,1574382580,2.832901955,95,122,7,7,1574382575,1574382577,,,CT,1,20,F,Undergrad,2019_Nov_21_1613,AdjustExp1,3.1.5,60.10029766,Experiment
21,Stimuli/Morph21.JPG,Stimuli/Morph21.png,Stimuli/BlurLevel5/BlurEditedMorph21,Stimuli/BlurLevel5/BlurEditedMorph21.png,Stimuli/BlurLevel5/NumberedMorphs/BlurEditedMorph21.png,Stimuli/BlurLevel5/OriginalBlur/BlurEditedMorph21.png,Stimuli/BlurMorphTrio/EditedMorph21.png,010049right.gif,Stimuli/normal_thumbnails/21right.gif,1,0,1,0,0,61,61,20,,,64,2,62,305,1.433941091,-2.047880111,21,983.1603853,983.658448,983.1603853,983.658448,98.63945578,1574382582,1574382587,4.350693226,79,22,-1,-1,1574382580,1574382582,,,CT,1,20,F,Undergrad,2019_Nov_21_1613,AdjustExp1,3.1.5,60.10029766,Experiment
71,Stimuli/Morph71.JPG,Stimuli/Morph71.png,Stimuli/BlurLevel5/BlurEditedMorph71,Stimuli/BlurLevel5/BlurEditedMorph71.png,Stimuli/BlurLevel5/NumberedMorphs/BlurEditedMorph71.png,Stimuli/BlurLevel5/OriginalBlur/BlurEditedMorph71.png,Stimuli/BlurMorphTrio/EditedMorph71.png,020225right.gif,Stimuli/normal_thumbnails/71right.gif,1,0,1,0,0,62,62,70,,,87,2,63,69,0.895919874,2.333951066,71,989.974882,990.4756754,989.974882,990.4756754,91.83673469,1574382589,1574382595,6.116439819,58,65,6,6,1574382587,1574382589,,,CT,1,20,F,Undergrad,2019_Nov_21_1613,AdjustExp1,3.1.5,60.10029766,Experiment
43,Stimuli/Morph43.JPG,Stimuli/Morph43.png,Stimuli/BlurLevel5/BlurEditedMorph43,Stimuli/BlurLevel5/BlurEditedMorph43.png,Stimuli/BlurLevel5/NumberedMorphs/BlurEditedMorph43.png,Stimuli/BlurLevel5/OriginalBlur/BlurEditedMorph43.png,Stimuli/BlurMorphTrio/EditedMorph43.png,010124right.gif,Stimuli/normal_thumbnails/43right.gif,1,0,1,0,0,63,63,42,,,71,2,64,122,-1.324798161,2.12012024,43,998.3491899,998.8421358,998.3491899,998.8421358,93.19727891,1574382598,1574382601,3.48431015,130,48,-5,-5,1574382596,1574382598,,,CT,1,20,F,Undergrad,2019_Nov_21_1613,AdjustExp1,3.1.5,60.10029766,Experiment
17,Stimuli/Morph17.JPG,Stimuli/Morph17.png,Stimuli/BlurLevel5/BlurEditedMorph17,Stimuli/BlurLevel5/BlurEditedMorph17.png,Stimuli/BlurLevel5/NumberedMorphs/BlurEditedMorph17.png,Stimuli/BlurLevel5/OriginalBlur/BlurEditedMorph17.png,Stimuli/BlurMorphTrio/EditedMorph17.png,010036right.gif,Stimuli/normal_thumbnails/17right.gif,1,0,1,0,0,64,64,16,,,13,2,65,323,1.996588775,-1.504537558,17,1004.341607,1004.842292,1004.341607,1004.842292,91.83673469,1574382604,1574382608,4.750005007,138,23,-6,-6,1574382601,1574382604,,,CT,1,20,F,Undergrad,2019_Nov_21_1613,AdjustExp1,3.1.5,60.10029766,Experiment
92,Stimuli/Morph92.JPG,Stimuli/Morph92.png,Stimuli/BlurLevel5/BlurEditedMorph92,Stimuli/BlurLevel5/BlurEditedMorph92.png,Stimuli/BlurLevel5/NumberedMorphs/BlurEditedMorph92.png,Stimuli/BlurLevel5/OriginalBlur/BlurEditedMorph92.png,Stimuli/BlurMorphTrio/EditedMorph92.png,020277right.gif,Stimuli/normal_thumbnails/92right.gif,1,0,1,0,0,65,65,91,,,14,2,66,42,1.857862064,1.672826516,92,1011.859121,1012.359066,1011.859121,1012.359066,56.46258503,1574382611,1574382614,2.650067091,140,124,-32,-32,1574382609,1574382611,,,CT,1,20,F,Undergrad,2019_Nov_21_1613,AdjustExp1,3.1.5,60.10029766,Experiment
35,Stimuli/Morph35.JPG,Stimuli/Morph35.png,Stimuli/BlurLevel5/BlurEditedMorph35,Stimuli/BlurLevel5/BlurEditedMorph35.png,Stimuli/BlurLevel5/NumberedMorphs/BlurEditedMorph35.png,Stimuli/BlurLevel5/OriginalBlur/BlurEditedMorph35.png,Stimuli/BlurMorphTrio/EditedMorph35.png,010094right.gif,Stimuli/normal_thumbnails/35right.gif,1,0,1,0,0,66,66,34,,,17,2,67,147,-2.09667642,1.361597588,35,1017.341762,1017.842037,1017.341762,1017.842037,95.91836735,1574382617,1574382621,4.116914988,10,32,3,3,1574382614,1574382617,,,CT,1,20,F,Undergrad,2019_Nov_21_1613,AdjustExp1,3.1.5,60.10029766,Experiment
28,Stimuli/Morph28.JPG,Stimuli/Morph28.png,Stimuli/BlurLevel5/BlurEditedMorph28,Stimuli/BlurLevel5/BlurEditedMorph28.png,Stimuli/BlurLevel5/NumberedMorphs/BlurEditedMorph28.png,Stimuli/BlurLevel5/OriginalBlur/BlurEditedMorph28.png,Stimuli/BlurMorphTrio/EditedMorph28.png,010073right.gif,Stimuli/normal_thumbnails/28right.gif,1,0,1,0,0,67,67,27,,,46,2,68,228,-1.672826516,-1.857862064,28,1023.908731,1024.408686,1023.908731,1024.408686,93.19727891,1574382623,1574382630,6.84990406,72,33,-5,-5,1574382621,1574382623,,,CT,1,20,F,Undergrad,2019_Nov_21_1613,AdjustExp1,3.1.5,60.10029766,Experiment
90,Stimuli/Morph90.JPG,Stimuli/Morph90.png,Stimuli/BlurLevel5/BlurEditedMorph90,Stimuli/BlurLevel5/BlurEditedMorph90.png,Stimuli/BlurLevel5/NumberedMorphs/BlurEditedMorph90.png,Stimuli/BlurLevel5/OriginalBlur/BlurEditedMorph90.png,Stimuli/BlurMorphTrio/EditedMorph90.png,020275right.gif,Stimuli/normal_thumbnails/90right.gif,1,0,1,0,0,68,68,89,,,99,2,69,202,-2.317959636,-0.936516484,90,1033.17477,1033.675126,1033.17477,1033.675126,74.14965986,1574382632,1574382637,4.666694164,41,109,-19,-19,1574382630,1574382632,,,CT,1,20,F,Undergrad,2019_Nov_21_1613,AdjustExp1,3.1.5,60.10029766,Experiment
64,Stimuli/Morph64.JPG,Stimuli/Morph64.png,Stimuli/BlurLevel5/BlurEditedMorph64,Stimuli/BlurLevel5/BlurEditedMorph64.png,Stimuli/BlurLevel5/NumberedMorphs/BlurEditedMorph64.png,Stimuli/BlurLevel5/OriginalBlur/BlurEditedMorph64.png,Stimuli/BlurMorphTrio/EditedMorph64.png,020208right.gif,Stimuli/normal_thumbnails/64right.gif,1,0,1,0,0,69,69,63,,,91,2,70,226,-1.736645926,-1.798349501,64,1040.678714,1041.174127,1040.678714,1041.174127,72.78911565,1574382640,1574382649,8.715906858,55,44,20,20,1574382637,1574382640,,,CT,1,20,F,Undergrad,2019_Nov_21_1613,AdjustExp1,3.1.5,60.10029766,Experiment
8,Stimuli/Morph8.JPG,Stimuli/Morph8.png,Stimuli/BlurLevel5/BlurEditedMorph8,Stimuli/BlurLevel5/BlurEditedMorph8.png,Stimuli/BlurLevel5/NumberedMorphs/BlurEditedMorph8.png,Stimuli/BlurLevel5/OriginalBlur/BlurEditedMorph8.png,Stimuli/BlurMorphTrio/EditedMorph8.png,010014right.gif,Stimuli/normal_thumbnails/8right.gif,1,0,1,0,0,70,70,7,,,27,2,71,177,-2.496573837,0.130839891,8,1052.207962,1052.708343,1052.207962,1052.708343,94.55782313,1574382651,1574382657,5.600361109,27,4,4,4,1574382649,1574382651,,,CT,1,20,F,Undergrad,2019_Nov_21_1613,AdjustExp1,3.1.5,60.10029766,Experiment
102,Stimuli/Morph102.JPG,Stimuli/Morph102.png,Stimuli/BlurLevel5/BlurEditedMorph102,Stimuli/BlurLevel5/BlurEditedMorph102.png,Stimuli/BlurLevel5/NumberedMorphs/BlurEditedMorph102.png,Stimuli/BlurLevel5/OriginalBlur/BlurEditedMorph102.png,Stimuli/BlurMorphTrio/EditedMorph102.png,None,None,1,0,1,0,0,71,71,101,,,10,2,72,262,-0.347932752,-2.475670172,102,1060.113947,1060.607773,1060.113947,1060.607773,98.63945578,1574382659,1574382666,6.299511909,82,101,1,1,1574382657,1574382659,,,CT,1,20,F,Undergrad,2019_Nov_21_1613,AdjustExp1,3.1.5,60.10029766,Experiment
13,Stimuli/Morph13.JPG,Stimuli/Morph13.png,Stimuli/BlurLevel5/BlurEditedMorph13,Stimuli/BlurLevel5/BlurEditedMorph13.png,Stimuli/BlurLevel5/NumberedMorphs/BlurEditedMorph13.png,Stimuli/BlurLevel5/OriginalBlur/BlurEditedMorph13.png,Stimuli/BlurMorphTrio/EditedMorph13.png,010027right.gif,Stimuli/normal_thumbnails/13right.gif,1,0,1,0,0,72,72,12,,,81,2,73,255,-0.647047613,-2.414814566,13,1068.644493,1069.141595,1068.644493,1069.141595,98.63945578,1574382668,1574382672,3.733025074,114,12,1,1,1574382666,1574382668,,,CT,1,20,F,Undergrad,2019_Nov_21_1613,AdjustExp1,3.1.5,60.10029766,Experiment
69,Stimuli/Morph69.JPG,Stimuli/Morph69.png,Stimuli/BlurLevel5/BlurEditedMorph69,Stimuli/BlurLevel5/BlurEditedMorph69.png,Stimuli/BlurLevel5/NumberedMorphs/BlurEditedMorph69.png,Stimuli/BlurLevel5/OriginalBlur/BlurEditedMorph69.png,Stimuli/BlurMorphTrio/EditedMorph69.png,020220right.gif,Stimuli/normal_thumbnails/69right.gif,1,0,1,0,0,73,73,68,,,78,2,74,181,-2.499619238,-0.043631016,69,1074.624059,1075.124857,1074.624059,1075.124857,93.19727891,1574382674,1574382682,7.799751759,143,64,5,5,1574382672,1574382674,,,CT,1,20,F,Undergrad,2019_Nov_21_1613,AdjustExp1,3.1.5,60.10029766,Experiment
25,Stimuli/Morph25.JPG,Stimuli/Morph25.png,Stimuli/BlurLevel5/BlurEditedMorph25,Stimuli/BlurLevel5/BlurEditedMorph25.png,Stimuli/BlurLevel5/NumberedMorphs/BlurEditedMorph25.png,Stimuli/BlurLevel5/OriginalBlur/BlurEditedMorph25.png,Stimuli/BlurMorphTrio/EditedMorph25.png,010069right.gif,Stimuli/normal_thumbnails/25right.gif,1,0,1,0,0,74,74,24,,,65,2,75,204,-2.283863644,-1.016841608,25,1085.042141,1085.541229,1085.042141,1085.541229,91.83673469,1574382684,1574382691,7.082980871,101,19,6,6,1574382682,1574382684,,,CT,1,20,F,Undergrad,2019_Nov_21_1613,AdjustExp1,3.1.5,60.10029766,Experiment
27,Stimuli/Morph27.JPG,Stimuli/Morph27.png,Stimuli/BlurLevel5/BlurEditedMorph27,Stimuli/BlurLevel5/BlurEditedMorph27.png,Stimuli/BlurLevel5/NumberedMorphs/BlurEditedMorph27.png,Stimuli/BlurLevel5/OriginalBlur/BlurEditedMorph27.png,Stimuli/BlurMorphTrio/EditedMorph27.png,010072right.gif,Stimuli/normal_thumbnails/27right.gif,1,0,1,0,0,75,75,26,,,34,2,76,246,-1.016841608,-2.283863644,27,1094.997583,1095.491028,1094.997583,1095.491028,100,1574382694,1574382697,3.166320086,82,27,0,0,1574382692,1574382694,,,CT,1,20,F,Undergrad,2019_Nov_21_1613,AdjustExp1,3.1.5,60.10029766,Experiment
95,Stimuli/Morph95.JPG,Stimuli/Morph95.png,Stimuli/BlurLevel5/BlurEditedMorph95,Stimuli/BlurLevel5/BlurEditedMorph95.png,Stimuli/BlurLevel5/NumberedMorphs/BlurEditedMorph95.png,Stimuli/BlurLevel5/OriginalBlur/BlurEditedMorph95.png,Stimuli/BlurMorphTrio/EditedMorph95.png,020287right.gif,Stimuli/normal_thumbnails/95right.gif,1,0,1,0,0,76,76,94,,,36,2,77,304,1.397982259,-2.072593931,95,1100.973819,1101.474055,1100.973819,1101.474055,76.8707483,1574382700,1574382704,3.532816887,57,112,-17,-17,1574382698,1574382700,,,CT,1,20,F,Undergrad,2019_Nov_21_1613,AdjustExp1,3.1.5,60.10029766,Experiment
123,Stimuli/Morph123.JPG,Stimuli/Morph123.png,Stimuli/BlurLevel5/BlurEditedMorph123,Stimuli/BlurLevel5/BlurEditedMorph123.png,Stimuli/BlurLevel5/NumberedMorphs/BlurEditedMorph123.png,Stimuli/BlurLevel5/OriginalBlur/BlurEditedMorph123.png,Stimuli/BlurMorphTrio/EditedMorph123.png,None,None,1,0,1,0,0,77,77,122,,,3,2,78,7,2.481365379,0.304673359,123,1107.325954,1107.824323,1107.325954,1107.824323,93.19727891,1574382707,1574382709,2.383555174,34,118,5,5,1574382704,1574382707,,,CT,1,20,F,Undergrad,2019_Nov_21_1613,AdjustExp1,3.1.5,60.10029766,Experiment
137,Stimuli/Morph137.JPG,Stimuli/Morph137.png,Stimuli/BlurLevel5/BlurEditedMorph137,Stimuli/BlurLevel5/BlurEditedMorph137.png,Stimuli/BlurLevel5/NumberedMorphs/BlurEditedMorph137.png,Stimuli/BlurLevel5/OriginalBlur/BlurEditedMorph137.png,Stimuli/BlurMorphTrio/EditedMorph137.png,None,None,1,0,1,0,0,78,78,136,,,83,2,79,18,2.377641291,0.772542486,137,1112.574185,1113.073959,1112.574185,1113.073959,85.03401361,1574382712,1574382714,2.64983201,50,1,136,-11,1574382709,1574382712,,,CT,1,20,F,Undergrad,2019_Nov_21_1613,AdjustExp1,3.1.5,60.10029766,Experiment
115,Stimuli/Morph115.JPG,Stimuli/Morph115.png,Stimuli/BlurLevel5/BlurEditedMorph115,Stimuli/BlurLevel5/BlurEditedMorph115.png,Stimuli/BlurLevel5/NumberedMorphs/BlurEditedMorph115.png,Stimuli/BlurLevel5/OriginalBlur/BlurEditedMorph115.png,Stimuli/BlurMorphTrio/EditedMorph115.png,None,None,1,0,1,0,0,79,79,114,,,71,2,80,240,-1.25,-2.165063509,115,1117.491359,1117.990718,1117.491359,1117.990718,90.47619048,1574382717,1574382721,4.799685001,84,122,-7,-7,1574382715,1574382717,,,CT,1,20,F,Undergrad,2019_Nov_21_1613,AdjustExp1,3.1.5,60.10029766,Experiment
104,Stimuli/Morph104.JPG,Stimuli/Morph104.png,Stimuli/BlurLevel5/BlurEditedMorph104,Stimuli/BlurLevel5/BlurEditedMorph104.png,Stimuli/BlurLevel5/NumberedMorphs/BlurEditedMorph104.png,Stimuli/BlurLevel5/OriginalBlur/BlurEditedMorph104.png,Stimuli/BlurMorphTrio/EditedMorph104.png,None,None,1,0,1,0,0,80,80,103,,,36,2,81,181,-2.499619238,-0.043631016,104,1124.633435,1125.123981,1124.633435,1125.123981,89.11564626,1574382724,1574382728,3.732884884,45,112,-8,-8,1574382722,1574382724,,,CT,1,20,F,Undergrad,2019_Nov_21_1613,AdjustExp1,3.1.5,60.10029766,Experiment
39,Stimuli/Morph39.JPG,Stimuli/Morph39.png,Stimuli/BlurLevel5/BlurEditedMorph39,Stimuli/BlurLevel5/BlurEditedMorph39.png,Stimuli/BlurLevel5/NumberedMorphs/BlurEditedMorph39.png,Stimuli/BlurLevel5/OriginalBlur/BlurEditedMorph39.png,Stimuli/BlurMorphTrio/EditedMorph39.png,010109right.gif,Stimuli/normal_thumbnails/39right.gif,1,0,1,0,0,81,81,38,,,28,2,82,176,-2.493910126,0.174391184,39,1130.790131,1131.290486,1130.790131,1131.290486,100,1574382730,1574382736,6.365862846,93,39,0,0,1574382728,1574382730,,,CT,1,20,F,Undergrad,2019_Nov_21_1613,AdjustExp1,3.1.5,60.10029766,Experiment
15,Stimuli/Morph15.JPG,Stimuli/Morph15.png,Stimuli/BlurLevel5/BlurEditedMorph15,Stimuli/BlurLevel5/BlurEditedMorph15.png,Stimuli/BlurLevel5/NumberedMorphs/BlurEditedMorph15.png,Stimuli/BlurLevel5/OriginalBlur/BlurEditedMorph15.png,Stimuli/BlurMorphTrio/EditedMorph15.png,010031right.gif,Stimuli/normal_thumbnails/15right.gif,1,0,1,0,0,82,82,14,,,53,2,83,133,-1.7049959,1.828384254,15,1139.827067,1140.323543,1139.827067,1140.323543,95.91836735,1574382739,1574382743,3.683839321,100,18,-3,-3,1574382737,1574382739,,,CT,1,20,F,Undergrad,2019_Nov_21_1613,AdjustExp1,3.1.5,60.10029766,Experiment
145,Stimuli/Morph145.JPG,Stimuli/Morph145.png,Stimuli/BlurLevel5/BlurEditedMorph145,Stimuli/BlurLevel5/BlurEditedMorph145.png,Stimuli/BlurLevel5/NumberedMorphs/BlurEditedMorph145.png,Stimuli/BlurLevel5/OriginalBlur/BlurEditedMorph145.png,Stimuli/BlurMorphTrio/EditedMorph145.png,None,None,1,0,1,0,0,83,83,144,,,81,2,84,300,1.25,-2.165063509,145,1145.979237,1146.473582,1145.979237,1146.473582,98.63945578,1574382745,1574382747,2.282922029,131,144,1,1,1574382743,1574382745,,,CT,1,20,F,Undergrad,2019_Nov_21_1613,AdjustExp1,3.1.5,60.10029766,Experiment
106,Stimuli/Morph106.JPG,Stimuli/Morph106.png,Stimuli/BlurLevel5/BlurEditedMorph106,Stimuli/BlurLevel5/BlurEditedMorph106.png,Stimuli/BlurLevel5/NumberedMorphs/BlurEditedMorph106.png,Stimuli/BlurLevel5/OriginalBlur/BlurEditedMorph106.png,Stimuli/BlurMorphTrio/EditedMorph106.png,None,None,1,0,1,0,0,84,84,105,,,16,2,85,332,2.207368982,-1.173678907,106,1151.006726,1151.506846,1151.006726,1151.506846,71.42857143,1574382750,1574382754,3.549747229,67,127,-21,-21,1574382748,1574382750,,,CT,1,20,F,Undergrad,2019_Nov_21_1613,AdjustExp1,3.1.5,60.10029766,Experiment
90,Stimuli/Morph90.JPG,Stimuli/Morph90.png,Stimuli/BlurLevel5/BlurEditedMorph90,Stimuli/BlurLevel5/BlurEditedMorph90.png,Stimuli/BlurLevel5/NumberedMorphs/BlurEditedMorph90.png,Stimuli/BlurLevel5/OriginalBlur/BlurEditedMorph90.png,Stimuli/BlurMorphTrio/EditedMorph90.png,020275right.gif,Stimuli/normal_thumbnails/90right.gif,2,0,2,0,0,0,0,89,,,47,3,1,95,-0.217889357,2.490486745,90,1256.093944,1256.58917,1256.093944,1256.58917,63.26530612,1574382855,1574382858,2.433443785,12,117,-27,-27,1574382853,1574382855,space,98.3541991,CT,1,20,F,Undergrad,2019_Nov_21_1613,AdjustExp1,3.1.5,60.10029766,Experiment
