stimulusID,stimulus_JPG,stimulusPath,stimulusPath2,stimulusPath3,stimulusPath4,stimulusPath5,stimulusPath6,xRayOriginal,xRayPath,Training.thisRepN,Training.thisTrialN,Training.thisN,Training.thisIndex,Blocks.thisRepN,Blocks.thisTrialN,Blocks.thisN,Blocks.thisIndex,Trials.thisRepN,Trials.thisTrialN,Trials.thisN,Trials.thisIndex,text_2.started,text_2.stopped,image.started,image.stopped,image_2.started,image_2.stopped,image_3.started,image_3.stopped,image_4.started,image_4.stopped,image_6.started,image_6.stopped,image_7.started,image_7.stopped,image_8.started,image_8.stopped,image_9.started,image_9.stopped,image_10.started,image_10.stopped,image_12.started,image_12.stopped,xrayID,trialNumber,blockNumber,stimLocationDeg,stimXCoord,stimYCoord,stimulusID,blockType,trainingXray.started,trainingXray.stopped,trainingTumors.started,trainingTumors.stopped,trainingScore%,startTrainingRespTime,endTrainingRespTime,trainingRT,morphTrack,morphID,errorRaw,errorCorrected,startTrainingStimTime,endTrainingStimTime,key_resp_3.keys,key_resp_3.rt,text.started,text.stopped,text_3.started,text_3.stopped,text_4.started,text_4.stopped,key_resp_5.keys,key_resp_5.rt,key_resp_5.started,key_resp_5.stopped,xray1.started,xray1.stopped,tumors.started,tumors.stopped,trialCorrect%,startRespTime,endRespTime,RT,startStimTime,endStimTime,key_resp.keys,key_resp.rt,participant,session,age,gender,status,date,expName,psychopyVersion,frameRate
71,Stimuli/Morph71.JPG,Stimuli/Morph71.png,Stimuli/BlurLevel5/BlurEditedMorph71,Stimuli/BlurLevel5/BlurEditedMorph71.png,Stimuli/BlurLevel5/NumberedMorphs/BlurEditedMorph71.png,Stimuli/BlurLevel5/OriginalBlur/BlurEditedMorph71.png,Stimuli/BlurMorphTrio/EditedMorph71.png,020225right.gif,Stimuli/normal_thumbnails/71right.gif,0,0,0,70,,,,,,,,,33.21038119,None,33.21038119,None,33.21038119,None,33.21038119,None,33.21038119,None,33.21038119,None,33.21038119,None,33.21038119,None,33.21038119,None,33.21038119,None,33.21038119,None,80,-100,-100,157,-2.301262134,0.976827821,71,training,96.9725709,97.47739593,96.9725709,97.47739593,67.34693878,1575565848,1575565852,4.01919508,147,47,24,24,1575565846,1575565848,space,3.202715958,,,,,,,,,,,,,,,,,,,,,,,s13,1,62,m,expert radiologist,2019_Dec_05_1109,AdjustEyeTrack,3.1.5,60.42045227
85,Stimuli/Morph85.JPG,Stimuli/Morph85.png,Stimuli/BlurLevel5/BlurEditedMorph85,Stimuli/BlurLevel5/BlurEditedMorph85.png,Stimuli/BlurLevel5/NumberedMorphs/BlurEditedMorph85.png,Stimuli/BlurLevel5/OriginalBlur/BlurEditedMorph85.png,Stimuli/BlurMorphTrio/EditedMorph85.png,020264right.gif,Stimuli/normal_thumbnails/85right.gif,0,1,1,84,,,,,,,,,,,,,,,,,,,,,,,,,,,,,,,48,-100,-100,157,-2.301262134,0.976827821,85,training,106.7071691,107.2077577,106.7071691,107.2077577,89.11564626,1575565858,1575565859,1.584865093,41,93,-8,-8,1575565855,1575565858,space,7.257935872,,,,,,,,,,,,,,,,,,,,,,,s13,1,62,m,expert radiologist,2019_Dec_05_1109,AdjustEyeTrack,3.1.5,60.42045227
80,Stimuli/Morph80.JPG,Stimuli/Morph80.png,Stimuli/BlurLevel5/BlurEditedMorph80,Stimuli/BlurLevel5/BlurEditedMorph80.png,Stimuli/BlurLevel5/NumberedMorphs/BlurEditedMorph80.png,Stimuli/BlurLevel5/OriginalBlur/BlurEditedMorph80.png,Stimuli/BlurMorphTrio/EditedMorph80.png,020240right.gif,Stimuli/normal_thumbnails/80right.gif,0,2,2,79,,,,,,,,,,,,,,,,,,,,,,,,,,,,,,,84,-100,-100,164,-2.40315424,0.68909339,80,training,117.826361,118.3241552,117.826361,118.3241552,74.14965986,1575565869,1575565871,2.549702883,15,99,-19,-19,1575565867,1575565869,space,14.64923921,,,,,,,,,,,,,,,,,,,,,,,s13,1,62,m,expert radiologist,2019_Dec_05_1109,AdjustEyeTrack,3.1.5,60.42045227
29,Stimuli/Morph29.JPG,Stimuli/Morph29.png,Stimuli/BlurLevel5/BlurEditedMorph29,Stimuli/BlurLevel5/BlurEditedMorph29.png,Stimuli/BlurLevel5/NumberedMorphs/BlurEditedMorph29.png,Stimuli/BlurLevel5/OriginalBlur/BlurEditedMorph29.png,Stimuli/BlurMorphTrio/EditedMorph29.png,010074right.gif,Stimuli/normal_thumbnails/29right.gif,0,3,3,28,,,,,,,,,,,,,,,,,,,,,,,,,,,,,,,59,-100,-100,241,-1.212024051,-2.186549268,29,training,137.2743468,137.774896,137.2743468,137.774896,95.91836735,1575565888,1575565900,11.64986992,13,26,3,3,1575565886,1575565888,space,2.522326664,,,,,,,,,,,,,,,,,,,,,,,s13,1,62,m,expert radiologist,2019_Dec_05_1109,AdjustEyeTrack,3.1.5,60.42045227
94,Stimuli/Morph94.JPG,Stimuli/Morph94.png,Stimuli/BlurLevel5/BlurEditedMorph94,Stimuli/BlurLevel5/BlurEditedMorph94.png,Stimuli/BlurLevel5/NumberedMorphs/BlurEditedMorph94.png,Stimuli/BlurLevel5/OriginalBlur/BlurEditedMorph94.png,Stimuli/BlurMorphTrio/EditedMorph94.png,020286right.gif,Stimuli/normal_thumbnails/94right.gif,0,4,4,93,,,,,,,,,,,,,,,,,,,,,,,,,,,,,,,8,-100,-100,48,1.672826516,1.857862064,94,training,153.8601604,154.3566359,153.8601604,154.3566359,98.63945578,1575565905,1575565910,5.265686989,88,93,1,1,1575565903,1575565905,space,3.664237991,,,,,,,,,,,,,,,,,,,,,,,s13,1,62,m,expert radiologist,2019_Dec_05_1109,AdjustEyeTrack,3.1.5,60.42045227
36,Stimuli/Morph36.JPG,Stimuli/Morph36.png,Stimuli/BlurLevel5/BlurEditedMorph36,Stimuli/BlurLevel5/BlurEditedMorph36.png,Stimuli/BlurLevel5/NumberedMorphs/BlurEditedMorph36.png,Stimuli/BlurLevel5/OriginalBlur/BlurEditedMorph36.png,Stimuli/BlurMorphTrio/EditedMorph36.png,010095right.gif,Stimuli/normal_thumbnails/36right.gif,0,5,5,35,,,,,,,,,,,,,,,,,,,,,,,,,,,,,,,11,-100,-100,18,2.377641291,0.772542486,36,training,165.9973971,166.4908123,165.9973971,166.4908123,93.19727891,1575565917,1575565920,2.849102974,39,31,5,5,1575565914,1575565917,space,2.634611358,,,,,,,,,,,,,,,,,,,,,,,s13,1,62,m,expert radiologist,2019_Dec_05_1109,AdjustEyeTrack,3.1.5,60.42045227
98,Stimuli/Morph98.JPG,Stimuli/Morph98.png,Stimuli/BlurLevel5/BlurEditedMorph98,Stimuli/BlurLevel5/BlurEditedMorph98.png,Stimuli/BlurLevel5/NumberedMorphs/BlurEditedMorph98.png,Stimuli/BlurLevel5/OriginalBlur/BlurEditedMorph98.png,Stimuli/BlurMorphTrio/EditedMorph98.png,020298right.gif,Stimuli/normal_thumbnails/98right.gif,0,6,6,97,,,,,,,,,,,,,,,,,,,,,,,,,,,,,,,52,-100,-100,70,0.855050358,2.349231552,98,training,174.0909662,174.5907886,174.0909662,174.5907886,91.83673469,1575565925,1575565929,4.099107265,61,92,6,6,1575565923,1575565925,space,2.611937395,,,,,,,,,,,,,,,,,,,,,,,s13,1,62,m,expert radiologist,2019_Dec_05_1109,AdjustEyeTrack,3.1.5,60.42045227
54,Stimuli/Morph54.JPG,Stimuli/Morph54.png,Stimuli/BlurLevel5/BlurEditedMorph54,Stimuli/BlurLevel5/BlurEditedMorph54.png,Stimuli/BlurLevel5/NumberedMorphs/BlurEditedMorph54.png,Stimuli/BlurLevel5/OriginalBlur/BlurEditedMorph54.png,Stimuli/BlurMorphTrio/EditedMorph54.png,010150right.gif,Stimuli/normal_thumbnails/54right.gif,0,7,7,53,,,,,,,,,,,,,,,,,,,,,,,,,,,,,,,8,-100,-100,215,-2.047880111,-1.433941091,54,training,183.0914149,183.591418,183.0914149,183.591418,98.63945578,1575565934,1575565940,5.73171711,26,53,1,1,1575565932,1575565934,space,1.945935395,,,,,,,,,,,,,,,,,,,,,,,s13,1,62,m,expert radiologist,2019_Dec_05_1109,AdjustEyeTrack,3.1.5,60.42045227
145,Stimuli/Morph145.JPG,Stimuli/Morph145.png,Stimuli/BlurLevel5/BlurEditedMorph145,Stimuli/BlurLevel5/BlurEditedMorph145.png,Stimuli/BlurLevel5/NumberedMorphs/BlurEditedMorph145.png,Stimuli/BlurLevel5/OriginalBlur/BlurEditedMorph145.png,Stimuli/BlurMorphTrio/EditedMorph145.png,None,None,0,8,8,144,,,,,,,,,,,,,,,,,,,,,,,,,,,,,,,74,-100,-100,68,0.936516484,2.317959636,145,training,193.0576159,193.5562434,193.0576159,193.5562434,79.59183673,1575565944,1575565949,5.249735355,113,130,15,15,1575565942,1575565944,space,2.622685571,,,,,,,,,,,,,,,,,,,,,,,s13,1,62,m,expert radiologist,2019_Dec_05_1109,AdjustEyeTrack,3.1.5,60.42045227
134,Stimuli/Morph134.JPG,Stimuli/Morph134.png,Stimuli/BlurLevel5/BlurEditedMorph134,Stimuli/BlurLevel5/BlurEditedMorph134.png,Stimuli/BlurLevel5/NumberedMorphs/BlurEditedMorph134.png,Stimuli/BlurLevel5/OriginalBlur/BlurEditedMorph134.png,Stimuli/BlurMorphTrio/EditedMorph134.png,None,None,0,9,9,133,,,,,,,,,,,,,,,,,,,,,,,,,,,,,,,79,-100,-100,233,-1.504537558,-1.996588775,134,training,203.5312542,204.0267657,203.5312542,204.0267657,93.19727891,1575565955,1575565963,8.399075985,21,139,-5,-5,1575565952,1575565954,space,2.040731369,,,,,,,,,,,,,,,,,,,,,,,s13,1,62,m,expert radiologist,2019_Dec_05_1109,AdjustEyeTrack,3.1.5,60.42045227
,,,,,,,,,,,,,,,,,,,,,,,,,,,,,,,,,,,,,,,,,,,,,-100,-100,,,,,training,,,,,,,,,,,,,,,,,215.6233919,None,215.6233919,None,215.6233919,None,space,60.77964231,215.6233919,None,,,,,,,,,,,,,s13,1,62,m,expert radiologist,2019_Dec_05_1109,AdjustEyeTrack,3.1.5,60.42045227
122,Stimuli/Morph122.JPG,Stimuli/Morph122.png,Stimuli/BlurLevel5/BlurEditedMorph122,Stimuli/BlurLevel5/BlurEditedMorph122.png,Stimuli/BlurLevel5/NumberedMorphs/BlurEditedMorph122.png,Stimuli/BlurLevel5/OriginalBlur/BlurEditedMorph122.png,Stimuli/BlurMorphTrio/EditedMorph122.png,None,None,,,,,0,0,0,0,0,0,0,121,,,,,,,,,,,,,,,,,,,,,,,9,1,1,55,1.433941091,2.047880111,122,Experiment,,,,,,,,,91,96,26,26,,,,,,,,,,,,,,,277.3651941,277.8556184,277.3651941,277.8556184,64.62585034,1575566028,1575566032,3.216928005,1575566026,1575566028,,,s13,1,62,m,expert radiologist,2019_Dec_05_1109,AdjustEyeTrack,3.1.5,60.42045227
30,Stimuli/Morph30.JPG,Stimuli/Morph30.png,Stimuli/BlurLevel5/BlurEditedMorph30,Stimuli/BlurLevel5/BlurEditedMorph30.png,Stimuli/BlurLevel5/NumberedMorphs/BlurEditedMorph30.png,Stimuli/BlurLevel5/OriginalBlur/BlurEditedMorph30.png,Stimuli/BlurMorphTrio/EditedMorph30.png,010076right.gif,Stimuli/normal_thumbnails/30right.gif,,,,,0,0,0,0,0,1,1,29,,,,,,,,,,,,,,,,,,,,,,,75,2,1,88,0.087248742,2.498477068,30,Experiment,,,,,,,,,3,33,-3,-3,,,,,,,,,,,,,,,283.1726952,283.6725255,283.1726952,283.6725255,95.91836735,1575566034,1575566037,3.207076788,1575566032,1575566034,,,s13,1,62,m,expert radiologist,2019_Dec_05_1109,AdjustEyeTrack,3.1.5,60.42045227
53,Stimuli/Morph53.JPG,Stimuli/Morph53.png,Stimuli/BlurLevel5/BlurEditedMorph53,Stimuli/BlurLevel5/BlurEditedMorph53.png,Stimuli/BlurLevel5/NumberedMorphs/BlurEditedMorph53.png,Stimuli/BlurLevel5/OriginalBlur/BlurEditedMorph53.png,Stimuli/BlurMorphTrio/EditedMorph53.png,010149right.gif,Stimuli/normal_thumbnails/53right.gif,,,,,0,0,0,0,0,2,2,52,,,,,,,,,,,,,,,,,,,,,,,18,3,1,111,-0.895919874,2.333951066,53,Experiment,,,,,,,,,21,51,2,2,,,,,,,,,,,,,,,288.8087545,289.3056269,288.8087545,289.3056269,97.27891156,1575566040,1575566043,3.582960129,1575566038,1575566040,,,s13,1,62,m,expert radiologist,2019_Dec_05_1109,AdjustEyeTrack,3.1.5,60.42045227
142,Stimuli/Morph142.JPG,Stimuli/Morph142.png,Stimuli/BlurLevel5/BlurEditedMorph142,Stimuli/BlurLevel5/BlurEditedMorph142.png,Stimuli/BlurLevel5/NumberedMorphs/BlurEditedMorph142.png,Stimuli/BlurLevel5/OriginalBlur/BlurEditedMorph142.png,Stimuli/BlurMorphTrio/EditedMorph142.png,None,None,,,,,0,0,0,0,0,3,3,141,,,,,,,,,,,,,,,,,,,,,,,90,4,1,209,-2.186549268,-1.212024051,142,Experiment,,,,,,,,,3,140,2,2,,,,,,,,,,,,,,,294.9593832,295.4556864,294.9593832,295.4556864,97.27891156,1575566046,1575566049,3.002148151,1575566044,1575566046,,,s13,1,62,m,expert radiologist,2019_Dec_05_1109,AdjustEyeTrack,3.1.5,60.42045227
54,Stimuli/Morph54.JPG,Stimuli/Morph54.png,Stimuli/BlurLevel5/BlurEditedMorph54,Stimuli/BlurLevel5/BlurEditedMorph54.png,Stimuli/BlurLevel5/NumberedMorphs/BlurEditedMorph54.png,Stimuli/BlurLevel5/OriginalBlur/BlurEditedMorph54.png,Stimuli/BlurMorphTrio/EditedMorph54.png,010150right.gif,Stimuli/normal_thumbnails/54right.gif,,,,,0,0,0,0,0,4,4,53,,,,,,,,,,,,,,,,,,,,,,,38,5,1,93,-0.130839891,2.496573837,54,Experiment,,,,,,,,,144,51,3,3,,,,,,,,,,,,,,,300.8997196,301.3893655,300.8997196,301.3893655,95.91836735,1575566052,1575566055,3.101404905,1575566049,1575566052,,,s13,1,62,m,expert radiologist,2019_Dec_05_1109,AdjustEyeTrack,3.1.5,60.42045227
119,Stimuli/Morph119.JPG,Stimuli/Morph119.png,Stimuli/BlurLevel5/BlurEditedMorph119,Stimuli/BlurLevel5/BlurEditedMorph119.png,Stimuli/BlurLevel5/NumberedMorphs/BlurEditedMorph119.png,Stimuli/BlurLevel5/OriginalBlur/BlurEditedMorph119.png,Stimuli/BlurMorphTrio/EditedMorph119.png,None,None,,,,,0,0,0,0,0,5,5,118,,,,,,,,,,,,,,,,,,,,,,,48,6,1,116,-1.095927867,2.246985116,119,Experiment,,,,,,,,,53,97,22,22,,,,,,,,,,,,,,,306.7594787,307.2560528,306.7594787,307.2560528,70.06802721,1575566058,1575566060,1.915325165,1575566055,1575566058,,,s13,1,62,m,expert radiologist,2019_Dec_05_1109,AdjustEyeTrack,3.1.5,60.42045227
35,Stimuli/Morph35.JPG,Stimuli/Morph35.png,Stimuli/BlurLevel5/BlurEditedMorph35,Stimuli/BlurLevel5/BlurEditedMorph35.png,Stimuli/BlurLevel5/NumberedMorphs/BlurEditedMorph35.png,Stimuli/BlurLevel5/OriginalBlur/BlurEditedMorph35.png,Stimuli/BlurMorphTrio/EditedMorph35.png,010094right.gif,Stimuli/normal_thumbnails/35right.gif,,,,,0,0,0,0,0,6,6,34,,,,,,,,,,,,,,,,,,,,,,,72,7,1,170,-2.462019383,0.434120444,35,Experiment,,,,,,,,,125,26,9,9,,,,,,,,,,,,,,,311.145983,311.6380485,311.145983,311.6380485,87.75510204,1575566062,1575566066,3.7159307,1575566060,1575566062,,,s13,1,62,m,expert radiologist,2019_Dec_05_1109,AdjustEyeTrack,3.1.5,60.42045227
46,Stimuli/Morph46.JPG,Stimuli/Morph46.png,Stimuli/BlurLevel5/BlurEditedMorph46,Stimuli/BlurLevel5/BlurEditedMorph46.png,Stimuli/BlurLevel5/NumberedMorphs/BlurEditedMorph46.png,Stimuli/BlurLevel5/OriginalBlur/BlurEditedMorph46.png,Stimuli/BlurMorphTrio/EditedMorph46.png,010128right.gif,Stimuli/normal_thumbnails/46right.gif,,,,,0,0,0,0,0,7,7,45,,,,,,,,,,,,,,,,,,,,,,,37,8,1,20,2.349231552,0.855050358,46,Experiment,,,,,,,,,54,46,0,0,,,,,,,,,,,,,,,317.7416023,318.2389392,317.7416023,318.2389392,100,1575566069,1575566072,3.482673883,1575566066,1575566069,,,s13,1,62,m,expert radiologist,2019_Dec_05_1109,AdjustEyeTrack,3.1.5,60.42045227
91,Stimuli/Morph91.JPG,Stimuli/Morph91.png,Stimuli/BlurLevel5/BlurEditedMorph91,Stimuli/BlurLevel5/BlurEditedMorph91.png,Stimuli/BlurLevel5/NumberedMorphs/BlurEditedMorph91.png,Stimuli/BlurLevel5/OriginalBlur/BlurEditedMorph91.png,Stimuli/BlurMorphTrio/EditedMorph91.png,020276right.gif,Stimuli/normal_thumbnails/91right.gif,,,,,0,0,0,0,0,8,8,90,,,,,,,,,,,,,,,,,,,,,,,64,9,1,357,2.496573837,-0.130839891,91,Experiment,,,,,,,,,64,97,-6,-6,,,,,,,,,,,,,,,323.9979427,324.4885131,323.9979427,324.4885131,91.83673469,1575566075,1575566076,1.419749975,1575566072,1575566075,,,s13,1,62,m,expert radiologist,2019_Dec_05_1109,AdjustEyeTrack,3.1.5,60.42045227
19,Stimuli/Morph19.JPG,Stimuli/Morph19.png,Stimuli/BlurLevel5/BlurEditedMorph19,Stimuli/BlurLevel5/BlurEditedMorph19.png,Stimuli/BlurLevel5/NumberedMorphs/BlurEditedMorph19.png,Stimuli/BlurLevel5/OriginalBlur/BlurEditedMorph19.png,Stimuli/BlurMorphTrio/EditedMorph19.png,010045right.gif,Stimuli/normal_thumbnails/19right.gif,,,,,0,0,0,0,0,9,9,18,,,,,,,,,,,,,,,,,,,,,,,79,10,1,308,1.539153688,-1.970026884,19,Experiment,,,,,,,,,3,11,8,8,,,,,,,,,,,,,,,328.0888123,328.5880959,328.0888123,328.5880959,89.11564626,1575566079,1575566082,3.133388042,1575566077,1575566079,,,s13,1,62,m,expert radiologist,2019_Dec_05_1109,AdjustEyeTrack,3.1.5,60.42045227
84,Stimuli/Morph84.JPG,Stimuli/Morph84.png,Stimuli/BlurLevel5/BlurEditedMorph84,Stimuli/BlurLevel5/BlurEditedMorph84.png,Stimuli/BlurLevel5/NumberedMorphs/BlurEditedMorph84.png,Stimuli/BlurLevel5/OriginalBlur/BlurEditedMorph84.png,Stimuli/BlurMorphTrio/EditedMorph84.png,020261right.gif,Stimuli/normal_thumbnails/84right.gif,,,,,0,0,0,0,0,10,10,83,,,,,,,,,,,,,,,,,,,,,,,17,11,1,132,-1.672826516,1.857862064,84,Experiment,,,,,,,,,59,91,-7,-7,,,,,,,,,,,,,,,334.2713129,334.7716287,334.2713129,334.7716287,90.47619048,1575566085,1575566087,1.734793186,1575566082,1575566085,,,s13,1,62,m,expert radiologist,2019_Dec_05_1109,AdjustEyeTrack,3.1.5,60.42045227
74,Stimuli/Morph74.JPG,Stimuli/Morph74.png,Stimuli/BlurLevel5/BlurEditedMorph74,Stimuli/BlurLevel5/BlurEditedMorph74.png,Stimuli/BlurLevel5/NumberedMorphs/BlurEditedMorph74.png,Stimuli/BlurLevel5/OriginalBlur/BlurEditedMorph74.png,Stimuli/BlurMorphTrio/EditedMorph74.png,020232right.gif,Stimuli/normal_thumbnails/74right.gif,,,,,0,0,0,0,0,11,11,73,,,,,,,,,,,,,,,,,,,,,,,93,12,1,216,-2.022542486,-1.469463131,74,Experiment,,,,,,,,,8,66,8,8,,,,,,,,,,,,,,,339.8905626,340.3882238,339.8905626,340.3882238,89.11564626,1575566091,1575566093,2.165638208,1575566087,1575566091,,,s13,1,62,m,expert radiologist,2019_Dec_05_1109,AdjustEyeTrack,3.1.5,60.42045227
98,Stimuli/Morph98.JPG,Stimuli/Morph98.png,Stimuli/BlurLevel5/BlurEditedMorph98,Stimuli/BlurLevel5/BlurEditedMorph98.png,Stimuli/BlurLevel5/NumberedMorphs/BlurEditedMorph98.png,Stimuli/BlurLevel5/OriginalBlur/BlurEditedMorph98.png,Stimuli/BlurMorphTrio/EditedMorph98.png,020298right.gif,Stimuli/normal_thumbnails/98right.gif,,,,,0,0,0,0,0,12,12,97,,,,,,,,,,,,,,,,,,,,,,,48,13,1,34,2.072593931,1.397982259,98,Experiment,,,,,,,,,51,82,16,16,,,,,,,,,,,,,,,344.9656828,345.4616486,344.9656828,345.4616486,78.23129252,1575566096,1575566097,1.199367762,1575566093,1575566096,,,s13,1,62,m,expert radiologist,2019_Dec_05_1109,AdjustEyeTrack,3.1.5,60.42045227
99,Stimuli/Morph99.JPG,Stimuli/Morph99.png,Stimuli/BlurLevel5/BlurEditedMorph99,Stimuli/BlurLevel5/BlurEditedMorph99.png,Stimuli/BlurLevel5/NumberedMorphs/BlurEditedMorph99.png,Stimuli/BlurLevel5/OriginalBlur/BlurEditedMorph99.png,Stimuli/BlurMorphTrio/EditedMorph99.png,020299right.gif,Stimuli/normal_thumbnails/99right.gif,,,,,0,0,0,0,0,13,13,98,,,,,,,,,,,,,,,,,,,,,,,57,14,1,116,-1.095927867,2.246985116,99,Experiment,,,,,,,,,57,99,0,0,,,,,,,,,,,,,,,349.3054713,349.805358,349.3054713,349.805358,100,1575566100,1575566101,1.069929838,1575566097,1575566100,,,s13,1,62,m,expert radiologist,2019_Dec_05_1109,AdjustEyeTrack,3.1.5,60.42045227
41,Stimuli/Morph41.JPG,Stimuli/Morph41.png,Stimuli/BlurLevel5/BlurEditedMorph41,Stimuli/BlurLevel5/BlurEditedMorph41.png,Stimuli/BlurLevel5/NumberedMorphs/BlurEditedMorph41.png,Stimuli/BlurLevel5/OriginalBlur/BlurEditedMorph41.png,Stimuli/BlurMorphTrio/EditedMorph41.png,010112right.gif,Stimuli/normal_thumbnails/41right.gif,,,,,0,0,0,0,0,14,14,40,,,,,,,,,,,,,,,,,,,,,,,36,15,1,84,0.261321158,2.486304738,41,Experiment,,,,,,,,,84,84,-43,-43,,,,,,,,,,,,,,,353.2884884,353.7871295,353.2884884,353.7871295,41.49659864,1575566104,1575566105,0.332447052,1575566102,1575566104,,,s13,1,62,m,expert radiologist,2019_Dec_05_1109,AdjustEyeTrack,3.1.5,60.42045227
65,Stimuli/Morph65.JPG,Stimuli/Morph65.png,Stimuli/BlurLevel5/BlurEditedMorph65,Stimuli/BlurLevel5/BlurEditedMorph65.png,Stimuli/BlurLevel5/NumberedMorphs/BlurEditedMorph65.png,Stimuli/BlurLevel5/OriginalBlur/BlurEditedMorph65.png,Stimuli/BlurMorphTrio/EditedMorph65.png,020209right.gif,Stimuli/normal_thumbnails/65right.gif,,,,,0,0,0,0,0,15,15,64,,,,,,,,,,,,,,,,,,,,,,,59,16,1,176,-2.493910126,0.174391184,65,Experiment,,,,,,,,,120,71,-6,-6,,,,,,,,,,,,,,,356.0919199,356.5870572,356.0919199,356.5870572,91.83673469,1575566107,1575566110,2.58267808,1575566105,1575566107,,,s13,1,62,m,expert radiologist,2019_Dec_05_1109,AdjustEyeTrack,3.1.5,60.42045227
57,Stimuli/Morph57.JPG,Stimuli/Morph57.png,Stimuli/BlurLevel5/BlurEditedMorph57,Stimuli/BlurLevel5/BlurEditedMorph57.png,Stimuli/BlurLevel5/NumberedMorphs/BlurEditedMorph57.png,Stimuli/BlurLevel5/OriginalBlur/BlurEditedMorph57.png,Stimuli/BlurMorphTrio/EditedMorph57.png,010158right.gif,Stimuli/normal_thumbnails/57right.gif,,,,,0,0,0,0,0,16,16,56,,,,,,,,,,,,,,,,,,,,,,,34,17,1,141,-1.942864904,1.573300978,57,Experiment,,,,,,,,,70,68,-11,-11,,,,,,,,,,,,,,,361.8213166,362.3212547,361.8213166,362.3212547,85.03401361,1575566113,1575566114,1.416116953,1575566110,1575566113,,,s13,1,62,m,expert radiologist,2019_Dec_05_1109,AdjustEyeTrack,3.1.5,60.42045227
23,Stimuli/Morph23.JPG,Stimuli/Morph23.png,Stimuli/BlurLevel5/BlurEditedMorph23,Stimuli/BlurLevel5/BlurEditedMorph23.png,Stimuli/BlurLevel5/NumberedMorphs/BlurEditedMorph23.png,Stimuli/BlurLevel5/OriginalBlur/BlurEditedMorph23.png,Stimuli/BlurMorphTrio/EditedMorph23.png,010063right.gif,Stimuli/normal_thumbnails/23right.gif,,,,,0,0,0,0,0,17,17,22,,,,,,,,,,,,,,,,,,,,,,,73,18,1,288,0.772542486,-2.377641291,23,Experiment,,,,,,,,,90,22,1,1,,,,,,,,,,,,,,,365.9591415,366.4540678,365.9591415,366.4540678,98.63945578,1575566117,1575566119,2.082649946,1575566114,1575566117,,,s13,1,62,m,expert radiologist,2019_Dec_05_1109,AdjustEyeTrack,3.1.5,60.42045227
42,Stimuli/Morph42.JPG,Stimuli/Morph42.png,Stimuli/BlurLevel5/BlurEditedMorph42,Stimuli/BlurLevel5/BlurEditedMorph42.png,Stimuli/BlurLevel5/NumberedMorphs/BlurEditedMorph42.png,Stimuli/BlurLevel5/OriginalBlur/BlurEditedMorph42.png,Stimuli/BlurMorphTrio/EditedMorph42.png,010121right.gif,Stimuli/normal_thumbnails/42right.gif,,,,,0,0,0,0,0,18,18,41,,,,,,,,,,,,,,,,,,,,,,,9,19,1,140,-1.915111108,1.606969024,42,Experiment,,,,,,,,,65,43,-1,-1,,,,,,,,,,,,,,,370.2606475,370.754655,370.2606475,370.754655,98.63945578,1575566121,1575566123,2.082366943,1575566119,1575566121,,,s13,1,62,m,expert radiologist,2019_Dec_05_1109,AdjustEyeTrack,3.1.5,60.42045227
110,Stimuli/Morph110.JPG,Stimuli/Morph110.png,Stimuli/BlurLevel5/BlurEditedMorph110,Stimuli/BlurLevel5/BlurEditedMorph110.png,Stimuli/BlurLevel5/NumberedMorphs/BlurEditedMorph110.png,Stimuli/BlurLevel5/OriginalBlur/BlurEditedMorph110.png,Stimuli/BlurMorphTrio/EditedMorph110.png,None,None,,,,,0,0,0,0,0,19,19,109,,,,,,,,,,,,,,,,,,,,,,,53,20,1,88,0.087248742,2.498477068,110,Experiment,,,,,,,,,34,87,23,23,,,,,,,,,,,,,,,374.9953156,375.4896061,374.9953156,375.4896061,68.70748299,1575566126,1575566129,2.650079966,1575566124,1575566126,,,s13,1,62,m,expert radiologist,2019_Dec_05_1109,AdjustEyeTrack,3.1.5,60.42045227
12,Stimuli/Morph12.JPG,Stimuli/Morph12.png,Stimuli/BlurLevel5/BlurEditedMorph12,Stimuli/BlurLevel5/BlurEditedMorph12.png,Stimuli/BlurLevel5/NumberedMorphs/BlurEditedMorph12.png,Stimuli/BlurLevel5/OriginalBlur/BlurEditedMorph12.png,Stimuli/BlurMorphTrio/EditedMorph12.png,010026right.gif,Stimuli/normal_thumbnails/12right.gif,,,,,0,0,0,0,0,20,20,11,,,,,,,,,,,,,,,,,,,,,,,82,21,1,355,2.490486745,-0.217889357,12,Experiment,,,,,,,,,119,10,2,2,,,,,,,,,,,,,,,380.4933238,380.9955093,380.4933238,380.9955093,97.27891156,1575566131,1575566135,3.383650064,1575566129,1575566131,,,s13,1,62,m,expert radiologist,2019_Dec_05_1109,AdjustEyeTrack,3.1.5,60.42045227
6,Stimuli/Morph6.JPG,Stimuli/Morph6.png,Stimuli/BlurLevel5/BlurEditedMorph6,Stimuli/BlurLevel5/BlurEditedMorph6.png,Stimuli/BlurLevel5/NumberedMorphs/BlurEditedMorph6.png,Stimuli/BlurLevel5/OriginalBlur/BlurEditedMorph6.png,Stimuli/BlurMorphTrio/EditedMorph6.png,010012right.gif,Stimuli/normal_thumbnails/6right.gif,,,,,0,0,0,0,0,21,21,5,,,,,,,,,,,,,,,,,,,,,,,44,22,1,216,-2.022542486,-1.469463131,6,Experiment,,,,,,,,,40,145,-139,8,,,,,,,,,,,,,,,386.7235435,387.221273,386.7235435,387.221273,89.11564626,1575566138,1575566141,3.049761057,1575566135,1575566138,,,s13,1,62,m,expert radiologist,2019_Dec_05_1109,AdjustEyeTrack,3.1.5,60.42045227
138,Stimuli/Morph138.JPG,Stimuli/Morph138.png,Stimuli/BlurLevel5/BlurEditedMorph138,Stimuli/BlurLevel5/BlurEditedMorph138.png,Stimuli/BlurLevel5/NumberedMorphs/BlurEditedMorph138.png,Stimuli/BlurLevel5/OriginalBlur/BlurEditedMorph138.png,Stimuli/BlurMorphTrio/EditedMorph138.png,None,None,,,,,0,0,0,0,0,22,22,137,,,,,,,,,,,,,,,,,,,,,,,68,23,1,278,0.347932752,-2.475670172,138,Experiment,,,,,,,,,50,147,-9,-9,,,,,,,,,,,,,,,392.6543405,393.1545649,392.6543405,393.1545649,87.75510204,1575566144,1575566146,2.254487991,1575566141,1575566144,,,s13,1,62,m,expert radiologist,2019_Dec_05_1109,AdjustEyeTrack,3.1.5,60.42045227
116,Stimuli/Morph116.JPG,Stimuli/Morph116.png,Stimuli/BlurLevel5/BlurEditedMorph116,Stimuli/BlurLevel5/BlurEditedMorph116.png,Stimuli/BlurLevel5/NumberedMorphs/BlurEditedMorph116.png,Stimuli/BlurLevel5/OriginalBlur/BlurEditedMorph116.png,Stimuli/BlurMorphTrio/EditedMorph116.png,None,None,,,,,0,0,0,0,0,23,23,115,,,,,,,,,,,,,,,,,,,,,,,59,24,1,142,-1.970026884,1.539153688,116,Experiment,,,,,,,,,134,114,2,2,,,,,,,,,,,,,,,397.3955711,397.8875137,397.3955711,397.8875137,97.27891156,1575566148,1575566151,2.310799122,1575566146,1575566148,,,s13,1,62,m,expert radiologist,2019_Dec_05_1109,AdjustEyeTrack,3.1.5,60.42045227
13,Stimuli/Morph13.JPG,Stimuli/Morph13.png,Stimuli/BlurLevel5/BlurEditedMorph13,Stimuli/BlurLevel5/BlurEditedMorph13.png,Stimuli/BlurLevel5/NumberedMorphs/BlurEditedMorph13.png,Stimuli/BlurLevel5/OriginalBlur/BlurEditedMorph13.png,Stimuli/BlurMorphTrio/EditedMorph13.png,010027right.gif,Stimuli/normal_thumbnails/13right.gif,,,,,0,0,0,0,0,24,24,12,,,,,,,,,,,,,,,,,,,,,,,38,25,1,190,-2.462019383,-0.434120444,13,Experiment,,,,,,,,,115,141,-128,19,,,,,,,,,,,,,,,402.6755119,403.1709898,402.6755119,403.1709898,74.14965986,1575566154,1575566156,2.708394051,1575566151,1575566154,,,s13,1,62,m,expert radiologist,2019_Dec_05_1109,AdjustEyeTrack,3.1.5,60.42045227
89,Stimuli/Morph89.JPG,Stimuli/Morph89.png,Stimuli/BlurLevel5/BlurEditedMorph89,Stimuli/BlurLevel5/BlurEditedMorph89.png,Stimuli/BlurLevel5/NumberedMorphs/BlurEditedMorph89.png,Stimuli/BlurLevel5/OriginalBlur/BlurEditedMorph89.png,Stimuli/BlurMorphTrio/EditedMorph89.png,020273right.gif,Stimuli/normal_thumbnails/89right.gif,,,,,0,0,0,0,0,25,25,88,,,,,,,,,,,,,,,,,,,,,,,51,26,1,285,0.647047613,-2.414814566,89,Experiment,,,,,,,,,106,100,-11,-11,,,,,,,,,,,,,,,408.3376838,408.8373891,408.3376838,408.8373891,85.03401361,1575566159,1575566161,1.533278942,1575566157,1575566159,,,s13,1,62,m,expert radiologist,2019_Dec_05_1109,AdjustEyeTrack,3.1.5,60.42045227
28,Stimuli/Morph28.JPG,Stimuli/Morph28.png,Stimuli/BlurLevel5/BlurEditedMorph28,Stimuli/BlurLevel5/BlurEditedMorph28.png,Stimuli/BlurLevel5/NumberedMorphs/BlurEditedMorph28.png,Stimuli/BlurLevel5/OriginalBlur/BlurEditedMorph28.png,Stimuli/BlurMorphTrio/EditedMorph28.png,010073right.gif,Stimuli/normal_thumbnails/28right.gif,,,,,0,0,0,0,0,26,26,27,,,,,,,,,,,,,,,,,,,,,,,17,27,1,158,-2.317959636,0.936516484,28,Experiment,,,,,,,,,132,24,4,4,,,,,,,,,,,,,,,413.0539171,413.5550337,413.0539171,413.5550337,94.55782313,1575566164,1575566167,3.033782005,1575566161,1575566164,,,s13,1,62,m,expert radiologist,2019_Dec_05_1109,AdjustEyeTrack,3.1.5,60.42045227
22,Stimuli/Morph22.JPG,Stimuli/Morph22.png,Stimuli/BlurLevel5/BlurEditedMorph22,Stimuli/BlurLevel5/BlurEditedMorph22.png,Stimuli/BlurLevel5/NumberedMorphs/BlurEditedMorph22.png,Stimuli/BlurLevel5/OriginalBlur/BlurEditedMorph22.png,Stimuli/BlurMorphTrio/EditedMorph22.png,010055right.gif,Stimuli/normal_thumbnails/22right.gif,,,,,0,0,0,0,0,27,27,21,,,,,,,,,,,,,,,,,,,,,,,27,28,1,237,-1.361597588,-2.09667642,22,Experiment,,,,,,,,,70,22,0,0,,,,,,,,,,,,,,,419.1234683,419.6223385,419.1234683,419.6223385,100,1575566170,1575566173,2.666369915,1575566167,1575566170,,,s13,1,62,m,expert radiologist,2019_Dec_05_1109,AdjustEyeTrack,3.1.5,60.42045227
111,Stimuli/Morph111.JPG,Stimuli/Morph111.png,Stimuli/BlurLevel5/BlurEditedMorph111,Stimuli/BlurLevel5/BlurEditedMorph111.png,Stimuli/BlurLevel5/NumberedMorphs/BlurEditedMorph111.png,Stimuli/BlurLevel5/OriginalBlur/BlurEditedMorph111.png,Stimuli/BlurMorphTrio/EditedMorph111.png,None,None,,,,,0,0,0,0,0,28,28,110,,,,,,,,,,,,,,,,,,,,,,,18,29,1,131,-1.640147572,1.886773951,111,Experiment,,,,,,,,,71,108,3,3,,,,,,,,,,,,,,,424.4202426,424.9533507,424.4202426,424.9533507,95.91836735,1575566175,1575566177,1.19938612,1575566173,1575566175,,,s13,1,62,m,expert radiologist,2019_Dec_05_1109,AdjustEyeTrack,3.1.5,60.42045227
70,Stimuli/Morph70.JPG,Stimuli/Morph70.png,Stimuli/BlurLevel5/BlurEditedMorph70,Stimuli/BlurLevel5/BlurEditedMorph70.png,Stimuli/BlurLevel5/NumberedMorphs/BlurEditedMorph70.png,Stimuli/BlurLevel5/OriginalBlur/BlurEditedMorph70.png,Stimuli/BlurMorphTrio/EditedMorph70.png,020221right.gif,Stimuli/normal_thumbnails/70right.gif,,,,,0,0,0,0,0,29,29,69,,,,,,,,,,,,,,,,,,,,,,,29,30,1,243,-1.134976249,-2.22751631,70,Experiment,,,,,,,,,26,68,2,2,,,,,,,,,,,,,,,428.9220085,429.4204978,428.9220085,429.4204978,97.27891156,1575566180,1575566183,2.541292906,1575566177,1575566180,,,s13,1,62,m,expert radiologist,2019_Dec_05_1109,AdjustEyeTrack,3.1.5,60.42045227
147,Stimuli/Morph147.JPG,Stimuli/Morph147.png,Stimuli/BlurLevel5/BlurEditedMorph147,Stimuli/BlurLevel5/BlurEditedMorph147.png,Stimuli/BlurLevel5/NumberedMorphs/BlurEditedMorph147.png,Stimuli/BlurLevel5/OriginalBlur/BlurEditedMorph147.png,Stimuli/BlurMorphTrio/EditedMorph147.png,None,None,,,,,0,0,0,0,0,30,30,146,,,,,,,,,,,,,,,,,,,,,,,48,31,1,315,1.767766953,-1.767766953,147,Experiment,,,,,,,,,30,144,3,3,,,,,,,,,,,,,,,434.2287855,434.737161,434.2287855,434.737161,95.91836735,1575566185,1575566187,1.883491993,1575566183,1575566185,,,s13,1,62,m,expert radiologist,2019_Dec_05_1109,AdjustEyeTrack,3.1.5,60.42045227
83,Stimuli/Morph83.JPG,Stimuli/Morph83.png,Stimuli/BlurLevel5/BlurEditedMorph83,Stimuli/BlurLevel5/BlurEditedMorph83.png,Stimuli/BlurLevel5/NumberedMorphs/BlurEditedMorph83.png,Stimuli/BlurLevel5/OriginalBlur/BlurEditedMorph83.png,Stimuli/BlurMorphTrio/EditedMorph83.png,020259right.gif,Stimuli/normal_thumbnails/83right.gif,,,,,0,0,0,0,0,31,31,82,,,,,,,,,,,,,,,,,,,,,,,66,32,1,357,2.496573837,-0.130839891,83,Experiment,,,,,,,,,83,86,-3,-3,,,,,,,,,,,,,,,438.5201478,439.0204534,438.5201478,439.0204534,95.91836735,1575566190,1575566191,1.600135088,1575566187,1575566189,,,s13,1,62,m,expert radiologist,2019_Dec_05_1109,AdjustEyeTrack,3.1.5,60.42045227
31,Stimuli/Morph31.JPG,Stimuli/Morph31.png,Stimuli/BlurLevel5/BlurEditedMorph31,Stimuli/BlurLevel5/BlurEditedMorph31.png,Stimuli/BlurLevel5/NumberedMorphs/BlurEditedMorph31.png,Stimuli/BlurLevel5/OriginalBlur/BlurEditedMorph31.png,Stimuli/BlurMorphTrio/EditedMorph31.png,010079right.gif,Stimuli/normal_thumbnails/31right.gif,,,,,0,0,0,0,0,32,32,30,,,,,,,,,,,,,,,,,,,,,,,35,33,1,158,-2.317959636,0.936516484,31,Experiment,,,,,,,,,139,21,10,10,,,,,,,,,,,,,,,442.8566826,443.3532671,442.8566826,443.3532671,86.39455782,1575566194,1575566196,2.31656599,1575566191,1575566194,,,s13,1,62,m,expert radiologist,2019_Dec_05_1109,AdjustEyeTrack,3.1.5,60.42045227
133,Stimuli/Morph133.JPG,Stimuli/Morph133.png,Stimuli/BlurLevel5/BlurEditedMorph133,Stimuli/BlurLevel5/BlurEditedMorph133.png,Stimuli/BlurLevel5/NumberedMorphs/BlurEditedMorph133.png,Stimuli/BlurLevel5/OriginalBlur/BlurEditedMorph133.png,Stimuli/BlurMorphTrio/EditedMorph133.png,None,None,,,,,0,0,0,0,0,33,33,132,,,,,,,,,,,,,,,,,,,,,,,76,34,1,75,0.647047613,2.414814566,133,Experiment,,,,,,,,,52,10,123,-24,,,,,,,,,,,,,,,447.4615867,447.9533859,447.4615867,447.9533859,67.34693878,1575566198,1575566203,5.033360243,1575566196,1575566198,,,s13,1,62,m,expert radiologist,2019_Dec_05_1109,AdjustEyeTrack,3.1.5,60.42045227
5,Stimuli/Morph5.JPG,Stimuli/Morph5.png,Stimuli/BlurLevel5/BlurEditedMorph5,Stimuli/BlurLevel5/BlurEditedMorph5.png,Stimuli/BlurLevel5/NumberedMorphs/BlurEditedMorph5.png,Stimuli/BlurLevel5/OriginalBlur/BlurEditedMorph5.png,Stimuli/BlurMorphTrio/EditedMorph5.png,010011right.gif,Stimuli/normal_thumbnails/5right.gif,,,,,0,0,0,0,0,34,34,4,,,,,,,,,,,,,,,,,,,,,,,42,35,1,80,0.434120444,2.462019383,5,Experiment,,,,,,,,,59,6,-1,-1,,,,,,,,,,,,,,,455.6249539,456.1197116,455.6249539,456.1197116,98.63945578,1575566207,1575566209,2.015452862,1575566204,1575566207,,,s13,1,62,m,expert radiologist,2019_Dec_05_1109,AdjustEyeTrack,3.1.5,60.42045227
115,Stimuli/Morph115.JPG,Stimuli/Morph115.png,Stimuli/BlurLevel5/BlurEditedMorph115,Stimuli/BlurLevel5/BlurEditedMorph115.png,Stimuli/BlurLevel5/NumberedMorphs/BlurEditedMorph115.png,Stimuli/BlurLevel5/OriginalBlur/BlurEditedMorph115.png,Stimuli/BlurMorphTrio/EditedMorph115.png,None,None,,,,,0,0,0,0,0,35,35,114,,,,,,,,,,,,,,,,,,,,,,,39,36,1,80,0.434120444,2.462019383,115,Experiment,,,,,,,,,41,119,-4,-4,,,,,,,,,,,,,,,460.4547847,460.9537421,460.4547847,460.9537421,94.55782313,1575566211,1575566214,2.549948215,1575566209,1575566211,,,s13,1,62,m,expert radiologist,2019_Dec_05_1109,AdjustEyeTrack,3.1.5,60.42045227
36,Stimuli/Morph36.JPG,Stimuli/Morph36.png,Stimuli/BlurLevel5/BlurEditedMorph36,Stimuli/BlurLevel5/BlurEditedMorph36.png,Stimuli/BlurLevel5/NumberedMorphs/BlurEditedMorph36.png,Stimuli/BlurLevel5/OriginalBlur/BlurEditedMorph36.png,Stimuli/BlurMorphTrio/EditedMorph36.png,010095right.gif,Stimuli/normal_thumbnails/36right.gif,,,,,0,0,0,0,0,36,36,35,,,,,,,,,,,,,,,,,,,,,,,71,37,1,86,0.174391184,2.493910126,36,Experiment,,,,,,,,,61,38,-2,-2,,,,,,,,,,,,,,,465.692888,466.1862335,465.692888,466.1862335,97.27891156,1575566217,1575566219,2.353379965,1575566214,1575566217,,,s13,1,62,m,expert radiologist,2019_Dec_05_1109,AdjustEyeTrack,3.1.5,60.42045227
38,Stimuli/Morph38.JPG,Stimuli/Morph38.png,Stimuli/BlurLevel5/BlurEditedMorph38,Stimuli/BlurLevel5/BlurEditedMorph38.png,Stimuli/BlurLevel5/NumberedMorphs/BlurEditedMorph38.png,Stimuli/BlurLevel5/OriginalBlur/BlurEditedMorph38.png,Stimuli/BlurMorphTrio/EditedMorph38.png,010108right.gif,Stimuli/normal_thumbnails/38right.gif,,,,,0,0,0,0,0,37,37,37,,,,,,,,,,,,,,,,,,,,,,,20,38,1,66,1.016841608,2.283863644,38,Experiment,,,,,,,,,104,37,1,1,,,,,,,,,,,,,,,470.9608347,471.4530953,470.9608347,471.4530953,98.63945578,1575566222,1575566225,3.18236208,1575566219,1575566222,,,s13,1,62,m,expert radiologist,2019_Dec_05_1109,AdjustEyeTrack,3.1.5,60.42045227
121,Stimuli/Morph121.JPG,Stimuli/Morph121.png,Stimuli/BlurLevel5/BlurEditedMorph121,Stimuli/BlurLevel5/BlurEditedMorph121.png,Stimuli/BlurLevel5/NumberedMorphs/BlurEditedMorph121.png,Stimuli/BlurLevel5/OriginalBlur/BlurEditedMorph121.png,Stimuli/BlurMorphTrio/EditedMorph121.png,None,None,,,,,0,0,0,0,0,38,38,120,,,,,,,,,,,,,,,,,,,,,,,65,39,1,34,2.072593931,1.397982259,121,Experiment,,,,,,,,,115,110,11,11,,,,,,,,,,,,,,,476.7024601,477.2032534,476.7024601,477.2032534,85.03401361,1575566228,1575566233,5.785244226,1575566225,1575566228,,,s13,1,62,m,expert radiologist,2019_Dec_05_1109,AdjustEyeTrack,3.1.5,60.42045227
44,Stimuli/Morph44.JPG,Stimuli/Morph44.png,Stimuli/BlurLevel5/BlurEditedMorph44,Stimuli/BlurLevel5/BlurEditedMorph44.png,Stimuli/BlurLevel5/NumberedMorphs/BlurEditedMorph44.png,Stimuli/BlurLevel5/OriginalBlur/BlurEditedMorph44.png,Stimuli/BlurMorphTrio/EditedMorph44.png,010126right.gif,Stimuli/normal_thumbnails/44right.gif,,,,,0,0,0,0,0,39,39,43,,,,,,,,,,,,,,,,,,,,,,,66,40,1,98,-0.347932752,2.475670172,44,Experiment,,,,,,,,,129,41,3,3,,,,,,,,,,,,,,,485.4201714,485.9196168,485.4201714,485.9196168,95.91836735,1575566236,1575566239,3.048978806,1575566234,1575566236,,,s13,1,62,m,expert radiologist,2019_Dec_05_1109,AdjustEyeTrack,3.1.5,60.42045227
33,Stimuli/Morph33.JPG,Stimuli/Morph33.png,Stimuli/BlurLevel5/BlurEditedMorph33,Stimuli/BlurLevel5/BlurEditedMorph33.png,Stimuli/BlurLevel5/NumberedMorphs/BlurEditedMorph33.png,Stimuli/BlurLevel5/OriginalBlur/BlurEditedMorph33.png,Stimuli/BlurMorphTrio/EditedMorph33.png,010089right.gif,Stimuli/normal_thumbnails/33right.gif,,,,,0,0,0,0,0,40,40,32,,,,,,,,,,,,,,,,,,,,,,,1,41,1,279,0.391086163,-2.469220851,33,Experiment,,,,,,,,,144,12,21,21,,,,,,,,,,,,,,,490.4217986,490.9193166,490.4217986,490.9193166,71.42857143,1575566241,1575566244,2.817020893,1575566240,1575566241,,,s13,1,62,m,expert radiologist,2019_Dec_05_1109,AdjustEyeTrack,3.1.5,60.42045227
45,Stimuli/Morph45.JPG,Stimuli/Morph45.png,Stimuli/BlurLevel5/BlurEditedMorph45,Stimuli/BlurLevel5/BlurEditedMorph45.png,Stimuli/BlurLevel5/NumberedMorphs/BlurEditedMorph45.png,Stimuli/BlurLevel5/OriginalBlur/BlurEditedMorph45.png,Stimuli/BlurMorphTrio/EditedMorph45.png,010127right.gif,Stimuli/normal_thumbnails/45right.gif,,,,,0,0,0,0,0,41,41,44,,,,,,,,,,,,,,,,,,,,,,,75,42,1,304,1.397982259,-2.072593931,45,Experiment,,,,,,,,,10,48,-3,-3,,,,,,,,,,,,,,,495.4906305,495.9862497,495.4906305,495.9862497,95.91836735,1575566246,1575566248,1.848804951,1575566244,1575566246,,,s13,1,62,m,expert radiologist,2019_Dec_05_1109,AdjustEyeTrack,3.1.5,60.42045227
4,Stimuli/Morph4.JPG,Stimuli/Morph4.png,Stimuli/BlurLevel5/BlurEditedMorph4,Stimuli/BlurLevel5/BlurEditedMorph4.png,Stimuli/BlurLevel5/NumberedMorphs/BlurEditedMorph4.png,Stimuli/BlurLevel5/OriginalBlur/BlurEditedMorph4.png,Stimuli/BlurMorphTrio/EditedMorph4.png,010010right.gif,Stimuli/normal_thumbnails/4right.gif,,,,,0,0,0,0,0,42,42,3,,,,,,,,,,,,,,,,,,,,,,,70,43,1,298,1.173678907,-2.207368982,4,Experiment,,,,,,,,,48,143,-139,8,,,,,,,,,,,,,,,499.7863633,500.2854927,499.7863633,500.2854927,89.11564626,1575566251,1575566253,1.781411886,1575566249,1575566251,,,s13,1,62,m,expert radiologist,2019_Dec_05_1109,AdjustEyeTrack,3.1.5,60.42045227
123,Stimuli/Morph123.JPG,Stimuli/Morph123.png,Stimuli/BlurLevel5/BlurEditedMorph123,Stimuli/BlurLevel5/BlurEditedMorph123.png,Stimuli/BlurLevel5/NumberedMorphs/BlurEditedMorph123.png,Stimuli/BlurLevel5/OriginalBlur/BlurEditedMorph123.png,Stimuli/BlurMorphTrio/EditedMorph123.png,None,None,,,,,0,0,0,0,0,43,43,122,,,,,,,,,,,,,,,,,,,,,,,5,44,1,259,-0.477022488,-2.454067959,123,Experiment,,,,,,,,,72,2,121,-26,,,,,,,,,,,,,,,504.3537276,504.8694841,504.3537276,504.8694841,64.62585034,1575566255,1575566258,2.299394131,1575566253,1575566255,,,s13,1,62,m,expert radiologist,2019_Dec_05_1109,AdjustEyeTrack,3.1.5,60.42045227
67,Stimuli/Morph67.JPG,Stimuli/Morph67.png,Stimuli/BlurLevel5/BlurEditedMorph67,Stimuli/BlurLevel5/BlurEditedMorph67.png,Stimuli/BlurLevel5/NumberedMorphs/BlurEditedMorph67.png,Stimuli/BlurLevel5/OriginalBlur/BlurEditedMorph67.png,Stimuli/BlurMorphTrio/EditedMorph67.png,020217right.gif,Stimuli/normal_thumbnails/67right.gif,,,,,0,0,0,0,0,44,44,66,,,,,,,,,,,,,,,,,,,,,,,32,45,1,48,1.672826516,1.857862064,67,Experiment,,,,,,,,,10,65,2,2,,,,,,,,,,,,,,,509.6201297,510.1357335,509.6201297,510.1357335,97.27891156,1575566261,1575566265,4.149852991,1575566258,1575566261,,,s13,1,62,m,expert radiologist,2019_Dec_05_1109,AdjustEyeTrack,3.1.5,60.42045227
109,Stimuli/Morph109.JPG,Stimuli/Morph109.png,Stimuli/BlurLevel5/BlurEditedMorph109,Stimuli/BlurLevel5/BlurEditedMorph109.png,Stimuli/BlurLevel5/NumberedMorphs/BlurEditedMorph109.png,Stimuli/BlurLevel5/OriginalBlur/BlurEditedMorph109.png,Stimuli/BlurMorphTrio/EditedMorph109.png,None,None,,,,,0,0,0,0,0,45,45,108,,,,,,,,,,,,,,,,,,,,,,,89,46,1,299,1.212024051,-2.186549268,109,Experiment,,,,,,,,,26,88,21,21,,,,,,,,,,,,,,,516.8198486,517.3185297,516.8198486,517.3185297,71.42857143,1575566268,1575566270,2.099074125,1575566265,1575566268,,,s13,1,62,m,expert radiologist,2019_Dec_05_1109,AdjustEyeTrack,3.1.5,60.42045227
140,Stimuli/Morph140.JPG,Stimuli/Morph140.png,Stimuli/BlurLevel5/BlurEditedMorph140,Stimuli/BlurLevel5/BlurEditedMorph140.png,Stimuli/BlurLevel5/NumberedMorphs/BlurEditedMorph140.png,Stimuli/BlurLevel5/OriginalBlur/BlurEditedMorph140.png,Stimuli/BlurMorphTrio/EditedMorph140.png,None,None,,,,,0,0,0,0,0,46,46,139,,,,,,,,,,,,,,,,,,,,,,,10,47,1,304,1.397982259,-2.072593931,140,Experiment,,,,,,,,,48,140,0,0,,,,,,,,,,,,,,,521.7401781,522.2361087,521.7401781,522.2361087,100,1575566273,1575566275,2.65384984,1575566270,1575566273,,,s13,1,62,m,expert radiologist,2019_Dec_05_1109,AdjustEyeTrack,3.1.5,60.42045227
47,Stimuli/Morph47.JPG,Stimuli/Morph47.png,Stimuli/BlurLevel5/BlurEditedMorph47,Stimuli/BlurLevel5/BlurEditedMorph47.png,Stimuli/BlurLevel5/NumberedMorphs/BlurEditedMorph47.png,Stimuli/BlurLevel5/OriginalBlur/BlurEditedMorph47.png,Stimuli/BlurMorphTrio/EditedMorph47.png,010130right.gif,Stimuli/normal_thumbnails/47right.gif,,,,,0,0,0,0,0,47,47,46,,,,,,,,,,,,,,,,,,,,,,,57,48,1,304,1.397982259,-2.072593931,47,Experiment,,,,,,,,,113,51,-4,-4,,,,,,,,,,,,,,,527.4617443,527.9518899,527.4617443,527.9518899,94.55782313,1575566278,1575566281,2.26457715,1575566276,1575566278,,,s13,1,62,m,expert radiologist,2019_Dec_05_1109,AdjustEyeTrack,3.1.5,60.42045227
17,Stimuli/Morph17.JPG,Stimuli/Morph17.png,Stimuli/BlurLevel5/BlurEditedMorph17,Stimuli/BlurLevel5/BlurEditedMorph17.png,Stimuli/BlurLevel5/NumberedMorphs/BlurEditedMorph17.png,Stimuli/BlurLevel5/OriginalBlur/BlurEditedMorph17.png,Stimuli/BlurMorphTrio/EditedMorph17.png,010036right.gif,Stimuli/normal_thumbnails/17right.gif,,,,,0,0,0,0,0,48,48,16,,,,,,,,,,,,,,,,,,,,,,,1,49,1,328,2.12012024,-1.324798161,17,Experiment,,,,,,,,,28,19,-2,-2,,,,,,,,,,,,,,,531.687635,532.1857493,531.687635,532.1857493,97.27891156,1575566283,1575566284,1.317409992,1575566281,1575566283,,,s13,1,62,m,expert radiologist,2019_Dec_05_1109,AdjustEyeTrack,3.1.5,60.42045227
86,Stimuli/Morph86.JPG,Stimuli/Morph86.png,Stimuli/BlurLevel5/BlurEditedMorph86,Stimuli/BlurLevel5/BlurEditedMorph86.png,Stimuli/BlurLevel5/NumberedMorphs/BlurEditedMorph86.png,Stimuli/BlurLevel5/OriginalBlur/BlurEditedMorph86.png,Stimuli/BlurMorphTrio/EditedMorph86.png,020266right.gif,Stimuli/normal_thumbnails/86right.gif,,,,,0,0,0,0,0,49,49,85,,,,,,,,,,,,,,,,,,,,,,,83,50,1,121,-1.287595187,2.142918252,86,Experiment,,,,,,,,,37,131,-45,-45,,,,,,,,,,,,,,,536.0790309,536.568229,536.0790309,536.568229,38.7755102,1575566287,1575566291,3.717094183,1575566284,1575566287,,,s13,1,62,m,expert radiologist,2019_Dec_05_1109,AdjustEyeTrack,3.1.5,60.42045227
85,Stimuli/Morph85.JPG,Stimuli/Morph85.png,Stimuli/BlurLevel5/BlurEditedMorph85,Stimuli/BlurLevel5/BlurEditedMorph85.png,Stimuli/BlurLevel5/NumberedMorphs/BlurEditedMorph85.png,Stimuli/BlurLevel5/OriginalBlur/BlurEditedMorph85.png,Stimuli/BlurMorphTrio/EditedMorph85.png,020264right.gif,Stimuli/normal_thumbnails/85right.gif,,,,,0,0,0,0,0,50,50,84,,,,,,,,,,,,,,,,,,,,,,,63,51,1,208,-2.207368982,-1.173678907,85,Experiment,,,,,,,,,23,119,-34,-34,,,,,,,,,,,,,,,542.6465739,543.1521611,542.6465739,543.1521611,53.7414966,1575566294,1575566296,2.284693956,1575566291,1575566294,,,s13,1,62,m,expert radiologist,2019_Dec_05_1109,AdjustEyeTrack,3.1.5,60.42045227
60,Stimuli/Morph60.JPG,Stimuli/Morph60.png,Stimuli/BlurLevel5/BlurEditedMorph60,Stimuli/BlurLevel5/BlurEditedMorph60.png,Stimuli/BlurLevel5/NumberedMorphs/BlurEditedMorph60.png,Stimuli/BlurLevel5/OriginalBlur/BlurEditedMorph60.png,Stimuli/BlurMorphTrio/EditedMorph60.png,020200right.gif,Stimuli/normal_thumbnails/60right.gif,,,,,0,0,0,0,0,51,51,59,,,,,,,,,,,,,,,,,,,,,,,61,52,1,350,2.462019383,-0.434120444,60,Experiment,,,,,,,,,135,61,-1,-1,,,,,,,,,,,,,,,547.9227869,548.4185105,547.9227869,548.4185105,98.63945578,1575566299,1575566302,3.199429274,1575566296,1575566299,,,s13,1,62,m,expert radiologist,2019_Dec_05_1109,AdjustEyeTrack,3.1.5,60.42045227
7,Stimuli/Morph7.JPG,Stimuli/Morph7.png,Stimuli/BlurLevel5/BlurEditedMorph7,Stimuli/BlurLevel5/BlurEditedMorph7.png,Stimuli/BlurLevel5/NumberedMorphs/BlurEditedMorph7.png,Stimuli/BlurLevel5/OriginalBlur/BlurEditedMorph7.png,Stimuli/BlurMorphTrio/EditedMorph7.png,010013right.gif,Stimuli/normal_thumbnails/7right.gif,,,,,0,0,0,0,0,52,52,6,,,,,,,,,,,,,,,,,,,,,,,13,53,1,130,-1.606969024,1.915111108,7,Experiment,,,,,,,,,14,145,-138,9,,,,,,,,,,,,,,,553.7931368,554.2850325,553.7931368,554.2850325,87.75510204,1575566305,1575566306,1.412382841,1575566302,1575566305,,,s13,1,62,m,expert radiologist,2019_Dec_05_1109,AdjustEyeTrack,3.1.5,60.42045227
37,Stimuli/Morph37.JPG,Stimuli/Morph37.png,Stimuli/BlurLevel5/BlurEditedMorph37,Stimuli/BlurLevel5/BlurEditedMorph37.png,Stimuli/BlurLevel5/NumberedMorphs/BlurEditedMorph37.png,Stimuli/BlurLevel5/OriginalBlur/BlurEditedMorph37.png,Stimuli/BlurMorphTrio/EditedMorph37.png,010097right.gif,Stimuli/normal_thumbnails/37right.gif,,,,,0,0,0,0,0,53,53,36,,,,,,,,,,,,,,,,,,,,,,,5,54,1,23,2.301262134,0.976827821,37,Experiment,,,,,,,,,84,35,2,2,,,,,,,,,,,,,,,557.8770508,558.3691766,557.8770508,558.3691766,97.27891156,1575566309,1575566312,3.466696024,1575566306,1575566309,,,s13,1,62,m,expert radiologist,2019_Dec_05_1109,AdjustEyeTrack,3.1.5,60.42045227
131,Stimuli/Morph131.JPG,Stimuli/Morph131.png,Stimuli/BlurLevel5/BlurEditedMorph131,Stimuli/BlurLevel5/BlurEditedMorph131.png,Stimuli/BlurLevel5/NumberedMorphs/BlurEditedMorph131.png,Stimuli/BlurLevel5/OriginalBlur/BlurEditedMorph131.png,Stimuli/BlurMorphTrio/EditedMorph131.png,None,None,,,,,0,0,0,0,0,54,54,130,,,,,,,,,,,,,,,,,,,,,,,25,55,1,322,1.970026884,-1.539153688,131,Experiment,,,,,,,,,57,10,121,-26,,,,,,,,,,,,,,,564.0017196,564.5011326,564.0017196,564.5011326,64.62585034,1575566315,1575566317,1.91771102,1575566313,1575566315,,,s13,1,62,m,expert radiologist,2019_Dec_05_1109,AdjustEyeTrack,3.1.5,60.42045227
114,Stimuli/Morph114.JPG,Stimuli/Morph114.png,Stimuli/BlurLevel5/BlurEditedMorph114,Stimuli/BlurLevel5/BlurEditedMorph114.png,Stimuli/BlurLevel5/NumberedMorphs/BlurEditedMorph114.png,Stimuli/BlurLevel5/OriginalBlur/BlurEditedMorph114.png,Stimuli/BlurMorphTrio/EditedMorph114.png,None,None,,,,,0,0,0,0,0,55,55,113,,,,,,,,,,,,,,,,,,,,,,,69,56,1,260,-0.434120444,-2.462019383,114,Experiment,,,,,,,,,55,55,59,59,,,,,,,,,,,,,,,569.0603532,569.5512318,569.0603532,569.5512318,19.72789116,1575566320,1575566320,0.363760948,1575566317,1575566320,,,s13,1,62,m,expert radiologist,2019_Dec_05_1109,AdjustEyeTrack,3.1.5,60.42045227
97,Stimuli/Morph97.JPG,Stimuli/Morph97.png,Stimuli/BlurLevel5/BlurEditedMorph97,Stimuli/BlurLevel5/BlurEditedMorph97.png,Stimuli/BlurLevel5/NumberedMorphs/BlurEditedMorph97.png,Stimuli/BlurLevel5/OriginalBlur/BlurEditedMorph97.png,Stimuli/BlurMorphTrio/EditedMorph97.png,020294right.gif,Stimuli/normal_thumbnails/97right.gif,,,,,0,0,0,0,0,56,56,96,,,,,,,,,,,,,,,,,,,,,,,92,57,1,188,-2.475670172,-0.347932752,97,Experiment,,,,,,,,,118,118,-21,-21,,,,,,,,,,,,,,,572.9721711,573.4686763,572.9721711,573.4686763,71.42857143,1575566324,1575566325,1.449975729,1575566321,1575566324,,,s13,1,62,m,expert radiologist,2019_Dec_05_1109,AdjustEyeTrack,3.1.5,60.42045227
102,Stimuli/Morph102.JPG,Stimuli/Morph102.png,Stimuli/BlurLevel5/BlurEditedMorph102,Stimuli/BlurLevel5/BlurEditedMorph102.png,Stimuli/BlurLevel5/NumberedMorphs/BlurEditedMorph102.png,Stimuli/BlurLevel5/OriginalBlur/BlurEditedMorph102.png,Stimuli/BlurMorphTrio/EditedMorph102.png,None,None,,,,,0,0,0,0,0,57,57,101,,,,,,,,,,,,,,,,,,,,,,,34,58,1,349,2.454067959,-0.477022488,102,Experiment,,,,,,,,,59,117,-15,-15,,,,,,,,,,,,,,,577.4605252,577.9514799,577.4605252,577.9514799,79.59183673,1575566328,1575566332,3.232824087,1575566326,1575566328,,,s13,1,62,m,expert radiologist,2019_Dec_05_1109,AdjustEyeTrack,3.1.5,60.42045227
24,Stimuli/Morph24.JPG,Stimuli/Morph24.png,Stimuli/BlurLevel5/BlurEditedMorph24,Stimuli/BlurLevel5/BlurEditedMorph24.png,Stimuli/BlurLevel5/NumberedMorphs/BlurEditedMorph24.png,Stimuli/BlurLevel5/OriginalBlur/BlurEditedMorph24.png,Stimuli/BlurMorphTrio/EditedMorph24.png,010068right.gif,Stimuli/normal_thumbnails/24right.gif,,,,,0,0,0,0,0,58,58,23,,,,,,,,,,,,,,,,,,,,,,,84,59,1,222,-1.857862064,-1.672826516,24,Experiment,,,,,,,,,87,16,8,8,,,,,,,,,,,,,,,583.4018711,583.9009748,583.4018711,583.9009748,89.11564626,1575566334,1575566337,2.533667088,1575566332,1575566334,,,s13,1,62,m,expert radiologist,2019_Dec_05_1109,AdjustEyeTrack,3.1.5,60.42045227
144,Stimuli/Morph144.JPG,Stimuli/Morph144.png,Stimuli/BlurLevel5/BlurEditedMorph144,Stimuli/BlurLevel5/BlurEditedMorph144.png,Stimuli/BlurLevel5/NumberedMorphs/BlurEditedMorph144.png,Stimuli/BlurLevel5/OriginalBlur/BlurEditedMorph144.png,Stimuli/BlurMorphTrio/EditedMorph144.png,None,None,,,,,0,0,0,0,0,59,59,143,,,,,,,,,,,,,,,,,,,,,,,8,60,1,93,-0.130839891,2.496573837,144,Experiment,,,,,,,,,58,139,5,5,,,,,,,,,,,,,,,588.901088,589.4014767,588.901088,589.4014767,93.19727891,1575566340,1575566343,2.664364576,1575566337,1575566340,,,s13,1,62,m,expert radiologist,2019_Dec_05_1109,AdjustEyeTrack,3.1.5,60.42045227
132,Stimuli/Morph132.JPG,Stimuli/Morph132.png,Stimuli/BlurLevel5/BlurEditedMorph132,Stimuli/BlurLevel5/BlurEditedMorph132.png,Stimuli/BlurLevel5/NumberedMorphs/BlurEditedMorph132.png,Stimuli/BlurLevel5/OriginalBlur/BlurEditedMorph132.png,Stimuli/BlurMorphTrio/EditedMorph132.png,None,None,,,,,0,0,0,0,0,60,60,131,,,,,,,,,,,,,,,,,,,,,,,42,61,1,295,1.056545654,-2.265769468,132,Experiment,,,,,,,,,136,136,-4,-4,,,,,,,,,,,,,,,594.5344628,595.0347566,594.5344628,595.0347566,94.55782313,1575566346,1575566347,0.967218876,1575566343,1575566346,,,s13,1,62,m,expert radiologist,2019_Dec_05_1109,AdjustEyeTrack,3.1.5,60.42045227
18,Stimuli/Morph18.JPG,Stimuli/Morph18.png,Stimuli/BlurLevel5/BlurEditedMorph18,Stimuli/BlurLevel5/BlurEditedMorph18.png,Stimuli/BlurLevel5/NumberedMorphs/BlurEditedMorph18.png,Stimuli/BlurLevel5/OriginalBlur/BlurEditedMorph18.png,Stimuli/BlurMorphTrio/EditedMorph18.png,010039right.gif,Stimuli/normal_thumbnails/18right.gif,,,,,0,0,0,0,0,61,61,17,,,,,,,,,,,,,,,,,,,,,,,95,62,1,51,1.573300978,1.942864904,18,Experiment,,,,,,,,,64,17,1,1,,,,,,,,,,,,,,,598.8035297,599.3024227,598.8035297,599.3024227,98.63945578,1575566350,1575566352,2.649902821,1575566347,1575566350,,,s13,1,62,m,expert radiologist,2019_Dec_05_1109,AdjustEyeTrack,3.1.5,60.42045227
69,Stimuli/Morph69.JPG,Stimuli/Morph69.png,Stimuli/BlurLevel5/BlurEditedMorph69,Stimuli/BlurLevel5/BlurEditedMorph69.png,Stimuli/BlurLevel5/NumberedMorphs/BlurEditedMorph69.png,Stimuli/BlurLevel5/OriginalBlur/BlurEditedMorph69.png,Stimuli/BlurMorphTrio/EditedMorph69.png,020220right.gif,Stimuli/normal_thumbnails/69right.gif,,,,,0,0,0,0,0,62,62,68,,,,,,,,,,,,,,,,,,,,,,,75,63,1,80,0.434120444,2.462019383,69,Experiment,,,,,,,,,65,59,10,10,,,,,,,,,,,,,,,603.9221591,604.4181329,603.9221591,604.4181329,86.39455782,1575566355,1575566358,2.617643118,1575566353,1575566355,,,s13,1,62,m,expert radiologist,2019_Dec_05_1109,AdjustEyeTrack,3.1.5,60.42045227
141,Stimuli/Morph141.JPG,Stimuli/Morph141.png,Stimuli/BlurLevel5/BlurEditedMorph141,Stimuli/BlurLevel5/BlurEditedMorph141.png,Stimuli/BlurLevel5/NumberedMorphs/BlurEditedMorph141.png,Stimuli/BlurLevel5/OriginalBlur/BlurEditedMorph141.png,Stimuli/BlurMorphTrio/EditedMorph141.png,None,None,,,,,0,0,0,0,0,63,63,140,,,,,,,,,,,,,,,,,,,,,,,77,64,1,233,-1.504537558,-1.996588775,141,Experiment,,,,,,,,,145,143,-2,-2,,,,,,,,,,,,,,,609.4009935,609.9009281,609.4009935,609.9009281,97.27891156,1575566361,1575566364,3.385911942,1575566358,1575566361,,,s13,1,62,m,expert radiologist,2019_Dec_05_1109,AdjustEyeTrack,3.1.5,60.42045227
118,Stimuli/Morph118.JPG,Stimuli/Morph118.png,Stimuli/BlurLevel5/BlurEditedMorph118,Stimuli/BlurLevel5/BlurEditedMorph118.png,Stimuli/BlurLevel5/NumberedMorphs/BlurEditedMorph118.png,Stimuli/BlurLevel5/OriginalBlur/BlurEditedMorph118.png,Stimuli/BlurMorphTrio/EditedMorph118.png,None,None,,,,,0,0,0,0,0,64,64,117,,,,,,,,,,,,,,,,,,,,,,,56,65,1,143,-1.996588775,1.504537558,118,Experiment,,,,,,,,,29,123,-5,-5,,,,,,,,,,,,,,,615.6063467,616.101231,615.6063467,616.101231,93.19727891,1575566367,1575566369,2.74898839,1575566364,1575566367,,,s13,1,62,m,expert radiologist,2019_Dec_05_1109,AdjustEyeTrack,3.1.5,60.42045227
128,Stimuli/Morph128.JPG,Stimuli/Morph128.png,Stimuli/BlurLevel5/BlurEditedMorph128,Stimuli/BlurLevel5/BlurEditedMorph128.png,Stimuli/BlurLevel5/NumberedMorphs/BlurEditedMorph128.png,Stimuli/BlurLevel5/OriginalBlur/BlurEditedMorph128.png,Stimuli/BlurMorphTrio/EditedMorph128.png,None,None,,,,,0,0,0,0,0,65,65,127,,,,,,,,,,,,,,,,,,,,,,,42,66,1,203,-2.301262134,-0.976827821,128,Experiment,,,,,,,,,60,119,9,9,,,,,,,,,,,,,,,621.0517867,621.5506231,621.0517867,621.5506231,87.75510204,1575566372,1575566376,3.462894201,1575566370,1575566372,,,s13,1,62,m,expert radiologist,2019_Dec_05_1109,AdjustEyeTrack,3.1.5,60.42045227
124,Stimuli/Morph124.JPG,Stimuli/Morph124.png,Stimuli/BlurLevel5/BlurEditedMorph124,Stimuli/BlurLevel5/BlurEditedMorph124.png,Stimuli/BlurLevel5/NumberedMorphs/BlurEditedMorph124.png,Stimuli/BlurLevel5/OriginalBlur/BlurEditedMorph124.png,Stimuli/BlurMorphTrio/EditedMorph124.png,None,None,,,,,0,0,0,0,0,66,66,123,,,,,,,,,,,,,,,,,,,,,,,72,67,1,70,0.855050358,2.349231552,124,Experiment,,,,,,,,,27,122,2,2,,,,,,,,,,,,,,,627.4177036,627.9343985,627.4177036,627.9343985,97.27891156,1575566378,1575566380,1.916003227,1575566376,1575566378,,,s13,1,62,m,expert radiologist,2019_Dec_05_1109,AdjustEyeTrack,3.1.5,60.42045227
100,Stimuli/Morph100.JPG,Stimuli/Morph100.png,Stimuli/BlurLevel5/BlurEditedMorph100,Stimuli/BlurLevel5/BlurEditedMorph100.png,Stimuli/BlurLevel5/NumberedMorphs/BlurEditedMorph100.png,Stimuli/BlurLevel5/OriginalBlur/BlurEditedMorph100.png,Stimuli/BlurMorphTrio/EditedMorph100.png,020297right.gif,Stimuli/normal_thumbnails/100right.gif,,,,,0,0,0,0,0,67,67,99,,,,,,,,,,,,,,,,,,,,,,,97,68,1,11,2.454067959,0.477022488,100,Experiment,,,,,,,,,33,113,-13,-13,,,,,,,,,,,,,,,632.4049938,632.9031331,632.4049938,632.9031331,82.31292517,1575566383,1575566386,2.332886219,1575566381,1575566383,,,s13,1,62,m,expert radiologist,2019_Dec_05_1109,AdjustEyeTrack,3.1.5,60.42045227
94,Stimuli/Morph94.JPG,Stimuli/Morph94.png,Stimuli/BlurLevel5/BlurEditedMorph94,Stimuli/BlurLevel5/BlurEditedMorph94.png,Stimuli/BlurLevel5/NumberedMorphs/BlurEditedMorph94.png,Stimuli/BlurLevel5/OriginalBlur/BlurEditedMorph94.png,Stimuli/BlurMorphTrio/EditedMorph94.png,020286right.gif,Stimuli/normal_thumbnails/94right.gif,,,,,0,0,0,0,0,68,68,93,,,,,,,,,,,,,,,,,,,,,,,30,69,1,242,-1.173678907,-2.207368982,94,Experiment,,,,,,,,,51,115,-21,-21,,,,,,,,,,,,,,,637.6611662,638.1504697,637.6611662,638.1504697,71.42857143,1575566389,1575566391,2.716902971,1575566386,1575566389,,,s13,1,62,m,expert radiologist,2019_Dec_05_1109,AdjustEyeTrack,3.1.5,60.42045227
143,Stimuli/Morph143.JPG,Stimuli/Morph143.png,Stimuli/BlurLevel5/BlurEditedMorph143,Stimuli/BlurLevel5/BlurEditedMorph143.png,Stimuli/BlurLevel5/NumberedMorphs/BlurEditedMorph143.png,Stimuli/BlurLevel5/OriginalBlur/BlurEditedMorph143.png,Stimuli/BlurMorphTrio/EditedMorph143.png,None,None,,,,,0,0,0,0,0,69,69,142,,,,,,,,,,,,,,,,,,,,,,,55,70,1,334,2.246985116,-1.095927867,143,Experiment,,,,,,,,,38,132,11,11,,,,,,,,,,,,,,,643.1507547,643.6507846,643.1507547,643.6507846,85.03401361,1575566394,1575566398,3.532773018,1575566392,1575566394,,,s13,1,62,m,expert radiologist,2019_Dec_05_1109,AdjustEyeTrack,3.1.5,60.42045227
73,Stimuli/Morph73.JPG,Stimuli/Morph73.png,Stimuli/BlurLevel5/BlurEditedMorph73,Stimuli/BlurLevel5/BlurEditedMorph73.png,Stimuli/BlurLevel5/NumberedMorphs/BlurEditedMorph73.png,Stimuli/BlurLevel5/OriginalBlur/BlurEditedMorph73.png,Stimuli/BlurMorphTrio/EditedMorph73.png,020230right.gif,Stimuli/normal_thumbnails/73right.gif,,,,,0,0,0,0,0,70,70,72,,,,,,,,,,,,,,,,,,,,,,,53,71,1,124,-1.397982259,2.072593931,73,Experiment,,,,,,,,,118,61,12,12,,,,,,,,,,,,,,,649.8336375,650.3346224,649.8336375,650.3346224,83.67346939,1575566401,1575566402,1.56634903,1575566398,1575566401,,,s13,1,62,m,expert radiologist,2019_Dec_05_1109,AdjustEyeTrack,3.1.5,60.42045227
135,Stimuli/Morph135.JPG,Stimuli/Morph135.png,Stimuli/BlurLevel5/BlurEditedMorph135,Stimuli/BlurLevel5/BlurEditedMorph135.png,Stimuli/BlurLevel5/NumberedMorphs/BlurEditedMorph135.png,Stimuli/BlurLevel5/OriginalBlur/BlurEditedMorph135.png,Stimuli/BlurMorphTrio/EditedMorph135.png,None,None,,,,,0,0,0,0,0,71,71,134,,,,,,,,,,,,,,,,,,,,,,,40,72,1,285,0.647047613,-2.414814566,135,Experiment,,,,,,,,,6,147,-12,-12,,,,,,,,,,,,,,,654.3360141,654.8505004,654.3360141,654.8505004,83.67346939,1575566405,1575566407,1.466794014,1575566403,1575566405,,,s13,1,62,m,expert radiologist,2019_Dec_05_1109,AdjustEyeTrack,3.1.5,60.42045227
2,Stimuli/Morph2.JPG,Stimuli/Morph2.png,Stimuli/BlurLevel5/BlurEditedMorph2,Stimuli/BlurLevel5/BlurEditedMorph2.png,Stimuli/BlurLevel5/NumberedMorphs/BlurEditedMorph2.png,Stimuli/BlurLevel5/OriginalBlur/BlurEditedMorph2.png,Stimuli/BlurMorphTrio/EditedMorph2.png,010006right.gif,Stimuli/normal_thumbnails/2right.gif,,,,,0,0,0,0,0,72,72,1,,,,,,,,,,,,,,,,,,,,,,,40,73,1,235,-1.433941091,-2.047880111,2,Experiment,,,,,,,,,135,128,-126,21,,,,,,,,,,,,,,,658.1936445,658.7006256,658.1936445,658.7006256,71.42857143,1575566409,1575566411,2.133467197,1575566407,1575566409,,,s13,1,62,m,expert radiologist,2019_Dec_05_1109,AdjustEyeTrack,3.1.5,60.42045227
76,Stimuli/Morph76.JPG,Stimuli/Morph76.png,Stimuli/BlurLevel5/BlurEditedMorph76,Stimuli/BlurLevel5/BlurEditedMorph76.png,Stimuli/BlurLevel5/NumberedMorphs/BlurEditedMorph76.png,Stimuli/BlurLevel5/OriginalBlur/BlurEditedMorph76.png,Stimuli/BlurMorphTrio/EditedMorph76.png,020234right.gif,Stimuli/normal_thumbnails/76right.gif,,,,,0,0,0,0,0,73,73,75,,,,,,,,,,,,,,,,,,,,,,,12,74,1,285,0.647047613,-2.414814566,76,Experiment,,,,,,,,,32,111,-35,-35,,,,,,,,,,,,,,,663.6011344,664.0997536,663.6011344,664.0997536,52.38095238,1575566415,1575566416,1.903280735,1575566412,1575566415,,,s13,1,62,m,expert radiologist,2019_Dec_05_1109,AdjustEyeTrack,3.1.5,60.42045227
117,Stimuli/Morph117.JPG,Stimuli/Morph117.png,Stimuli/BlurLevel5/BlurEditedMorph117,Stimuli/BlurLevel5/BlurEditedMorph117.png,Stimuli/BlurLevel5/NumberedMorphs/BlurEditedMorph117.png,Stimuli/BlurLevel5/OriginalBlur/BlurEditedMorph117.png,Stimuli/BlurMorphTrio/EditedMorph117.png,None,None,,,,,0,0,0,0,0,74,74,116,,,,,,,,,,,,,,,,,,,,,,,73,75,1,38,1.970026884,1.539153688,117,Experiment,,,,,,,,,25,120,-3,-3,,,,,,,,,,,,,,,668.1165171,668.6340413,668.1165171,668.6340413,95.91836735,1575566419,1575566421,1.783261061,1575566417,1575566419,,,s13,1,62,m,expert radiologist,2019_Dec_05_1109,AdjustEyeTrack,3.1.5,60.42045227
139,Stimuli/Morph139.JPG,Stimuli/Morph139.png,Stimuli/BlurLevel5/BlurEditedMorph139,Stimuli/BlurLevel5/BlurEditedMorph139.png,Stimuli/BlurLevel5/NumberedMorphs/BlurEditedMorph139.png,Stimuli/BlurLevel5/OriginalBlur/BlurEditedMorph139.png,Stimuli/BlurMorphTrio/EditedMorph139.png,None,None,,,,,0,0,0,0,0,75,75,138,,,,,,,,,,,,,,,,,,,,,,,17,76,1,237,-1.361597588,-2.09667642,139,Experiment,,,,,,,,,84,137,2,2,,,,,,,,,,,,,,,672.538231,673.0338578,672.538231,673.0338578,97.27891156,1575566424,1575566425,1.667136908,1575566421,1575566424,,,s13,1,62,m,expert radiologist,2019_Dec_05_1109,AdjustEyeTrack,3.1.5,60.42045227
59,Stimuli/Morph59.JPG,Stimuli/Morph59.png,Stimuli/BlurLevel5/BlurEditedMorph59,Stimuli/BlurLevel5/BlurEditedMorph59.png,Stimuli/BlurLevel5/NumberedMorphs/BlurEditedMorph59.png,Stimuli/BlurLevel5/OriginalBlur/BlurEditedMorph59.png,Stimuli/BlurMorphTrio/EditedMorph59.png,010160right.gif,Stimuli/normal_thumbnails/59right.gif,,,,,0,0,0,0,0,76,76,58,,,,,,,,,,,,,,,,,,,,,,,59,77,1,97,-0.304673359,2.481365379,59,Experiment,,,,,,,,,14,48,11,11,,,,,,,,,,,,,,,676.4669665,676.9666617,676.4669665,676.9666617,85.03401361,1575566427,1575566429,1.603078365,1575566425,1575566427,,,s13,1,62,m,expert radiologist,2019_Dec_05_1109,AdjustEyeTrack,3.1.5,60.42045227
87,Stimuli/Morph87.JPG,Stimuli/Morph87.png,Stimuli/BlurLevel5/BlurEditedMorph87,Stimuli/BlurLevel5/BlurEditedMorph87.png,Stimuli/BlurLevel5/NumberedMorphs/BlurEditedMorph87.png,Stimuli/BlurLevel5/OriginalBlur/BlurEditedMorph87.png,Stimuli/BlurMorphTrio/EditedMorph87.png,020270right.gif,Stimuli/normal_thumbnails/87right.gif,,,,,0,0,0,0,0,77,77,86,,,,,,,,,,,,,,,,,,,,,,,72,78,1,309,1.573300978,-1.942864904,87,Experiment,,,,,,,,,62,69,18,18,,,,,,,,,,,,,,,680.9367904,681.433528,680.9367904,681.433528,75.51020408,1575566432,1575566436,3.715867758,1575566429,1575566432,,,s13,1,62,m,expert radiologist,2019_Dec_05_1109,AdjustEyeTrack,3.1.5,60.42045227
68,Stimuli/Morph68.JPG,Stimuli/Morph68.png,Stimuli/BlurLevel5/BlurEditedMorph68,Stimuli/BlurLevel5/BlurEditedMorph68.png,Stimuli/BlurLevel5/NumberedMorphs/BlurEditedMorph68.png,Stimuli/BlurLevel5/OriginalBlur/BlurEditedMorph68.png,Stimuli/BlurMorphTrio/EditedMorph68.png,020218right.gif,Stimuli/normal_thumbnails/68right.gif,,,,,0,0,0,0,0,78,78,67,,,,,,,,,,,,,,,,,,,,,,,54,79,1,214,-2.072593931,-1.397982259,68,Experiment,,,,,,,,,114,62,6,6,,,,,,,,,,,,,,,687.374106,687.8668807,687.374106,687.8668807,91.83673469,1575566438,1575566442,3.83341527,1575566436,1575566438,,,s13,1,62,m,expert radiologist,2019_Dec_05_1109,AdjustEyeTrack,3.1.5,60.42045227
112,Stimuli/Morph112.JPG,Stimuli/Morph112.png,Stimuli/BlurLevel5/BlurEditedMorph112,Stimuli/BlurLevel5/BlurEditedMorph112.png,Stimuli/BlurLevel5/NumberedMorphs/BlurEditedMorph112.png,Stimuli/BlurLevel5/OriginalBlur/BlurEditedMorph112.png,Stimuli/BlurMorphTrio/EditedMorph112.png,None,None,,,,,0,0,0,0,0,79,79,111,,,,,,,,,,,,,,,,,,,,,,,69,80,1,152,-2.207368982,1.173678907,112,Experiment,,,,,,,,,90,91,21,21,,,,,,,,,,,,,,,694.3196716,694.8181149,694.3196716,694.8181149,71.42857143,1575566445,1575566447,1.552489042,1575566442,1575566445,,,s13,1,62,m,expert radiologist,2019_Dec_05_1109,AdjustEyeTrack,3.1.5,60.42045227
92,Stimuli/Morph92.JPG,Stimuli/Morph92.png,Stimuli/BlurLevel5/BlurEditedMorph92,Stimuli/BlurLevel5/BlurEditedMorph92.png,Stimuli/BlurLevel5/NumberedMorphs/BlurEditedMorph92.png,Stimuli/BlurLevel5/OriginalBlur/BlurEditedMorph92.png,Stimuli/BlurMorphTrio/EditedMorph92.png,020277right.gif,Stimuli/normal_thumbnails/92right.gif,,,,,0,0,0,0,0,80,80,91,,,,,,,,,,,,,,,,,,,,,,,67,81,1,282,0.519779227,-2.445369002,92,Experiment,,,,,,,,,19,113,-21,-21,,,,,,,,,,,,,,,698.8066158,699.3007112,698.8066158,699.3007112,71.42857143,1575566450,1575566454,3.870382786,1575566447,1575566450,,,s13,1,62,m,expert radiologist,2019_Dec_05_1109,AdjustEyeTrack,3.1.5,60.42045227
134,Stimuli/Morph134.JPG,Stimuli/Morph134.png,Stimuli/BlurLevel5/BlurEditedMorph134,Stimuli/BlurLevel5/BlurEditedMorph134.png,Stimuli/BlurLevel5/NumberedMorphs/BlurEditedMorph134.png,Stimuli/BlurLevel5/OriginalBlur/BlurEditedMorph134.png,Stimuli/BlurMorphTrio/EditedMorph134.png,None,None,,,,,0,0,0,0,0,81,81,133,,,,,,,,,,,,,,,,,,,,,,,78,82,1,151,-2.186549268,1.212024051,134,Experiment,,,,,,,,,103,147,-13,-13,,,,,,,,,,,,,,,705.0163708,705.5165987,705.0163708,705.5165987,82.31292517,1575566456,1575566459,3.018110991,1575566454,1575566456,,,s13,1,62,m,expert radiologist,2019_Dec_05_1109,AdjustEyeTrack,3.1.5,60.42045227
34,Stimuli/Morph34.JPG,Stimuli/Morph34.png,Stimuli/BlurLevel5/BlurEditedMorph34,Stimuli/BlurLevel5/BlurEditedMorph34.png,Stimuli/BlurLevel5/NumberedMorphs/BlurEditedMorph34.png,Stimuli/BlurLevel5/OriginalBlur/BlurEditedMorph34.png,Stimuli/BlurMorphTrio/EditedMorph34.png,010090right.gif,Stimuli/normal_thumbnails/34right.gif,,,,,0,0,0,0,0,82,82,33,,,,,,,,,,,,,,,,,,,,,,,11,83,1,348,2.445369002,-0.519779227,34,Experiment,,,,,,,,,31,31,3,3,,,,,,,,,,,,,,,711.5421396,712.0332688,711.5421396,712.0332688,95.91836735,1575566463,1575566463,0.949901104,1575566459,1575566463,,,s13,1,62,m,expert radiologist,2019_Dec_05_1109,AdjustEyeTrack,3.1.5,60.42045227
9,Stimuli/Morph9.JPG,Stimuli/Morph9.png,Stimuli/BlurLevel5/BlurEditedMorph9,Stimuli/BlurLevel5/BlurEditedMorph9.png,Stimuli/BlurLevel5/NumberedMorphs/BlurEditedMorph9.png,Stimuli/BlurLevel5/OriginalBlur/BlurEditedMorph9.png,Stimuli/BlurMorphTrio/EditedMorph9.png,010015right.gif,Stimuli/normal_thumbnails/9right.gif,,,,,0,0,0,0,0,83,83,8,,,,,,,,,,,,,,,,,,,,,,,84,84,1,239,-1.287595187,-2.142918252,9,Experiment,,,,,,,,,104,2,7,7,,,,,,,,,,,,,,,715.0392409,715.5335029,715.0392409,715.5335029,90.47619048,1575566466,1575566469,2.850887775,1575566464,1575566466,,,s13,1,62,m,expert radiologist,2019_Dec_05_1109,AdjustEyeTrack,3.1.5,60.42045227
52,Stimuli/Morph52.JPG,Stimuli/Morph52.png,Stimuli/BlurLevel5/BlurEditedMorph52,Stimuli/BlurLevel5/BlurEditedMorph52.png,Stimuli/BlurLevel5/NumberedMorphs/BlurEditedMorph52.png,Stimuli/BlurLevel5/OriginalBlur/BlurEditedMorph52.png,Stimuli/BlurMorphTrio/EditedMorph52.png,010148right.gif,Stimuli/normal_thumbnails/52right.gif,,,,,0,0,0,0,0,84,84,51,,,,,,,,,,,,,,,,,,,,,,,64,85,1,259,-0.477022488,-2.454067959,52,Experiment,,,,,,,,,144,48,4,4,,,,,,,,,,,,,,,720.3744898,720.8661348,720.3744898,720.8661348,94.55782313,1575566471,1575566473,1.682482243,1575566469,1575566471,,,s13,1,62,m,expert radiologist,2019_Dec_05_1109,AdjustEyeTrack,3.1.5,60.42045227
26,Stimuli/Morph26.JPG,Stimuli/Morph26.png,Stimuli/BlurLevel5/BlurEditedMorph26,Stimuli/BlurLevel5/BlurEditedMorph26.png,Stimuli/BlurLevel5/NumberedMorphs/BlurEditedMorph26.png,Stimuli/BlurLevel5/OriginalBlur/BlurEditedMorph26.png,Stimuli/BlurMorphTrio/EditedMorph26.png,010070right.gif,Stimuli/normal_thumbnails/26right.gif,,,,,1,0,1,0,0,0,0,25,,,,,,,,,,,,,,,,,,,,,,,46,1,2,103,-0.562377636,2.435925162,26,Experiment,,,,,,,,,145,23,3,3,,,,,,,,,,,,,,,756.1727619,756.6671916,756.1727619,756.6671916,95.91836735,1575566507,1575566509,2.265611887,1575566505,1575566507,space,31.60722893,s13,1,62,m,expert radiologist,2019_Dec_05_1109,AdjustEyeTrack,3.1.5,60.42045227
78,Stimuli/Morph78.JPG,Stimuli/Morph78.png,Stimuli/BlurLevel5/BlurEditedMorph78,Stimuli/BlurLevel5/BlurEditedMorph78.png,Stimuli/BlurLevel5/NumberedMorphs/BlurEditedMorph78.png,Stimuli/BlurLevel5/OriginalBlur/BlurEditedMorph78.png,Stimuli/BlurMorphTrio/EditedMorph78.png,020238right.gif,Stimuli/normal_thumbnails/78right.gif,,,,,1,0,1,0,0,1,1,77,,,,,,,,,,,,,,,,,,,,,,,16,2,2,120,-1.25,2.165063509,78,Experiment,,,,,,,,,86,112,-34,-34,,,,,,,,,,,,,,,761.3767885,761.8656734,761.3767885,761.8656734,53.7414966,1575566512,1575566514,1.93470192,1575566510,1575566512,,,s13,1,62,m,expert radiologist,2019_Dec_05_1109,AdjustEyeTrack,3.1.5,60.42045227
31,Stimuli/Morph31.JPG,Stimuli/Morph31.png,Stimuli/BlurLevel5/BlurEditedMorph31,Stimuli/BlurLevel5/BlurEditedMorph31.png,Stimuli/BlurLevel5/NumberedMorphs/BlurEditedMorph31.png,Stimuli/BlurLevel5/OriginalBlur/BlurEditedMorph31.png,Stimuli/BlurMorphTrio/EditedMorph31.png,010079right.gif,Stimuli/normal_thumbnails/31right.gif,,,,,1,0,1,0,0,2,2,30,,,,,,,,,,,,,,,,,,,,,,,41,3,2,322,1.970026884,-1.539153688,31,Experiment,,,,,,,,,47,32,-1,-1,,,,,,,,,,,,,,,766.1864957,766.6827694,766.1864957,766.6827694,98.63945578,1575566517,1575566519,2.034184933,1575566515,1575566517,,,s13,1,62,m,expert radiologist,2019_Dec_05_1109,AdjustEyeTrack,3.1.5,60.42045227
66,Stimuli/Morph66.JPG,Stimuli/Morph66.png,Stimuli/BlurLevel5/BlurEditedMorph66,Stimuli/BlurLevel5/BlurEditedMorph66.png,Stimuli/BlurLevel5/NumberedMorphs/BlurEditedMorph66.png,Stimuli/BlurLevel5/OriginalBlur/BlurEditedMorph66.png,Stimuli/BlurMorphTrio/EditedMorph66.png,020212right.gif,Stimuli/normal_thumbnails/66right.gif,,,,,1,0,1,0,0,3,3,65,,,,,,,,,,,,,,,,,,,,,,,74,4,2,250,-0.855050358,-2.349231552,66,Experiment,,,,,,,,,95,102,-36,-36,,,,,,,,,,,,,,,771.0849131,771.5831003,771.0849131,771.5831003,51.02040816,1575566522,1575566524,1.767179012,1575566519,1575566522,,,s13,1,62,m,expert radiologist,2019_Dec_05_1109,AdjustEyeTrack,3.1.5,60.42045227
30,Stimuli/Morph30.JPG,Stimuli/Morph30.png,Stimuli/BlurLevel5/BlurEditedMorph30,Stimuli/BlurLevel5/BlurEditedMorph30.png,Stimuli/BlurLevel5/NumberedMorphs/BlurEditedMorph30.png,Stimuli/BlurLevel5/OriginalBlur/BlurEditedMorph30.png,Stimuli/BlurMorphTrio/EditedMorph30.png,010076right.gif,Stimuli/normal_thumbnails/30right.gif,,,,,1,0,1,0,0,4,4,29,,,,,,,,,,,,,,,,,,,,,,,51,5,2,205,-2.265769468,-1.056545654,30,Experiment,,,,,,,,,108,23,7,7,,,,,,,,,,,,,,,775.7732509,776.2655671,775.7732509,776.2655671,90.47619048,1575566527,1575566530,3.03631711,1575566524,1575566527,,,s13,1,62,m,expert radiologist,2019_Dec_05_1109,AdjustEyeTrack,3.1.5,60.42045227
137,Stimuli/Morph137.JPG,Stimuli/Morph137.png,Stimuli/BlurLevel5/BlurEditedMorph137,Stimuli/BlurLevel5/BlurEditedMorph137.png,Stimuli/BlurLevel5/NumberedMorphs/BlurEditedMorph137.png,Stimuli/BlurLevel5/OriginalBlur/BlurEditedMorph137.png,Stimuli/BlurMorphTrio/EditedMorph137.png,None,None,,,,,1,0,1,0,0,5,5,136,,,,,,,,,,,,,,,,,,,,,,,16,6,2,207,-2.22751631,-1.134976249,137,Experiment,,,,,,,,,80,9,128,-19,,,,,,,,,,,,,,,781.6989655,782.1994098,781.6989655,782.1994098,74.14965986,1575566533,1575566535,2.334225893,1575566530,1575566533,,,s13,1,62,m,expert radiologist,2019_Dec_05_1109,AdjustEyeTrack,3.1.5,60.42045227
116,Stimuli/Morph116.JPG,Stimuli/Morph116.png,Stimuli/BlurLevel5/BlurEditedMorph116,Stimuli/BlurLevel5/BlurEditedMorph116.png,Stimuli/BlurLevel5/NumberedMorphs/BlurEditedMorph116.png,Stimuli/BlurLevel5/OriginalBlur/BlurEditedMorph116.png,Stimuli/BlurMorphTrio/EditedMorph116.png,None,None,,,,,1,0,1,0,0,6,6,115,,,,,,,,,,,,,,,,,,,,,,,54,7,2,113,-0.976827821,2.301262134,116,Experiment,,,,,,,,,143,111,5,5,,,,,,,,,,,,,,,786.7578037,787.248503,786.7578037,787.248503,93.19727891,1575566538,1575566539,1.366403103,1575566535,1575566538,,,s13,1,62,m,expert radiologist,2019_Dec_05_1109,AdjustEyeTrack,3.1.5,60.42045227
62,Stimuli/Morph62.JPG,Stimuli/Morph62.png,Stimuli/BlurLevel5/BlurEditedMorph62,Stimuli/BlurLevel5/BlurEditedMorph62.png,Stimuli/BlurLevel5/NumberedMorphs/BlurEditedMorph62.png,Stimuli/BlurLevel5/OriginalBlur/BlurEditedMorph62.png,Stimuli/BlurMorphTrio/EditedMorph62.png,020205right.gif,Stimuli/normal_thumbnails/62right.gif,,,,,1,0,1,0,0,7,7,61,,,,,,,,,,,,,,,,,,,,,,,48,8,2,242,-1.173678907,-2.207368982,62,Experiment,,,,,,,,,10,52,10,10,,,,,,,,,,,,,,,790.9748545,791.4656779,790.9748545,791.4656779,86.39455782,1575566542,1575566545,3.269026995,1575566539,1575566542,,,s13,1,62,m,expert radiologist,2019_Dec_05_1109,AdjustEyeTrack,3.1.5,60.42045227
97,Stimuli/Morph97.JPG,Stimuli/Morph97.png,Stimuli/BlurLevel5/BlurEditedMorph97,Stimuli/BlurLevel5/BlurEditedMorph97.png,Stimuli/BlurLevel5/NumberedMorphs/BlurEditedMorph97.png,Stimuli/BlurLevel5/OriginalBlur/BlurEditedMorph97.png,Stimuli/BlurMorphTrio/EditedMorph97.png,020294right.gif,Stimuli/normal_thumbnails/97right.gif,,,,,1,0,1,0,0,8,8,96,,,,,,,,,,,,,,,,,,,,,,,58,9,2,88,0.087248742,2.498477068,97,Experiment,,,,,,,,,68,100,-3,-3,,,,,,,,,,,,,,,796.6894031,797.1817544,796.6894031,797.1817544,95.91836735,1575566548,1575566549,1.466207981,1575566546,1575566548,,,s13,1,62,m,expert radiologist,2019_Dec_05_1109,AdjustEyeTrack,3.1.5,60.42045227
89,Stimuli/Morph89.JPG,Stimuli/Morph89.png,Stimuli/BlurLevel5/BlurEditedMorph89,Stimuli/BlurLevel5/BlurEditedMorph89.png,Stimuli/BlurLevel5/NumberedMorphs/BlurEditedMorph89.png,Stimuli/BlurLevel5/OriginalBlur/BlurEditedMorph89.png,Stimuli/BlurMorphTrio/EditedMorph89.png,020273right.gif,Stimuli/normal_thumbnails/89right.gif,,,,,1,0,1,0,0,9,9,88,,,,,,,,,,,,,,,,,,,,,,,58,10,2,32,2.12012024,1.324798161,89,Experiment,,,,,,,,,20,20,69,69,,,,,,,,,,,,,,,800.4653694,800.9655332,800.4653694,800.9655332,6.12244898,1575566551,1575566552,0.566196203,1575566549,1575566551,,,s13,1,62,m,expert radiologist,2019_Dec_05_1109,AdjustEyeTrack,3.1.5,60.42045227
15,Stimuli/Morph15.JPG,Stimuli/Morph15.png,Stimuli/BlurLevel5/BlurEditedMorph15,Stimuli/BlurLevel5/BlurEditedMorph15.png,Stimuli/BlurLevel5/NumberedMorphs/BlurEditedMorph15.png,Stimuli/BlurLevel5/OriginalBlur/BlurEditedMorph15.png,Stimuli/BlurMorphTrio/EditedMorph15.png,010031right.gif,Stimuli/normal_thumbnails/15right.gif,,,,,1,0,1,0,0,10,10,14,,,,,,,,,,,,,,,,,,,,,,,44,11,2,152,-2.207368982,1.173678907,15,Experiment,,,,,,,,,93,10,5,5,,,,,,,,,,,,,,,804.0697607,804.5981822,804.0697607,804.5981822,93.19727891,1575566555,1575566558,2.749607086,1575566552,1575566555,,,s13,1,62,m,expert radiologist,2019_Dec_05_1109,AdjustEyeTrack,3.1.5,60.42045227
125,Stimuli/Morph125.JPG,Stimuli/Morph125.png,Stimuli/BlurLevel5/BlurEditedMorph125,Stimuli/BlurLevel5/BlurEditedMorph125.png,Stimuli/BlurLevel5/NumberedMorphs/BlurEditedMorph125.png,Stimuli/BlurLevel5/OriginalBlur/BlurEditedMorph125.png,Stimuli/BlurMorphTrio/EditedMorph125.png,None,None,,,,,1,0,1,0,0,11,11,124,,,,,,,,,,,,,,,,,,,,,,,7,12,2,43,1.828384254,1.7049959,125,Experiment,,,,,,,,,89,128,-3,-3,,,,,,,,,,,,,,,809.4660492,809.9654506,809.4660492,809.9654506,95.91836735,1575566560,1575566563,2.834142923,1575566558,1575566560,,,s13,1,62,m,expert radiologist,2019_Dec_05_1109,AdjustEyeTrack,3.1.5,60.42045227
132,Stimuli/Morph132.JPG,Stimuli/Morph132.png,Stimuli/BlurLevel5/BlurEditedMorph132,Stimuli/BlurLevel5/BlurEditedMorph132.png,Stimuli/BlurLevel5/NumberedMorphs/BlurEditedMorph132.png,Stimuli/BlurLevel5/OriginalBlur/BlurEditedMorph132.png,Stimuli/BlurMorphTrio/EditedMorph132.png,None,None,,,,,1,0,1,0,0,12,12,131,,,,,,,,,,,,,,,,,,,,,,,53,13,2,268,-0.087248742,-2.498477068,132,Experiment,,,,,,,,,4,40,92,-55,,,,,,,,,,,,,,,815.5554568,816.064979,815.5554568,816.064979,25.17006803,1575566567,1575566573,6.634995222,1575566564,1575566567,,,s13,1,62,m,expert radiologist,2019_Dec_05_1109,AdjustEyeTrack,3.1.5,60.42045227
144,Stimuli/Morph144.JPG,Stimuli/Morph144.png,Stimuli/BlurLevel5/BlurEditedMorph144,Stimuli/BlurLevel5/BlurEditedMorph144.png,Stimuli/BlurLevel5/NumberedMorphs/BlurEditedMorph144.png,Stimuli/BlurLevel5/OriginalBlur/BlurEditedMorph144.png,Stimuli/BlurMorphTrio/EditedMorph144.png,None,None,,,,,1,0,1,0,0,13,13,143,,,,,,,,,,,,,,,,,,,,,,,68,14,2,216,-2.022542486,-1.469463131,144,Experiment,,,,,,,,,115,143,1,1,,,,,,,,,,,,,,,825.0513558,825.5480077,825.0513558,825.5480077,98.63945578,1575566576,1575566579,2.567453861,1575566573,1575566576,,,s13,1,62,m,expert radiologist,2019_Dec_05_1109,AdjustEyeTrack,3.1.5,60.42045227
121,Stimuli/Morph121.JPG,Stimuli/Morph121.png,Stimuli/BlurLevel5/BlurEditedMorph121,Stimuli/BlurLevel5/BlurEditedMorph121.png,Stimuli/BlurLevel5/NumberedMorphs/BlurEditedMorph121.png,Stimuli/BlurLevel5/OriginalBlur/BlurEditedMorph121.png,Stimuli/BlurMorphTrio/EditedMorph121.png,None,None,,,,,1,0,1,0,0,14,14,120,,,,,,,,,,,,,,,,,,,,,,,37,15,2,246,-1.016841608,-2.283863644,121,Experiment,,,,,,,,,42,116,5,5,,,,,,,,,,,,,,,830.3825329,830.8816434,830.3825329,830.8816434,93.19727891,1575566581,1575566584,2.151169777,1575566579,1575566581,,,s13,1,62,m,expert radiologist,2019_Dec_05_1109,AdjustEyeTrack,3.1.5,60.42045227
43,Stimuli/Morph43.JPG,Stimuli/Morph43.png,Stimuli/BlurLevel5/BlurEditedMorph43,Stimuli/BlurLevel5/BlurEditedMorph43.png,Stimuli/BlurLevel5/NumberedMorphs/BlurEditedMorph43.png,Stimuli/BlurLevel5/OriginalBlur/BlurEditedMorph43.png,Stimuli/BlurMorphTrio/EditedMorph43.png,010124right.gif,Stimuli/normal_thumbnails/43right.gif,,,,,1,0,1,0,0,15,15,42,,,,,,,,,,,,,,,,,,,,,,,2,16,2,174,-2.486304738,0.261321158,43,Experiment,,,,,,,,,22,41,2,2,,,,,,,,,,,,,,,835.2716774,835.764139,835.2716774,835.764139,97.27891156,1575566586,1575566587,1.18303895,1575566584,1575566586,,,s13,1,62,m,expert radiologist,2019_Dec_05_1109,AdjustEyeTrack,3.1.5,60.42045227
75,Stimuli/Morph75.JPG,Stimuli/Morph75.png,Stimuli/BlurLevel5/BlurEditedMorph75,Stimuli/BlurLevel5/BlurEditedMorph75.png,Stimuli/BlurLevel5/NumberedMorphs/BlurEditedMorph75.png,Stimuli/BlurLevel5/OriginalBlur/BlurEditedMorph75.png,Stimuli/BlurMorphTrio/EditedMorph75.png,020233right.gif,Stimuli/normal_thumbnails/75right.gif,,,,,1,0,1,0,0,16,16,74,,,,,,,,,,,,,,,,,,,,,,,84,17,2,52,1.539153688,1.970026884,75,Experiment,,,,,,,,,31,78,-3,-3,,,,,,,,,,,,,,,839.0487608,839.5476512,839.0487608,839.5476512,95.91836735,1575566590,1575566593,2.520658016,1575566588,1575566590,,,s13,1,62,m,expert radiologist,2019_Dec_05_1109,AdjustEyeTrack,3.1.5,60.42045227
49,Stimuli/Morph49.JPG,Stimuli/Morph49.png,Stimuli/BlurLevel5/BlurEditedMorph49,Stimuli/BlurLevel5/BlurEditedMorph49.png,Stimuli/BlurLevel5/NumberedMorphs/BlurEditedMorph49.png,Stimuli/BlurLevel5/OriginalBlur/BlurEditedMorph49.png,Stimuli/BlurMorphTrio/EditedMorph49.png,010135right.gif,Stimuli/normal_thumbnails/49right.gif,,,,,1,0,1,0,0,17,17,48,,,,,,,,,,,,,,,,,,,,,,,26,18,2,208,-2.207368982,-1.173678907,49,Experiment,,,,,,,,,5,46,3,3,,,,,,,,,,,,,,,844.2816228,844.781624,844.2816228,844.781624,95.91836735,1575566595,1575566597,1.832867861,1575566593,1575566595,,,s13,1,62,m,expert radiologist,2019_Dec_05_1109,AdjustEyeTrack,3.1.5,60.42045227
58,Stimuli/Morph58.JPG,Stimuli/Morph58.png,Stimuli/BlurLevel5/BlurEditedMorph58,Stimuli/BlurLevel5/BlurEditedMorph58.png,Stimuli/BlurLevel5/NumberedMorphs/BlurEditedMorph58.png,Stimuli/BlurLevel5/OriginalBlur/BlurEditedMorph58.png,Stimuli/BlurMorphTrio/EditedMorph58.png,010159right.gif,Stimuli/normal_thumbnails/58right.gif,,,,,1,0,1,0,0,18,18,57,,,,,,,,,,,,,,,,,,,,,,,60,19,2,288,0.772542486,-2.377641291,58,Experiment,,,,,,,,,114,55,3,3,,,,,,,,,,,,,,,849.2832001,849.814567,849.2832001,849.814567,95.91836735,1575566600,1575566605,4.416527987,1575566597,1575566600,,,s13,1,62,m,expert radiologist,2019_Dec_05_1109,AdjustEyeTrack,3.1.5,60.42045227
133,Stimuli/Morph133.JPG,Stimuli/Morph133.png,Stimuli/BlurLevel5/BlurEditedMorph133,Stimuli/BlurLevel5/BlurEditedMorph133.png,Stimuli/BlurLevel5/NumberedMorphs/BlurEditedMorph133.png,Stimuli/BlurLevel5/OriginalBlur/BlurEditedMorph133.png,Stimuli/BlurMorphTrio/EditedMorph133.png,None,None,,,,,1,0,1,0,0,19,19,132,,,,,,,,,,,,,,,,,,,,,,,82,20,2,234,-1.469463131,-2.022542486,133,Experiment,,,,,,,,,58,132,1,1,,,,,,,,,,,,,,,856.199118,856.6973005,856.199118,856.6973005,98.63945578,1575566607,1575566611,4.300169945,1575566605,1575566607,,,s13,1,62,m,expert radiologist,2019_Dec_05_1109,AdjustEyeTrack,3.1.5,60.42045227
138,Stimuli/Morph138.JPG,Stimuli/Morph138.png,Stimuli/BlurLevel5/BlurEditedMorph138,Stimuli/BlurLevel5/BlurEditedMorph138.png,Stimuli/BlurLevel5/NumberedMorphs/BlurEditedMorph138.png,Stimuli/BlurLevel5/OriginalBlur/BlurEditedMorph138.png,Stimuli/BlurMorphTrio/EditedMorph138.png,None,None,,,,,1,0,1,0,0,20,20,137,,,,,,,,,,,,,,,,,,,,,,,20,21,2,263,-0.304673359,-2.481365379,138,Experiment,,,,,,,,,145,138,0,0,,,,,,,,,,,,,,,863.0979672,863.6161274,863.0979672,863.6161274,100,1575566614,1575566615,0.901836157,1575566612,1575566614,,,s13,1,62,m,expert radiologist,2019_Dec_05_1109,AdjustEyeTrack,3.1.5,60.42045227
70,Stimuli/Morph70.JPG,Stimuli/Morph70.png,Stimuli/BlurLevel5/BlurEditedMorph70,Stimuli/BlurLevel5/BlurEditedMorph70.png,Stimuli/BlurLevel5/NumberedMorphs/BlurEditedMorph70.png,Stimuli/BlurLevel5/OriginalBlur/BlurEditedMorph70.png,Stimuli/BlurMorphTrio/EditedMorph70.png,020221right.gif,Stimuli/normal_thumbnails/70right.gif,,,,,1,0,1,0,0,21,21,69,,,,,,,,,,,,,,,,,,,,,,,78,22,2,51,1.573300978,1.942864904,70,Experiment,,,,,,,,,7,42,28,28,,,,,,,,,,,,,,,866.6314455,867.1327908,866.6314455,867.1327908,61.9047619,1575566618,1575566621,3.74907589,1575566615,1575566618,,,s13,1,62,m,expert radiologist,2019_Dec_05_1109,AdjustEyeTrack,3.1.5,60.42045227
110,Stimuli/Morph110.JPG,Stimuli/Morph110.png,Stimuli/BlurLevel5/BlurEditedMorph110,Stimuli/BlurLevel5/BlurEditedMorph110.png,Stimuli/BlurLevel5/NumberedMorphs/BlurEditedMorph110.png,Stimuli/BlurLevel5/OriginalBlur/BlurEditedMorph110.png,Stimuli/BlurMorphTrio/EditedMorph110.png,None,None,,,,,1,0,1,0,0,22,22,109,,,,,,,,,,,,,,,,,,,,,,,7,23,2,296,1.095927867,-2.246985116,110,Experiment,,,,,,,,,24,121,-11,-11,,,,,,,,,,,,,,,873.3332043,873.8475288,873.3332043,873.8475288,85.03401361,1575566624,1575566627,2.903203249,1575566622,1575566624,,,s13,1,62,m,expert radiologist,2019_Dec_05_1109,AdjustEyeTrack,3.1.5,60.42045227
103,Stimuli/Morph103.JPG,Stimuli/Morph103.png,Stimuli/BlurLevel5/BlurEditedMorph103,Stimuli/BlurLevel5/BlurEditedMorph103.png,Stimuli/BlurLevel5/NumberedMorphs/BlurEditedMorph103.png,Stimuli/BlurLevel5/OriginalBlur/BlurEditedMorph103.png,Stimuli/BlurMorphTrio/EditedMorph103.png,None,None,,,,,1,0,1,0,0,23,23,102,,,,,,,,,,,,,,,,,,,,,,,35,24,2,71,0.813920386,2.363796439,103,Experiment,,,,,,,,,106,104,-1,-1,,,,,,,,,,,,,,,878.7413697,879.2307148,878.7413697,879.2307148,98.63945578,1575566630,1575566631,1.55095005,1575566628,1575566630,,,s13,1,62,m,expert radiologist,2019_Dec_05_1109,AdjustEyeTrack,3.1.5,60.42045227
81,Stimuli/Morph81.JPG,Stimuli/Morph81.png,Stimuli/BlurLevel5/BlurEditedMorph81,Stimuli/BlurLevel5/BlurEditedMorph81.png,Stimuli/BlurLevel5/NumberedMorphs/BlurEditedMorph81.png,Stimuli/BlurLevel5/OriginalBlur/BlurEditedMorph81.png,Stimuli/BlurMorphTrio/EditedMorph81.png,020245right.gif,Stimuli/normal_thumbnails/81right.gif,,,,,1,0,1,0,0,24,24,80,,,,,,,,,,,,,,,,,,,,,,,42,25,2,46,1.736645926,1.798349501,81,Experiment,,,,,,,,,20,95,-14,-14,,,,,,,,,,,,,,,883.6867624,884.1810256,883.6867624,884.1810256,80.95238095,1575566635,1575566638,3.318119049,1575566632,1575566635,,,s13,1,62,m,expert radiologist,2019_Dec_05_1109,AdjustEyeTrack,3.1.5,60.42045227
5,Stimuli/Morph5.JPG,Stimuli/Morph5.png,Stimuli/BlurLevel5/BlurEditedMorph5,Stimuli/BlurLevel5/BlurEditedMorph5.png,Stimuli/BlurLevel5/NumberedMorphs/BlurEditedMorph5.png,Stimuli/BlurLevel5/OriginalBlur/BlurEditedMorph5.png,Stimuli/BlurMorphTrio/EditedMorph5.png,010011right.gif,Stimuli/normal_thumbnails/5right.gif,,,,,1,0,1,0,0,25,25,4,,,,,,,,,,,,,,,,,,,,,,,44,26,2,207,-2.22751631,-1.134976249,5,Experiment,,,,,,,,,53,146,-141,6,,,,,,,,,,,,,,,890.0980864,890.5981903,890.0980864,890.5981903,91.83673469,1575566641,1575566650,9.300004244,1575566638,1575566641,,,s13,1,62,m,expert radiologist,2019_Dec_05_1109,AdjustEyeTrack,3.1.5,60.42045227
94,Stimuli/Morph94.JPG,Stimuli/Morph94.png,Stimuli/BlurLevel5/BlurEditedMorph94,Stimuli/BlurLevel5/BlurEditedMorph94.png,Stimuli/BlurLevel5/NumberedMorphs/BlurEditedMorph94.png,Stimuli/BlurLevel5/OriginalBlur/BlurEditedMorph94.png,Stimuli/BlurMorphTrio/EditedMorph94.png,020286right.gif,Stimuli/normal_thumbnails/94right.gif,,,,,1,0,1,0,0,26,26,93,,,,,,,,,,,,,,,,,,,,,,,34,27,2,307,1.504537558,-1.996588775,94,Experiment,,,,,,,,,99,99,-5,-5,,,,,,,,,,,,,,,902.5389833,903.0342072,902.5389833,903.0342072,93.19727891,1575566654,1575566654,0.716969013,1575566651,1575566654,,,s13,1,62,m,expert radiologist,2019_Dec_05_1109,AdjustEyeTrack,3.1.5,60.42045227
96,Stimuli/Morph96.JPG,Stimuli/Morph96.png,Stimuli/BlurLevel5/BlurEditedMorph96,Stimuli/BlurLevel5/BlurEditedMorph96.png,Stimuli/BlurLevel5/NumberedMorphs/BlurEditedMorph96.png,Stimuli/BlurLevel5/OriginalBlur/BlurEditedMorph96.png,Stimuli/BlurMorphTrio/EditedMorph96.png,020292right.gif,Stimuli/normal_thumbnails/96right.gif,,,,,1,0,1,0,0,27,27,95,,,,,,,,,,,,,,,,,,,,,,,45,28,2,126,-1.469463131,2.022542486,96,Experiment,,,,,,,,,38,120,-24,-24,,,,,,,,,,,,,,,905.7733596,906.2643396,905.7733596,906.2643396,67.34693878,1575566657,1575566659,2.017189264,1575566655,1575566657,,,s13,1,62,m,expert radiologist,2019_Dec_05_1109,AdjustEyeTrack,3.1.5,60.42045227
24,Stimuli/Morph24.JPG,Stimuli/Morph24.png,Stimuli/BlurLevel5/BlurEditedMorph24,Stimuli/BlurLevel5/BlurEditedMorph24.png,Stimuli/BlurLevel5/NumberedMorphs/BlurEditedMorph24.png,Stimuli/BlurLevel5/OriginalBlur/BlurEditedMorph24.png,Stimuli/BlurMorphTrio/EditedMorph24.png,010068right.gif,Stimuli/normal_thumbnails/24right.gif,,,,,1,0,1,0,0,28,28,23,,,,,,,,,,,,,,,,,,,,,,,61,29,2,150,-2.165063509,1.25,24,Experiment,,,,,,,,,145,29,-5,-5,,,,,,,,,,,,,,,910.9729104,911.6798592,910.9729104,911.6798592,93.19727891,1575566662,1575566665,2.516853809,1575566659,1575566662,,,s13,1,62,m,expert radiologist,2019_Dec_05_1109,AdjustEyeTrack,3.1.5,60.42045227
7,Stimuli/Morph7.JPG,Stimuli/Morph7.png,Stimuli/BlurLevel5/BlurEditedMorph7,Stimuli/BlurLevel5/BlurEditedMorph7.png,Stimuli/BlurLevel5/NumberedMorphs/BlurEditedMorph7.png,Stimuli/BlurLevel5/OriginalBlur/BlurEditedMorph7.png,Stimuli/BlurMorphTrio/EditedMorph7.png,010013right.gif,Stimuli/normal_thumbnails/7right.gif,,,,,1,0,1,0,0,29,29,6,,,,,,,,,,,,,,,,,,,,,,,61,30,2,247,-0.976827821,-2.301262134,7,Experiment,,,,,,,,,98,3,4,4,,,,,,,,,,,,,,,916.1247965,916.630111,916.1247965,916.630111,94.55782313,1575566667,1575566669,2.065240145,1575566665,1575566667,,,s13,1,62,m,expert radiologist,2019_Dec_05_1109,AdjustEyeTrack,3.1.5,60.42045227
122,Stimuli/Morph122.JPG,Stimuli/Morph122.png,Stimuli/BlurLevel5/BlurEditedMorph122,Stimuli/BlurLevel5/BlurEditedMorph122.png,Stimuli/BlurLevel5/NumberedMorphs/BlurEditedMorph122.png,Stimuli/BlurLevel5/OriginalBlur/BlurEditedMorph122.png,Stimuli/BlurMorphTrio/EditedMorph122.png,None,None,,,,,1,0,1,0,0,30,30,121,,,,,,,,,,,,,,,,,,,,,,,55,31,2,90,1.53E-16,2.5,122,Experiment,,,,,,,,,93,93,29,29,,,,,,,,,,,,,,,920.6545247,921.1466767,920.6545247,921.1466767,60.54421769,1575566672,1575566672,0.865531921,1575566669,1575566672,,,s13,1,62,m,expert radiologist,2019_Dec_05_1109,AdjustEyeTrack,3.1.5,60.42045227
45,Stimuli/Morph45.JPG,Stimuli/Morph45.png,Stimuli/BlurLevel5/BlurEditedMorph45,Stimuli/BlurLevel5/BlurEditedMorph45.png,Stimuli/BlurLevel5/NumberedMorphs/BlurEditedMorph45.png,Stimuli/BlurLevel5/OriginalBlur/BlurEditedMorph45.png,Stimuli/BlurMorphTrio/EditedMorph45.png,010127right.gif,Stimuli/normal_thumbnails/45right.gif,,,,,1,0,1,0,0,31,31,44,,,,,,,,,,,,,,,,,,,,,,,6,32,2,39,1.942864904,1.573300978,45,Experiment,,,,,,,,,141,42,3,3,,,,,,,,,,,,,,,924.3714881,924.8638221,924.3714881,924.8638221,95.91836735,1575566675,1575566677,1.81662488,1575566673,1575566675,,,s13,1,62,m,expert radiologist,2019_Dec_05_1109,AdjustEyeTrack,3.1.5,60.42045227
54,Stimuli/Morph54.JPG,Stimuli/Morph54.png,Stimuli/BlurLevel5/BlurEditedMorph54,Stimuli/BlurLevel5/BlurEditedMorph54.png,Stimuli/BlurLevel5/NumberedMorphs/BlurEditedMorph54.png,Stimuli/BlurLevel5/OriginalBlur/BlurEditedMorph54.png,Stimuli/BlurMorphTrio/EditedMorph54.png,010150right.gif,Stimuli/normal_thumbnails/54right.gif,,,,,1,0,1,0,0,32,32,53,,,,,,,,,,,,,,,,,,,,,,,39,33,2,43,1.828384254,1.7049959,54,Experiment,,,,,,,,,21,60,-6,-6,,,,,,,,,,,,,,,929.2310078,929.7633052,929.2310078,929.7633052,91.83673469,1575566680,1575566682,1.617439985,1575566677,1575566680,,,s13,1,62,m,expert radiologist,2019_Dec_05_1109,AdjustEyeTrack,3.1.5,60.42045227
59,Stimuli/Morph59.JPG,Stimuli/Morph59.png,Stimuli/BlurLevel5/BlurEditedMorph59,Stimuli/BlurLevel5/BlurEditedMorph59.png,Stimuli/BlurLevel5/NumberedMorphs/BlurEditedMorph59.png,Stimuli/BlurLevel5/OriginalBlur/BlurEditedMorph59.png,Stimuli/BlurMorphTrio/EditedMorph59.png,010160right.gif,Stimuli/normal_thumbnails/59right.gif,,,,,1,0,1,0,0,33,33,58,,,,,,,,,,,,,,,,,,,,,,,76,34,2,229,-1.640147572,-1.886773951,59,Experiment,,,,,,,,,115,41,18,18,,,,,,,,,,,,,,,933.1348983,933.6302733,933.1348983,933.6302733,75.51020408,1575566684,1575566686,2.370737791,1575566682,1575566684,,,s13,1,62,m,expert radiologist,2019_Dec_05_1109,AdjustEyeTrack,3.1.5,60.42045227
52,Stimuli/Morph52.JPG,Stimuli/Morph52.png,Stimuli/BlurLevel5/BlurEditedMorph52,Stimuli/BlurLevel5/BlurEditedMorph52.png,Stimuli/BlurLevel5/NumberedMorphs/BlurEditedMorph52.png,Stimuli/BlurLevel5/OriginalBlur/BlurEditedMorph52.png,Stimuli/BlurMorphTrio/EditedMorph52.png,010148right.gif,Stimuli/normal_thumbnails/52right.gif,,,,,1,0,1,0,0,34,34,51,,,,,,,,,,,,,,,,,,,,,,,50,35,2,214,-2.072593931,-1.397982259,52,Experiment,,,,,,,,,63,53,-1,-1,,,,,,,,,,,,,,,938.3810771,938.8806364,938.3810771,938.8806364,98.63945578,1575566689,1575566692,3.082413197,1575566687,1575566689,,,s13,1,62,m,expert radiologist,2019_Dec_05_1109,AdjustEyeTrack,3.1.5,60.42045227
12,Stimuli/Morph12.JPG,Stimuli/Morph12.png,Stimuli/BlurLevel5/BlurEditedMorph12,Stimuli/BlurLevel5/BlurEditedMorph12.png,Stimuli/BlurLevel5/NumberedMorphs/BlurEditedMorph12.png,Stimuli/BlurLevel5/OriginalBlur/BlurEditedMorph12.png,Stimuli/BlurMorphTrio/EditedMorph12.png,010026right.gif,Stimuli/normal_thumbnails/12right.gif,,,,,1,0,1,0,0,35,35,11,,,,,,,,,,,,,,,,,,,,,,,23,36,2,115,-1.056545654,2.265769468,12,Experiment,,,,,,,,,31,8,4,4,,,,,,,,,,,,,,,944.5814311,945.0801412,944.5814311,945.0801412,94.55782313,1575566696,1575566697,1.638585806,1575566693,1575566696,,,s13,1,62,m,expert radiologist,2019_Dec_05_1109,AdjustEyeTrack,3.1.5,60.42045227
112,Stimuli/Morph112.JPG,Stimuli/Morph112.png,Stimuli/BlurLevel5/BlurEditedMorph112,Stimuli/BlurLevel5/BlurEditedMorph112.png,Stimuli/BlurLevel5/NumberedMorphs/BlurEditedMorph112.png,Stimuli/BlurLevel5/OriginalBlur/BlurEditedMorph112.png,Stimuli/BlurMorphTrio/EditedMorph112.png,None,None,,,,,1,0,1,0,0,36,36,111,,,,,,,,,,,,,,,,,,,,,,,20,37,2,40,1.915111108,1.606969024,112,Experiment,,,,,,,,,66,134,-22,-22,,,,,,,,,,,,,,,949.1520077,949.6470425,949.1520077,949.6470425,70.06802721,1575566700,1575566704,3.717581034,1575566698,1575566700,,,s13,1,62,m,expert radiologist,2019_Dec_05_1109,AdjustEyeTrack,3.1.5,60.42045227
83,Stimuli/Morph83.JPG,Stimuli/Morph83.png,Stimuli/BlurLevel5/BlurEditedMorph83,Stimuli/BlurLevel5/BlurEditedMorph83.png,Stimuli/BlurLevel5/NumberedMorphs/BlurEditedMorph83.png,Stimuli/BlurLevel5/OriginalBlur/BlurEditedMorph83.png,Stimuli/BlurMorphTrio/EditedMorph83.png,020259right.gif,Stimuli/normal_thumbnails/83right.gif,,,,,1,0,1,0,0,37,37,82,,,,,,,,,,,,,,,,,,,,,,,62,38,2,210,-2.165063509,-1.25,83,Experiment,,,,,,,,,77,77,6,6,,,,,,,,,,,,,,,955.8547137,956.3459197,955.8547137,956.3459197,91.83673469,1575566707,1575566708,0.716816902,1575566704,1575566707,,,s13,1,62,m,expert radiologist,2019_Dec_05_1109,AdjustEyeTrack,3.1.5,60.42045227
142,Stimuli/Morph142.JPG,Stimuli/Morph142.png,Stimuli/BlurLevel5/BlurEditedMorph142,Stimuli/BlurLevel5/BlurEditedMorph142.png,Stimuli/BlurLevel5/NumberedMorphs/BlurEditedMorph142.png,Stimuli/BlurLevel5/OriginalBlur/BlurEditedMorph142.png,Stimuli/BlurMorphTrio/EditedMorph142.png,None,None,,,,,1,0,1,0,0,38,38,141,,,,,,,,,,,,,,,,,,,,,,,18,39,2,100,-0.434120444,2.462019383,142,Experiment,,,,,,,,,89,121,21,21,,,,,,,,,,,,,,,959.1350389,959.6291293,959.1350389,959.6291293,71.42857143,1575566710,1575566712,1.901515007,1575566708,1575566710,,,s13,1,62,m,expert radiologist,2019_Dec_05_1109,AdjustEyeTrack,3.1.5,60.42045227
108,Stimuli/Morph108.JPG,Stimuli/Morph108.png,Stimuli/BlurLevel5/BlurEditedMorph108,Stimuli/BlurLevel5/BlurEditedMorph108.png,Stimuli/BlurLevel5/NumberedMorphs/BlurEditedMorph108.png,Stimuli/BlurLevel5/OriginalBlur/BlurEditedMorph108.png,Stimuli/BlurMorphTrio/EditedMorph108.png,None,None,,,,,1,0,1,0,0,39,39,107,,,,,,,,,,,,,,,,,,,,,,,87,40,2,333,2.22751631,-1.134976249,108,Experiment,,,,,,,,,141,85,23,23,,,,,,,,,,,,,,,963.5135247,964.0133046,963.5135247,964.0133046,68.70748299,1575566714,1575566719,4.150492907,1575566712,1575566714,,,s13,1,62,m,expert radiologist,2019_Dec_05_1109,AdjustEyeTrack,3.1.5,60.42045227
139,Stimuli/Morph139.JPG,Stimuli/Morph139.png,Stimuli/BlurLevel5/BlurEditedMorph139,Stimuli/BlurLevel5/BlurEditedMorph139.png,Stimuli/BlurLevel5/NumberedMorphs/BlurEditedMorph139.png,Stimuli/BlurLevel5/OriginalBlur/BlurEditedMorph139.png,Stimuli/BlurMorphTrio/EditedMorph139.png,None,None,,,,,1,0,1,0,0,40,40,138,,,,,,,,,,,,,,,,,,,,,,,4,41,2,324,2.022542486,-1.469463131,139,Experiment,,,,,,,,,24,34,105,-42,,,,,,,,,,,,,,,970.6794534,971.2177786,970.6794534,971.2177786,42.85714286,1575566722,1575566726,4.416825294,1575566719,1575566722,,,s13,1,62,m,expert radiologist,2019_Dec_05_1109,AdjustEyeTrack,3.1.5,60.42045227
88,Stimuli/Morph88.JPG,Stimuli/Morph88.png,Stimuli/BlurLevel5/BlurEditedMorph88,Stimuli/BlurLevel5/BlurEditedMorph88.png,Stimuli/BlurLevel5/NumberedMorphs/BlurEditedMorph88.png,Stimuli/BlurLevel5/OriginalBlur/BlurEditedMorph88.png,Stimuli/BlurMorphTrio/EditedMorph88.png,020271right.gif,Stimuli/normal_thumbnails/88right.gif,,,,,1,0,1,0,0,41,41,87,,,,,,,,,,,,,,,,,,,,,,,95,42,2,203,-2.301262134,-0.976827821,88,Experiment,,,,,,,,,123,118,-30,-30,,,,,,,,,,,,,,,978.2637749,978.7629245,978.2637749,978.7629245,59.18367347,1575566729,1575566731,1.400887251,1575566727,1575566729,,,s13,1,62,m,expert radiologist,2019_Dec_05_1109,AdjustEyeTrack,3.1.5,60.42045227
21,Stimuli/Morph21.JPG,Stimuli/Morph21.png,Stimuli/BlurLevel5/BlurEditedMorph21,Stimuli/BlurLevel5/BlurEditedMorph21.png,Stimuli/BlurLevel5/NumberedMorphs/BlurEditedMorph21.png,Stimuli/BlurLevel5/OriginalBlur/BlurEditedMorph21.png,Stimuli/BlurMorphTrio/EditedMorph21.png,010049right.gif,Stimuli/normal_thumbnails/21right.gif,,,,,1,0,1,0,0,42,42,20,,,,,,,,,,,,,,,,,,,,,,,9,43,2,103,-0.562377636,2.435925162,21,Experiment,,,,,,,,,2,20,1,1,,,,,,,,,,,,,,,981.9890249,982.4798813,981.9890249,982.4798813,98.63945578,1575566733,1575566735,2.132399082,1575566731,1575566733,,,s13,1,62,m,expert radiologist,2019_Dec_05_1109,AdjustEyeTrack,3.1.5,60.42045227
69,Stimuli/Morph69.JPG,Stimuli/Morph69.png,Stimuli/BlurLevel5/BlurEditedMorph69,Stimuli/BlurLevel5/BlurEditedMorph69.png,Stimuli/BlurLevel5/NumberedMorphs/BlurEditedMorph69.png,Stimuli/BlurLevel5/OriginalBlur/BlurEditedMorph69.png,Stimuli/BlurMorphTrio/EditedMorph69.png,020220right.gif,Stimuli/normal_thumbnails/69right.gif,,,,,1,0,1,0,0,43,43,68,,,,,,,,,,,,,,,,,,,,,,,39,44,2,192,-2.445369002,-0.519779227,69,Experiment,,,,,,,,,138,73,-4,-4,,,,,,,,,,,,,,,987.1311249,987.6627991,987.1311249,987.6627991,94.55782313,1575566738,1575566741,2.599054098,1575566735,1575566738,,,s13,1,62,m,expert radiologist,2019_Dec_05_1109,AdjustEyeTrack,3.1.5,60.42045227
63,Stimuli/Morph63.JPG,Stimuli/Morph63.png,Stimuli/BlurLevel5/BlurEditedMorph63,Stimuli/BlurLevel5/BlurEditedMorph63.png,Stimuli/BlurLevel5/NumberedMorphs/BlurEditedMorph63.png,Stimuli/BlurLevel5/OriginalBlur/BlurEditedMorph63.png,Stimuli/BlurMorphTrio/EditedMorph63.png,020206right.gif,Stimuli/normal_thumbnails/63right.gif,,,,,1,0,1,0,0,44,44,62,,,,,,,,,,,,,,,,,,,,,,,83,45,2,135,-1.767766953,1.767766953,63,Experiment,,,,,,,,,134,56,7,7,,,,,,,,,,,,,,,992.7972749,993.2972326,992.7972749,993.2972326,90.47619048,1575566744,1575566747,3.716063976,1575566741,1575566744,,,s13,1,62,m,expert radiologist,2019_Dec_05_1109,AdjustEyeTrack,3.1.5,60.42045227
42,Stimuli/Morph42.JPG,Stimuli/Morph42.png,Stimuli/BlurLevel5/BlurEditedMorph42,Stimuli/BlurLevel5/BlurEditedMorph42.png,Stimuli/BlurLevel5/NumberedMorphs/BlurEditedMorph42.png,Stimuli/BlurLevel5/OriginalBlur/BlurEditedMorph42.png,Stimuli/BlurMorphTrio/EditedMorph42.png,010121right.gif,Stimuli/normal_thumbnails/42right.gif,,,,,1,0,1,0,0,45,45,41,,,,,,,,,,,,,,,,,,,,,,,30,46,2,51,1.573300978,1.942864904,42,Experiment,,,,,,,,,30,90,-48,-48,,,,,,,,,,,,,,,999.3128508,999.8143609,999.3128508,999.8143609,34.69387755,1575566750,1575566754,3.499125957,1575566748,1575566750,,,s13,1,62,m,expert radiologist,2019_Dec_05_1109,AdjustEyeTrack,3.1.5,60.42045227
84,Stimuli/Morph84.JPG,Stimuli/Morph84.png,Stimuli/BlurLevel5/BlurEditedMorph84,Stimuli/BlurLevel5/BlurEditedMorph84.png,Stimuli/BlurLevel5/NumberedMorphs/BlurEditedMorph84.png,Stimuli/BlurLevel5/OriginalBlur/BlurEditedMorph84.png,Stimuli/BlurMorphTrio/EditedMorph84.png,020261right.gif,Stimuli/normal_thumbnails/84right.gif,,,,,1,0,1,0,0,46,46,83,,,,,,,,,,,,,,,,,,,,,,,66,47,2,257,-0.562377636,-2.435925162,84,Experiment,,,,,,,,,26,94,-10,-10,,,,,,,,,,,,,,,1005.531922,1006.048306,1005.531922,1006.048306,86.39455782,1575566757,1575566759,2.703731775,1575566754,1575566757,,,s13,1,62,m,expert radiologist,2019_Dec_05_1109,AdjustEyeTrack,3.1.5,60.42045227
93,Stimuli/Morph93.JPG,Stimuli/Morph93.png,Stimuli/BlurLevel5/BlurEditedMorph93,Stimuli/BlurLevel5/BlurEditedMorph93.png,Stimuli/BlurLevel5/NumberedMorphs/BlurEditedMorph93.png,Stimuli/BlurLevel5/OriginalBlur/BlurEditedMorph93.png,Stimuli/BlurMorphTrio/EditedMorph93.png,020280right.gif,Stimuli/normal_thumbnails/93right.gif,,,,,1,0,1,0,0,47,47,92,,,,,,,,,,,,,,,,,,,,,,,26,48,2,125,-1.433941091,2.047880111,93,Experiment,,,,,,,,,137,82,11,11,,,,,,,,,,,,,,,1010.772319,1011.263155,1010.772319,1011.263155,85.03401361,1575566762,1575566765,2.982615948,1575566760,1575566762,,,s13,1,62,m,expert radiologist,2019_Dec_05_1109,AdjustEyeTrack,3.1.5,60.42045227
10,Stimuli/Morph10.JPG,Stimuli/Morph10.png,Stimuli/BlurLevel5/BlurEditedMorph10,Stimuli/BlurLevel5/BlurEditedMorph10.png,Stimuli/BlurLevel5/NumberedMorphs/BlurEditedMorph10.png,Stimuli/BlurLevel5/OriginalBlur/BlurEditedMorph10.png,Stimuli/BlurMorphTrio/EditedMorph10.png,010016right.gif,Stimuli/normal_thumbnails/10right.gif,,,,,1,0,1,0,0,48,48,9,,,,,,,,,,,,,,,,,,,,,,,14,49,2,356,2.493910126,-0.174391184,10,Experiment,,,,,,,,,120,103,-93,54,,,,,,,,,,,,,,,1016.936318,1017.429083,1016.936318,1017.429083,26.53061224,1575566768,1575566772,3.816400766,1575566765,1575566768,,,s13,1,62,m,expert radiologist,2019_Dec_05_1109,AdjustEyeTrack,3.1.5,60.42045227
79,Stimuli/Morph79.JPG,Stimuli/Morph79.png,Stimuli/BlurLevel5/BlurEditedMorph79,Stimuli/BlurLevel5/BlurEditedMorph79.png,Stimuli/BlurLevel5/NumberedMorphs/BlurEditedMorph79.png,Stimuli/BlurLevel5/OriginalBlur/BlurEditedMorph79.png,Stimuli/BlurMorphTrio/EditedMorph79.png,020239right.gif,Stimuli/normal_thumbnails/79right.gif,,,,,1,0,1,0,0,49,49,78,,,,,,,,,,,,,,,,,,,,,,,92,50,2,267,-0.130839891,-2.496573837,79,Experiment,,,,,,,,,41,107,-28,-28,,,,,,,,,,,,,,,1024.266325,1024.762052,1024.266325,1024.762052,61.9047619,1575566775,1575566777,2.084016323,1575566772,1575566775,,,s13,1,62,m,expert radiologist,2019_Dec_05_1109,AdjustEyeTrack,3.1.5,60.42045227
134,Stimuli/Morph134.JPG,Stimuli/Morph134.png,Stimuli/BlurLevel5/BlurEditedMorph134,Stimuli/BlurLevel5/BlurEditedMorph134.png,Stimuli/BlurLevel5/NumberedMorphs/BlurEditedMorph134.png,Stimuli/BlurLevel5/OriginalBlur/BlurEditedMorph134.png,Stimuli/BlurMorphTrio/EditedMorph134.png,None,None,,,,,1,0,1,0,0,50,50,133,,,,,,,,,,,,,,,,,,,,,,,15,51,2,7,2.481365379,0.304673359,134,Experiment,,,,,,,,,84,120,14,14,,,,,,,,,,,,,,,1029.03361,1029.527925,1029.03361,1029.527925,80.95238095,1575566780,1575566784,3.632678986,1575566778,1575566780,,,s13,1,62,m,expert radiologist,2019_Dec_05_1109,AdjustEyeTrack,3.1.5,60.42045227
107,Stimuli/Morph107.JPG,Stimuli/Morph107.png,Stimuli/BlurLevel5/BlurEditedMorph107,Stimuli/BlurLevel5/BlurEditedMorph107.png,Stimuli/BlurLevel5/NumberedMorphs/BlurEditedMorph107.png,Stimuli/BlurLevel5/OriginalBlur/BlurEditedMorph107.png,Stimuli/BlurMorphTrio/EditedMorph107.png,None,None,,,,,1,0,1,0,0,51,51,106,,,,,,,,,,,,,,,,,,,,,,,85,52,2,55,1.433941091,2.047880111,107,Experiment,,,,,,,,,109,109,-2,-2,,,,,,,,,,,,,,,1035.079021,1035.578789,1035.079021,1035.578789,97.27891156,1575566786,1575566787,0.883981228,1575566784,1575566786,,,s13,1,62,m,expert radiologist,2019_Dec_05_1109,AdjustEyeTrack,3.1.5,60.42045227
101,Stimuli/Morph101.JPG,Stimuli/Morph101.png,Stimuli/BlurLevel5/BlurEditedMorph101,Stimuli/BlurLevel5/BlurEditedMorph101.png,Stimuli/BlurLevel5/NumberedMorphs/BlurEditedMorph101.png,Stimuli/BlurLevel5/OriginalBlur/BlurEditedMorph101.png,Stimuli/BlurMorphTrio/EditedMorph101.png,None,None,,,,,1,0,1,0,0,52,52,100,,,,,,,,,,,,,,,,,,,,,,,92,53,2,157,-2.301262134,0.976827821,101,Experiment,,,,,,,,,24,68,33,33,,,,,,,,,,,,,,,1038.730297,1039.228451,1038.730297,1039.228451,55.10204082,1575566790,1575566797,7.233825207,1575566787,1575566790,,,s13,1,62,m,expert radiologist,2019_Dec_05_1109,AdjustEyeTrack,3.1.5,60.42045227
114,Stimuli/Morph114.JPG,Stimuli/Morph114.png,Stimuli/BlurLevel5/BlurEditedMorph114,Stimuli/BlurLevel5/BlurEditedMorph114.png,Stimuli/BlurLevel5/NumberedMorphs/BlurEditedMorph114.png,Stimuli/BlurLevel5/OriginalBlur/BlurEditedMorph114.png,Stimuli/BlurMorphTrio/EditedMorph114.png,None,None,,,,,1,0,1,0,0,53,53,113,,,,,,,,,,,,,,,,,,,,,,,91,54,2,294,1.016841608,-2.283863644,114,Experiment,,,,,,,,,8,114,0,0,,,,,,,,,,,,,,,1048.945197,1049.445482,1048.945197,1049.445482,100,1575566800,1575566802,1.933039188,1575566797,1575566800,,,s13,1,62,m,expert radiologist,2019_Dec_05_1109,AdjustEyeTrack,3.1.5,60.42045227
72,Stimuli/Morph72.JPG,Stimuli/Morph72.png,Stimuli/BlurLevel5/BlurEditedMorph72,Stimuli/BlurLevel5/BlurEditedMorph72.png,Stimuli/BlurLevel5/NumberedMorphs/BlurEditedMorph72.png,Stimuli/BlurLevel5/OriginalBlur/BlurEditedMorph72.png,Stimuli/BlurMorphTrio/EditedMorph72.png,020227right.gif,Stimuli/normal_thumbnails/72right.gif,,,,,1,0,1,0,0,54,54,71,,,,,,,,,,,,,,,,,,,,,,,24,55,2,77,0.562377636,2.435925162,72,Experiment,,,,,,,,,49,68,4,4,,,,,,,,,,,,,,,1053.666678,1054.161951,1053.666678,1054.161951,94.55782313,1575566805,1575566806,1.817528009,1575566802,1575566805,,,s13,1,62,m,expert radiologist,2019_Dec_05_1109,AdjustEyeTrack,3.1.5,60.42045227
119,Stimuli/Morph119.JPG,Stimuli/Morph119.png,Stimuli/BlurLevel5/BlurEditedMorph119,Stimuli/BlurLevel5/BlurEditedMorph119.png,Stimuli/BlurLevel5/NumberedMorphs/BlurEditedMorph119.png,Stimuli/BlurLevel5/OriginalBlur/BlurEditedMorph119.png,Stimuli/BlurMorphTrio/EditedMorph119.png,None,None,,,,,1,0,1,0,0,55,55,118,,,,,,,,,,,,,,,,,,,,,,,38,56,2,91,-0.043631016,2.499619238,119,Experiment,,,,,,,,,110,117,2,2,,,,,,,,,,,,,,,1058.432961,1058.928397,1058.432961,1058.928397,97.27891156,1575566809,1575566811,1.916477919,1575566807,1575566809,,,s13,1,62,m,expert radiologist,2019_Dec_05_1109,AdjustEyeTrack,3.1.5,60.42045227
50,Stimuli/Morph50.JPG,Stimuli/Morph50.png,Stimuli/BlurLevel5/BlurEditedMorph50,Stimuli/BlurLevel5/BlurEditedMorph50.png,Stimuli/BlurLevel5/NumberedMorphs/BlurEditedMorph50.png,Stimuli/BlurLevel5/OriginalBlur/BlurEditedMorph50.png,Stimuli/BlurMorphTrio/EditedMorph50.png,010142right.gif,Stimuli/normal_thumbnails/50right.gif,,,,,1,0,1,0,0,56,56,49,,,,,,,,,,,,,,,,,,,,,,,63,57,2,191,-2.454067959,-0.477022488,50,Experiment,,,,,,,,,6,91,-41,-41,,,,,,,,,,,,,,,1063.183948,1063.678421,1063.183948,1063.678421,44.21768707,1575566814,1575566823,9.032621145,1575566812,1575566814,,,s13,1,62,m,expert radiologist,2019_Dec_05_1109,AdjustEyeTrack,3.1.5,60.42045227
