stimulusID,stimulus_JPG,stimulusPath,stimulusPath2,stimulusPath3,stimulusPath4,stimulusPath5,stimulusPath6,xRayOriginal,xRayPath,Training.thisRepN,Training.thisTrialN,Training.thisN,Training.thisIndex,Blocks.thisRepN,Blocks.thisTrialN,Blocks.thisN,Blocks.thisIndex,Trials.thisRepN,Trials.thisTrialN,Trials.thisN,Trials.thisIndex,text_2.started,text_2.stopped,image.started,image.stopped,image_2.started,image_2.stopped,image_3.started,image_3.stopped,image_4.started,image_4.stopped,image_6.started,image_6.stopped,image_7.started,image_7.stopped,image_8.started,image_8.stopped,image_9.started,image_9.stopped,image_10.started,image_10.stopped,image_12.started,image_12.stopped,xrayID,trialNumber,blockNumber,stimLocationDeg,stimXCoord,stimYCoord,stimulusID,blockType,trainingXray.started,trainingXray.stopped,trainingTumors.started,trainingTumors.stopped,trainingScore%,startTrainingRespTime,endTrainingRespTime,trainingRT,morphTrack,morphID,errorRaw,errorCorrected,startTrainingStimTime,endTrainingStimTime,key_resp_3.keys,key_resp_3.rt,text.started,text.stopped,text_3.started,text_3.stopped,text_4.started,text_4.stopped,key_resp_5.keys,key_resp_5.rt,key_resp_5.started,key_resp_5.stopped,xray1.started,xray1.stopped,tumors.started,tumors.stopped,trialCorrect%,startRespTime,endRespTime,RT,startStimTime,endStimTime,key_resp.keys,key_resp.rt,participant,session,age,gender,status,date,expName,psychopyVersion,frameRate
119,Stimuli/Morph119.JPG,Stimuli/Morph119.png,Stimuli/BlurLevel5/BlurEditedMorph119,Stimuli/BlurLevel5/BlurEditedMorph119.png,Stimuli/BlurLevel5/NumberedMorphs/BlurEditedMorph119.png,Stimuli/BlurLevel5/OriginalBlur/BlurEditedMorph119.png,Stimuli/BlurMorphTrio/EditedMorph119.png,None,None,0,0,0,118,,,,,,,,,47.24111588,None,47.24111588,None,47.24111588,None,47.24111588,None,47.24111588,None,47.24111588,None,47.24111588,None,47.24111588,None,47.24111588,None,47.24111588,None,47.24111588,None,6,-100,-100,29,2.186549268,1.212024051,119,training,72.81481561,73.30715814,72.81481561,73.30715814,70.06802721,1575573541,1575573546,5.116029978,67,97,22,22,1575573538,1575573541,space,5.25913946,,,,,,,,,,,,,,,,,,,,,,,s14,1,34,F,resident,2019_Dec_05_1318,AdjustEyeTrack,3.1.5,59.86573409
112,Stimuli/Morph112.JPG,Stimuli/Morph112.png,Stimuli/BlurLevel5/BlurEditedMorph112,Stimuli/BlurLevel5/BlurEditedMorph112.png,Stimuli/BlurLevel5/NumberedMorphs/BlurEditedMorph112.png,Stimuli/BlurLevel5/OriginalBlur/BlurEditedMorph112.png,Stimuli/BlurMorphTrio/EditedMorph112.png,None,None,0,1,1,111,,,,,,,,,,,,,,,,,,,,,,,,,,,,,,,22,-100,-100,44,1.798349501,1.736645926,112,training,85.82500605,86.32346725,85.82500605,86.32346725,90.47619048,1575573554,1575573556,1.933342934,130,119,-7,-7,1575573552,1575573554,space,12.31607457,,,,,,,,,,,,,,,,,,,,,,,s14,1,34,F,resident,2019_Dec_05_1318,AdjustEyeTrack,3.1.5,59.86573409
52,Stimuli/Morph52.JPG,Stimuli/Morph52.png,Stimuli/BlurLevel5/BlurEditedMorph52,Stimuli/BlurLevel5/BlurEditedMorph52.png,Stimuli/BlurLevel5/NumberedMorphs/BlurEditedMorph52.png,Stimuli/BlurLevel5/OriginalBlur/BlurEditedMorph52.png,Stimuli/BlurMorphTrio/EditedMorph52.png,010148right.gif,Stimuli/normal_thumbnails/52right.gif,0,2,2,51,,,,,,,,,,,,,,,,,,,,,,,,,,,,,,,88,-100,-100,142,-1.970026884,1.539153688,52,training,102.9690716,103.4740804,102.9690716,103.4740804,72.78911565,1575573571,1575573586,15.21595907,10,72,-20,-20,1575573568,1575573571,space,2.926244004,,,,,,,,,,,,,,,,,,,,,,,s14,1,34,F,resident,2019_Dec_05_1318,AdjustEyeTrack,3.1.5,59.86573409
26,Stimuli/Morph26.JPG,Stimuli/Morph26.png,Stimuli/BlurLevel5/BlurEditedMorph26,Stimuli/BlurLevel5/BlurEditedMorph26.png,Stimuli/BlurLevel5/NumberedMorphs/BlurEditedMorph26.png,Stimuli/BlurLevel5/OriginalBlur/BlurEditedMorph26.png,Stimuli/BlurMorphTrio/EditedMorph26.png,010070right.gif,Stimuli/normal_thumbnails/26right.gif,0,3,3,25,,,,,,,,,,,,,,,,,,,,,,,,,,,,,,,78,-100,-100,27,2.22751631,1.134976249,26,training,123.3791744,123.8735055,123.3791744,123.8735055,95.91836735,1575573591,1575573595,3.100068808,48,23,3,3,1575573589,1575573591,space,2.802415539,,,,,,,,,,,,,,,,,,,,,,,s14,1,34,F,resident,2019_Dec_05_1318,AdjustEyeTrack,3.1.5,59.86573409
6,Stimuli/Morph6.JPG,Stimuli/Morph6.png,Stimuli/BlurLevel5/BlurEditedMorph6,Stimuli/BlurLevel5/BlurEditedMorph6.png,Stimuli/BlurLevel5/NumberedMorphs/BlurEditedMorph6.png,Stimuli/BlurLevel5/OriginalBlur/BlurEditedMorph6.png,Stimuli/BlurMorphTrio/EditedMorph6.png,010012right.gif,Stimuli/normal_thumbnails/6right.gif,0,4,4,5,,,,,,,,,,,,,,,,,,,,,,,,,,,,,,,65,-100,-100,137,-1.828384254,1.7049959,6,training,132.2447666,132.7392097,132.2447666,132.7392097,74.14965986,1575573600,1575573602,1.949414253,132,134,-128,19,1575573597,1575573600,space,4.23267547,,,,,,,,,,,,,,,,,,,,,,,s14,1,34,F,resident,2019_Dec_05_1318,AdjustEyeTrack,3.1.5,59.86573409
110,Stimuli/Morph110.JPG,Stimuli/Morph110.png,Stimuli/BlurLevel5/BlurEditedMorph110,Stimuli/BlurLevel5/BlurEditedMorph110.png,Stimuli/BlurLevel5/NumberedMorphs/BlurEditedMorph110.png,Stimuli/BlurLevel5/OriginalBlur/BlurEditedMorph110.png,Stimuli/BlurMorphTrio/EditedMorph110.png,None,None,0,5,5,109,,,,,,,,,,,,,,,,,,,,,,,,,,,,,,,78,-100,-100,315,1.767766953,-1.767766953,110,training,140.5743727,141.0729764,140.5743727,141.0729764,76.8707483,1575573609,1575573611,2.750349045,144,93,17,17,1575573607,1575573609,space,2.174354444,,,,,,,,,,,,,,,,,,,,,,,s14,1,34,F,resident,2019_Dec_05_1318,AdjustEyeTrack,3.1.5,59.86573409
54,Stimuli/Morph54.JPG,Stimuli/Morph54.png,Stimuli/BlurLevel5/BlurEditedMorph54,Stimuli/BlurLevel5/BlurEditedMorph54.png,Stimuli/BlurLevel5/NumberedMorphs/BlurEditedMorph54.png,Stimuli/BlurLevel5/OriginalBlur/BlurEditedMorph54.png,Stimuli/BlurMorphTrio/EditedMorph54.png,010150right.gif,Stimuli/normal_thumbnails/54right.gif,0,6,6,53,,,,,,,,,,,,,,,,,,,,,,,,,,,,,,,55,-100,-100,261,-0.391086163,-2.469220851,54,training,147.9893601,148.4893306,147.9893601,148.4893306,87.75510204,1575573616,1575573622,6.299930096,51,63,-9,-9,1575573614,1575573616,space,2.613381394,,,,,,,,,,,,,,,,,,,,,,,s14,1,34,F,resident,2019_Dec_05_1318,AdjustEyeTrack,3.1.5,59.86573409
95,Stimuli/Morph95.JPG,Stimuli/Morph95.png,Stimuli/BlurLevel5/BlurEditedMorph95,Stimuli/BlurLevel5/BlurEditedMorph95.png,Stimuli/BlurLevel5/NumberedMorphs/BlurEditedMorph95.png,Stimuli/BlurLevel5/OriginalBlur/BlurEditedMorph95.png,Stimuli/BlurMorphTrio/EditedMorph95.png,020287right.gif,Stimuli/normal_thumbnails/95right.gif,0,7,7,94,,,,,,,,,,,,,,,,,,,,,,,,,,,,,,,50,-100,-100,180,-2.5,3.06E-16,95,training,159.205368,159.7062153,159.205368,159.7062153,97.27891156,1575573627,1575573630,2.338039875,56,93,2,2,1575573625,1575573627,space,2.159676145,,,,,,,,,,,,,,,,,,,,,,,s14,1,34,F,resident,2019_Dec_05_1318,AdjustEyeTrack,3.1.5,59.86573409
131,Stimuli/Morph131.JPG,Stimuli/Morph131.png,Stimuli/BlurLevel5/BlurEditedMorph131,Stimuli/BlurLevel5/BlurEditedMorph131.png,Stimuli/BlurLevel5/NumberedMorphs/BlurEditedMorph131.png,Stimuli/BlurLevel5/OriginalBlur/BlurEditedMorph131.png,Stimuli/BlurMorphTrio/EditedMorph131.png,None,None,0,8,8,130,,,,,,,,,,,,,,,,,,,,,,,,,,,,,,,96,-100,-100,322,1.970026884,-1.539153688,131,training,167.1298181,167.6235068,167.1298181,167.6235068,41.49659864,1575573635,1575573640,5.071120977,131,88,43,43,1575573632,1575573635,space,3.685676324,,,,,,,,,,,,,,,,,,,,,,,s14,1,34,F,resident,2019_Dec_05_1318,AdjustEyeTrack,3.1.5,59.86573409
8,Stimuli/Morph8.JPG,Stimuli/Morph8.png,Stimuli/BlurLevel5/BlurEditedMorph8,Stimuli/BlurLevel5/BlurEditedMorph8.png,Stimuli/BlurLevel5/NumberedMorphs/BlurEditedMorph8.png,Stimuli/BlurLevel5/OriginalBlur/BlurEditedMorph8.png,Stimuli/BlurMorphTrio/EditedMorph8.png,010014right.gif,Stimuli/normal_thumbnails/8right.gif,0,9,9,7,,,,,,,,,,,,,,,,,,,,,,,,,,,,,,,37,-100,-100,106,-0.68909339,2.40315424,8,training,178.7409877,179.2403538,178.7409877,179.2403538,74.14965986,1575573647,1575573649,2.415994883,137,136,-128,19,1575573644,1575573647,space,1.648252253,,,,,,,,,,,,,,,,,,,,,,,s14,1,34,F,resident,2019_Dec_05_1318,AdjustEyeTrack,3.1.5,59.86573409
,,,,,,,,,,,,,,,,,,,,,,,,,,,,,,,,,,,,,,,,,,,,,-100,-100,,,,,training,,,,,,,,,,,,,,,,,184.4559757,None,184.4559757,None,184.4559757,None,space,45.32567943,184.4559757,None,,,,,,,,,,,,,s14,1,34,F,resident,2019_Dec_05_1318,AdjustEyeTrack,3.1.5,59.86573409
22,Stimuli/Morph22.JPG,Stimuli/Morph22.png,Stimuli/BlurLevel5/BlurEditedMorph22,Stimuli/BlurLevel5/BlurEditedMorph22.png,Stimuli/BlurLevel5/NumberedMorphs/BlurEditedMorph22.png,Stimuli/BlurLevel5/OriginalBlur/BlurEditedMorph22.png,Stimuli/BlurMorphTrio/EditedMorph22.png,010055right.gif,Stimuli/normal_thumbnails/22right.gif,,,,,0,0,0,0,0,0,0,21,,,,,,,,,,,,,,,,,,,,,,,37,1,1,7,2.481365379,0.304673359,22,Experiment,,,,,,,,,105,25,-3,-3,,,,,,,,,,,,,,,230.855535,231.3552991,230.855535,231.3552991,95.91836735,1575573699,1575573701,2.467107773,1575573697,1575573699,,,s14,1,34,F,resident,2019_Dec_05_1318,AdjustEyeTrack,3.1.5,59.86573409
121,Stimuli/Morph121.JPG,Stimuli/Morph121.png,Stimuli/BlurLevel5/BlurEditedMorph121,Stimuli/BlurLevel5/BlurEditedMorph121.png,Stimuli/BlurLevel5/NumberedMorphs/BlurEditedMorph121.png,Stimuli/BlurLevel5/OriginalBlur/BlurEditedMorph121.png,Stimuli/BlurMorphTrio/EditedMorph121.png,None,None,,,,,0,0,0,0,0,1,1,120,,,,,,,,,,,,,,,,,,,,,,,15,2,1,166,-2.425739316,0.604804739,121,Experiment,,,,,,,,,121,121,0,0,,,,,,,,,,,,,,,236.1810003,236.6888529,236.1810003,236.6888529,100,1575573704,1575573708,3.801575184,1575573702,1575573704,,,s14,1,34,F,resident,2019_Dec_05_1318,AdjustEyeTrack,3.1.5,59.86573409
125,Stimuli/Morph125.JPG,Stimuli/Morph125.png,Stimuli/BlurLevel5/BlurEditedMorph125,Stimuli/BlurLevel5/BlurEditedMorph125.png,Stimuli/BlurLevel5/NumberedMorphs/BlurEditedMorph125.png,Stimuli/BlurLevel5/OriginalBlur/BlurEditedMorph125.png,Stimuli/BlurMorphTrio/EditedMorph125.png,None,None,,,,,0,0,0,0,0,2,2,124,,,,,,,,,,,,,,,,,,,,,,,2,3,1,139,-1.886773951,1.640147572,125,Experiment,,,,,,,,,67,121,4,4,,,,,,,,,,,,,,,242.6216471,243.1212413,242.6216471,243.1212413,94.55782313,1575573711,1575573716,5.748874903,1575573708,1575573711,,,s14,1,34,F,resident,2019_Dec_05_1318,AdjustEyeTrack,3.1.5,59.86573409
34,Stimuli/Morph34.JPG,Stimuli/Morph34.png,Stimuli/BlurLevel5/BlurEditedMorph34,Stimuli/BlurLevel5/BlurEditedMorph34.png,Stimuli/BlurLevel5/NumberedMorphs/BlurEditedMorph34.png,Stimuli/BlurLevel5/OriginalBlur/BlurEditedMorph34.png,Stimuli/BlurMorphTrio/EditedMorph34.png,010090right.gif,Stimuli/normal_thumbnails/34right.gif,,,,,0,0,0,0,0,3,3,33,,,,,,,,,,,,,,,,,,,,,,,70,4,1,341,2.363796439,-0.813920386,34,Experiment,,,,,,,,,6,35,-1,-1,,,,,,,,,,,,,,,250.773667,251.2710585,250.773667,251.2710585,98.63945578,1575573719,1575573724,4.682354212,1575573717,1575573719,,,s14,1,34,F,resident,2019_Dec_05_1318,AdjustEyeTrack,3.1.5,59.86573409
126,Stimuli/Morph126.JPG,Stimuli/Morph126.png,Stimuli/BlurLevel5/BlurEditedMorph126,Stimuli/BlurLevel5/BlurEditedMorph126.png,Stimuli/BlurLevel5/NumberedMorphs/BlurEditedMorph126.png,Stimuli/BlurLevel5/OriginalBlur/BlurEditedMorph126.png,Stimuli/BlurMorphTrio/EditedMorph126.png,None,None,,,,,0,0,0,0,0,4,4,125,,,,,,,,,,,,,,,,,,,,,,,5,5,1,1,2.499619238,0.043631016,126,Experiment,,,,,,,,,24,124,2,2,,,,,,,,,,,,,,,258.2212882,258.7209625,258.2212882,258.7209625,97.27891156,1575573726,1575573732,5.966436863,1575573724,1575573726,,,s14,1,34,F,resident,2019_Dec_05_1318,AdjustEyeTrack,3.1.5,59.86573409
12,Stimuli/Morph12.JPG,Stimuli/Morph12.png,Stimuli/BlurLevel5/BlurEditedMorph12,Stimuli/BlurLevel5/BlurEditedMorph12.png,Stimuli/BlurLevel5/NumberedMorphs/BlurEditedMorph12.png,Stimuli/BlurLevel5/OriginalBlur/BlurEditedMorph12.png,Stimuli/BlurMorphTrio/EditedMorph12.png,010026right.gif,Stimuli/normal_thumbnails/12right.gif,,,,,0,0,0,0,0,5,5,11,,,,,,,,,,,,,,,,,,,,,,,12,6,1,215,-2.047880111,-1.433941091,12,Experiment,,,,,,,,,78,15,-3,-3,,,,,,,,,,,,,,,267.4918777,267.9875033,267.4918777,267.9875033,95.91836735,1575573736,1575573741,5.882800102,1575573733,1575573736,,,s14,1,34,F,resident,2019_Dec_05_1318,AdjustEyeTrack,3.1.5,59.86573409
85,Stimuli/Morph85.JPG,Stimuli/Morph85.png,Stimuli/BlurLevel5/BlurEditedMorph85,Stimuli/BlurLevel5/BlurEditedMorph85.png,Stimuli/BlurLevel5/NumberedMorphs/BlurEditedMorph85.png,Stimuli/BlurLevel5/OriginalBlur/BlurEditedMorph85.png,Stimuli/BlurMorphTrio/EditedMorph85.png,020264right.gif,Stimuli/normal_thumbnails/85right.gif,,,,,0,0,0,0,0,6,6,84,,,,,,,,,,,,,,,,,,,,,,,79,7,1,172,-2.475670172,0.347932752,85,Experiment,,,,,,,,,5,80,5,5,,,,,,,,,,,,,,,276.1545024,276.6537546,276.1545024,276.6537546,93.19727891,1575573744,1575573748,3.849197149,1575573742,1575573744,,,s14,1,34,F,resident,2019_Dec_05_1318,AdjustEyeTrack,3.1.5,59.86573409
91,Stimuli/Morph91.JPG,Stimuli/Morph91.png,Stimuli/BlurLevel5/BlurEditedMorph91,Stimuli/BlurLevel5/BlurEditedMorph91.png,Stimuli/BlurLevel5/NumberedMorphs/BlurEditedMorph91.png,Stimuli/BlurLevel5/OriginalBlur/BlurEditedMorph91.png,Stimuli/BlurMorphTrio/EditedMorph91.png,020276right.gif,Stimuli/normal_thumbnails/91right.gif,,,,,0,0,0,0,0,7,7,90,,,,,,,,,,,,,,,,,,,,,,,35,8,1,19,2.363796439,0.813920386,91,Experiment,,,,,,,,,108,90,1,1,,,,,,,,,,,,,,,282.4425995,282.9371055,282.4425995,282.9371055,98.63945578,1575573751,1575573754,3.600985765,1575573748,1575573751,,,s14,1,34,F,resident,2019_Dec_05_1318,AdjustEyeTrack,3.1.5,59.86573409
8,Stimuli/Morph8.JPG,Stimuli/Morph8.png,Stimuli/BlurLevel5/BlurEditedMorph8,Stimuli/BlurLevel5/BlurEditedMorph8.png,Stimuli/BlurLevel5/NumberedMorphs/BlurEditedMorph8.png,Stimuli/BlurLevel5/OriginalBlur/BlurEditedMorph8.png,Stimuli/BlurMorphTrio/EditedMorph8.png,010014right.gif,Stimuli/normal_thumbnails/8right.gif,,,,,0,0,0,0,0,8,8,7,,,,,,,,,,,,,,,,,,,,,,,83,9,1,159,-2.333951066,0.895919874,8,Experiment,,,,,,,,,33,110,-102,45,,,,,,,,,,,,,,,288.6086831,289.1033425,288.6086831,289.1033425,38.7755102,1575573757,1575573763,6.115528107,1575573754,1575573757,,,s14,1,34,F,resident,2019_Dec_05_1318,AdjustEyeTrack,3.1.5,59.86573409
6,Stimuli/Morph6.JPG,Stimuli/Morph6.png,Stimuli/BlurLevel5/BlurEditedMorph6,Stimuli/BlurLevel5/BlurEditedMorph6.png,Stimuli/BlurLevel5/NumberedMorphs/BlurEditedMorph6.png,Stimuli/BlurLevel5/OriginalBlur/BlurEditedMorph6.png,Stimuli/BlurMorphTrio/EditedMorph6.png,010012right.gif,Stimuli/normal_thumbnails/6right.gif,,,,,0,0,0,0,0,9,9,5,,,,,,,,,,,,,,,,,,,,,,,70,10,1,220,-1.915111108,-1.606969024,6,Experiment,,,,,,,,,135,142,-136,11,,,,,,,,,,,,,,,297.5385126,298.0374133,297.5385126,298.0374133,85.03401361,1575573766,1575573768,2.249501944,1575573763,1575573766,,,s14,1,34,F,resident,2019_Dec_05_1318,AdjustEyeTrack,3.1.5,59.86573409
78,Stimuli/Morph78.JPG,Stimuli/Morph78.png,Stimuli/BlurLevel5/BlurEditedMorph78,Stimuli/BlurLevel5/BlurEditedMorph78.png,Stimuli/BlurLevel5/NumberedMorphs/BlurEditedMorph78.png,Stimuli/BlurLevel5/OriginalBlur/BlurEditedMorph78.png,Stimuli/BlurMorphTrio/EditedMorph78.png,020238right.gif,Stimuli/normal_thumbnails/78right.gif,,,,,0,0,0,0,0,10,10,77,,,,,,,,,,,,,,,,,,,,,,,75,11,1,180,-2.5,3.06E-16,78,Experiment,,,,,,,,,50,87,-9,-9,,,,,,,,,,,,,,,302.3888875,302.8886748,302.3888875,302.8886748,87.75510204,1575573770,1575573774,3.832882881,1575573768,1575573770,,,s14,1,34,F,resident,2019_Dec_05_1318,AdjustEyeTrack,3.1.5,59.86573409
24,Stimuli/Morph24.JPG,Stimuli/Morph24.png,Stimuli/BlurLevel5/BlurEditedMorph24,Stimuli/BlurLevel5/BlurEditedMorph24.png,Stimuli/BlurLevel5/NumberedMorphs/BlurEditedMorph24.png,Stimuli/BlurLevel5/OriginalBlur/BlurEditedMorph24.png,Stimuli/BlurMorphTrio/EditedMorph24.png,010068right.gif,Stimuli/normal_thumbnails/24right.gif,,,,,0,0,0,0,0,11,11,23,,,,,,,,,,,,,,,,,,,,,,,26,12,1,155,-2.265769468,1.056545654,24,Experiment,,,,,,,,,64,31,-7,-7,,,,,,,,,,,,,,,308.9415667,309.4368423,308.9415667,309.4368423,90.47619048,1575573777,1575573780,3.319284916,1575573775,1575573777,,,s14,1,34,F,resident,2019_Dec_05_1318,AdjustEyeTrack,3.1.5,59.86573409
142,Stimuli/Morph142.JPG,Stimuli/Morph142.png,Stimuli/BlurLevel5/BlurEditedMorph142,Stimuli/BlurLevel5/BlurEditedMorph142.png,Stimuli/BlurLevel5/NumberedMorphs/BlurEditedMorph142.png,Stimuli/BlurLevel5/OriginalBlur/BlurEditedMorph142.png,Stimuli/BlurMorphTrio/EditedMorph142.png,None,None,,,,,0,0,0,0,0,12,12,141,,,,,,,,,,,,,,,,,,,,,,,18,13,1,328,2.12012024,-1.324798161,142,Experiment,,,,,,,,,45,5,137,-10,,,,,,,,,,,,,,,314.7362922,315.2362862,314.7362922,315.2362862,86.39455782,1575573783,1575573786,2.832522869,1575573781,1575573783,,,s14,1,34,F,resident,2019_Dec_05_1318,AdjustEyeTrack,3.1.5,59.86573409
113,Stimuli/Morph113.JPG,Stimuli/Morph113.png,Stimuli/BlurLevel5/BlurEditedMorph113,Stimuli/BlurLevel5/BlurEditedMorph113.png,Stimuli/BlurLevel5/NumberedMorphs/BlurEditedMorph113.png,Stimuli/BlurLevel5/OriginalBlur/BlurEditedMorph113.png,Stimuli/BlurMorphTrio/EditedMorph113.png,None,None,,,,,0,0,0,0,0,13,13,112,,,,,,,,,,,,,,,,,,,,,,,34,14,1,333,2.22751631,-1.134976249,113,Experiment,,,,,,,,,129,118,-5,-5,,,,,,,,,,,,,,,320.6957589,321.2203493,320.6957589,321.2203493,93.19727891,1575573789,1575573792,2.850022793,1575573786,1575573789,,,s14,1,34,F,resident,2019_Dec_05_1318,AdjustEyeTrack,3.1.5,59.86573409
84,Stimuli/Morph84.JPG,Stimuli/Morph84.png,Stimuli/BlurLevel5/BlurEditedMorph84,Stimuli/BlurLevel5/BlurEditedMorph84.png,Stimuli/BlurLevel5/NumberedMorphs/BlurEditedMorph84.png,Stimuli/BlurLevel5/OriginalBlur/BlurEditedMorph84.png,Stimuli/BlurMorphTrio/EditedMorph84.png,020261right.gif,Stimuli/normal_thumbnails/84right.gif,,,,,0,0,0,0,0,14,14,83,,,,,,,,,,,,,,,,,,,,,,,57,15,1,148,-2.12012024,1.324798161,84,Experiment,,,,,,,,,63,90,-6,-6,,,,,,,,,,,,,,,326.5753172,327.0697213,326.5753172,327.0697213,91.83673469,1575573795,1575573799,4.382233143,1575573792,1575573795,,,s14,1,34,F,resident,2019_Dec_05_1318,AdjustEyeTrack,3.1.5,59.86573409
18,Stimuli/Morph18.JPG,Stimuli/Morph18.png,Stimuli/BlurLevel5/BlurEditedMorph18,Stimuli/BlurLevel5/BlurEditedMorph18.png,Stimuli/BlurLevel5/NumberedMorphs/BlurEditedMorph18.png,Stimuli/BlurLevel5/OriginalBlur/BlurEditedMorph18.png,Stimuli/BlurMorphTrio/EditedMorph18.png,010039right.gif,Stimuli/normal_thumbnails/18right.gif,,,,,0,0,0,0,0,15,15,17,,,,,,,,,,,,,,,,,,,,,,,22,16,1,30,2.165063509,1.25,18,Experiment,,,,,,,,,51,20,-2,-2,,,,,,,,,,,,,,,333.5450026,334.0367771,333.5450026,334.0367771,97.27891156,1575573802,1575573807,5.564162016,1575573799,1575573802,,,s14,1,34,F,resident,2019_Dec_05_1318,AdjustEyeTrack,3.1.5,59.86573409
145,Stimuli/Morph145.JPG,Stimuli/Morph145.png,Stimuli/BlurLevel5/BlurEditedMorph145,Stimuli/BlurLevel5/BlurEditedMorph145.png,Stimuli/BlurLevel5/NumberedMorphs/BlurEditedMorph145.png,Stimuli/BlurLevel5/OriginalBlur/BlurEditedMorph145.png,Stimuli/BlurMorphTrio/EditedMorph145.png,None,None,,,,,0,0,0,0,0,16,16,144,,,,,,,,,,,,,,,,,,,,,,,52,17,1,26,2.246985116,1.095927867,145,Experiment,,,,,,,,,28,145,0,0,,,,,,,,,,,,,,,341.5372042,342.0366142,341.5372042,342.0366142,100,1575573810,1575573811,1.849106789,1575573807,1575573810,,,s14,1,34,F,resident,2019_Dec_05_1318,AdjustEyeTrack,3.1.5,59.86573409
144,Stimuli/Morph144.JPG,Stimuli/Morph144.png,Stimuli/BlurLevel5/BlurEditedMorph144,Stimuli/BlurLevel5/BlurEditedMorph144.png,Stimuli/BlurLevel5/NumberedMorphs/BlurEditedMorph144.png,Stimuli/BlurLevel5/OriginalBlur/BlurEditedMorph144.png,Stimuli/BlurMorphTrio/EditedMorph144.png,None,None,,,,,0,0,0,0,0,17,17,143,,,,,,,,,,,,,,,,,,,,,,,86,18,1,208,-2.207368982,-1.173678907,144,Experiment,,,,,,,,,92,145,-1,-1,,,,,,,,,,,,,,,346.0496218,346.5535621,346.0496218,346.5535621,98.63945578,1575573814,1575573817,2.833202839,1575573812,1575573814,,,s14,1,34,F,resident,2019_Dec_05_1318,AdjustEyeTrack,3.1.5,59.86573409
80,Stimuli/Morph80.JPG,Stimuli/Morph80.png,Stimuli/BlurLevel5/BlurEditedMorph80,Stimuli/BlurLevel5/BlurEditedMorph80.png,Stimuli/BlurLevel5/NumberedMorphs/BlurEditedMorph80.png,Stimuli/BlurLevel5/OriginalBlur/BlurEditedMorph80.png,Stimuli/BlurMorphTrio/EditedMorph80.png,020240right.gif,Stimuli/normal_thumbnails/80right.gif,,,,,0,0,0,0,0,18,18,79,,,,,,,,,,,,,,,,,,,,,,,99,19,1,290,0.855050358,-2.349231552,80,Experiment,,,,,,,,,89,89,-9,-9,,,,,,,,,,,,,,,351.3245262,351.8203209,351.3245262,351.8203209,87.75510204,1575573819,1575573821,1.200157881,1575573817,1575573819,,,s14,1,34,F,resident,2019_Dec_05_1318,AdjustEyeTrack,3.1.5,59.86573409
38,Stimuli/Morph38.JPG,Stimuli/Morph38.png,Stimuli/BlurLevel5/BlurEditedMorph38,Stimuli/BlurLevel5/BlurEditedMorph38.png,Stimuli/BlurLevel5/NumberedMorphs/BlurEditedMorph38.png,Stimuli/BlurLevel5/OriginalBlur/BlurEditedMorph38.png,Stimuli/BlurMorphTrio/EditedMorph38.png,010108right.gif,Stimuli/normal_thumbnails/38right.gif,,,,,0,0,0,0,0,19,19,37,,,,,,,,,,,,,,,,,,,,,,,28,20,1,241,-1.212024051,-2.186549268,38,Experiment,,,,,,,,,124,36,2,2,,,,,,,,,,,,,,,355.6082534,356.1031039,355.6082534,356.1031039,97.27891156,1575573824,1575573827,3.719501972,1575573821,1575573824,,,s14,1,34,F,resident,2019_Dec_05_1318,AdjustEyeTrack,3.1.5,59.86573409
110,Stimuli/Morph110.JPG,Stimuli/Morph110.png,Stimuli/BlurLevel5/BlurEditedMorph110,Stimuli/BlurLevel5/BlurEditedMorph110.png,Stimuli/BlurLevel5/NumberedMorphs/BlurEditedMorph110.png,Stimuli/BlurLevel5/OriginalBlur/BlurEditedMorph110.png,Stimuli/BlurMorphTrio/EditedMorph110.png,None,None,,,,,0,0,0,0,0,20,20,109,,,,,,,,,,,,,,,,,,,,,,,44,21,1,57,1.361597588,2.09667642,110,Experiment,,,,,,,,,31,110,0,0,,,,,,,,,,,,,,,362.2226128,362.7201835,362.2226128,362.7201835,100,1575573830,1575573833,2.366816044,1575573828,1575573830,,,s14,1,34,F,resident,2019_Dec_05_1318,AdjustEyeTrack,3.1.5,59.86573409
48,Stimuli/Morph48.JPG,Stimuli/Morph48.png,Stimuli/BlurLevel5/BlurEditedMorph48,Stimuli/BlurLevel5/BlurEditedMorph48.png,Stimuli/BlurLevel5/NumberedMorphs/BlurEditedMorph48.png,Stimuli/BlurLevel5/OriginalBlur/BlurEditedMorph48.png,Stimuli/BlurMorphTrio/EditedMorph48.png,010131right.gif,Stimuli/normal_thumbnails/48right.gif,,,,,0,0,0,0,0,21,21,47,,,,,,,,,,,,,,,,,,,,,,,57,22,1,58,1.324798161,2.12012024,48,Experiment,,,,,,,,,96,48,0,0,,,,,,,,,,,,,,,367.3323112,367.8370754,367.3323112,367.8370754,100,1575573835,1575573838,2.73311305,1575573833,1575573835,,,s14,1,34,F,resident,2019_Dec_05_1318,AdjustEyeTrack,3.1.5,59.86573409
123,Stimuli/Morph123.JPG,Stimuli/Morph123.png,Stimuli/BlurLevel5/BlurEditedMorph123,Stimuli/BlurLevel5/BlurEditedMorph123.png,Stimuli/BlurLevel5/NumberedMorphs/BlurEditedMorph123.png,Stimuli/BlurLevel5/OriginalBlur/BlurEditedMorph123.png,Stimuli/BlurMorphTrio/EditedMorph123.png,None,None,,,,,0,0,0,0,0,22,22,122,,,,,,,,,,,,,,,,,,,,,,,31,23,1,151,-2.186549268,1.212024051,123,Experiment,,,,,,,,,15,106,17,17,,,,,,,,,,,,,,,373.0473316,373.55245,373.0473316,373.55245,76.8707483,1575573841,1575573843,1.799647808,1575573838,1575573841,,,s14,1,34,F,resident,2019_Dec_05_1318,AdjustEyeTrack,3.1.5,59.86573409
87,Stimuli/Morph87.JPG,Stimuli/Morph87.png,Stimuli/BlurLevel5/BlurEditedMorph87,Stimuli/BlurLevel5/BlurEditedMorph87.png,Stimuli/BlurLevel5/NumberedMorphs/BlurEditedMorph87.png,Stimuli/BlurLevel5/OriginalBlur/BlurEditedMorph87.png,Stimuli/BlurMorphTrio/EditedMorph87.png,020270right.gif,Stimuli/normal_thumbnails/87right.gif,,,,,0,0,0,0,0,23,23,86,,,,,,,,,,,,,,,,,,,,,,,72,24,1,207,-2.22751631,-1.134976249,87,Experiment,,,,,,,,,15,97,-10,-10,,,,,,,,,,,,,,,377.6547382,378.1535714,377.6547382,378.1535714,86.39455782,1575573846,1575573848,2.266977072,1575573843,1575573846,,,s14,1,34,F,resident,2019_Dec_05_1318,AdjustEyeTrack,3.1.5,59.86573409
81,Stimuli/Morph81.JPG,Stimuli/Morph81.png,Stimuli/BlurLevel5/BlurEditedMorph81,Stimuli/BlurLevel5/BlurEditedMorph81.png,Stimuli/BlurLevel5/NumberedMorphs/BlurEditedMorph81.png,Stimuli/BlurLevel5/OriginalBlur/BlurEditedMorph81.png,Stimuli/BlurMorphTrio/EditedMorph81.png,020245right.gif,Stimuli/normal_thumbnails/81right.gif,,,,,0,0,0,0,0,24,24,80,,,,,,,,,,,,,,,,,,,,,,,47,25,1,65,1.056545654,2.265769468,81,Experiment,,,,,,,,,16,111,-30,-30,,,,,,,,,,,,,,,383.3041919,383.8042602,383.3041919,383.8042602,59.18367347,1575573851,1575573857,5.850177765,1575573848,1575573851,,,s14,1,34,F,resident,2019_Dec_05_1318,AdjustEyeTrack,3.1.5,59.86573409
138,Stimuli/Morph138.JPG,Stimuli/Morph138.png,Stimuli/BlurLevel5/BlurEditedMorph138,Stimuli/BlurLevel5/BlurEditedMorph138.png,Stimuli/BlurLevel5/NumberedMorphs/BlurEditedMorph138.png,Stimuli/BlurLevel5/OriginalBlur/BlurEditedMorph138.png,Stimuli/BlurMorphTrio/EditedMorph138.png,None,None,,,,,0,0,0,0,0,25,25,137,,,,,,,,,,,,,,,,,,,,,,,46,26,1,123,-1.361597588,2.09667642,138,Experiment,,,,,,,,,99,129,9,9,,,,,,,,,,,,,,,391.7867492,392.2863358,391.7867492,392.2863358,87.75510204,1575573860,1575573862,2.219652891,1575573858,1575573860,,,s14,1,34,F,resident,2019_Dec_05_1318,AdjustEyeTrack,3.1.5,59.86573409
112,Stimuli/Morph112.JPG,Stimuli/Morph112.png,Stimuli/BlurLevel5/BlurEditedMorph112,Stimuli/BlurLevel5/BlurEditedMorph112.png,Stimuli/BlurLevel5/NumberedMorphs/BlurEditedMorph112.png,Stimuli/BlurLevel5/OriginalBlur/BlurEditedMorph112.png,Stimuli/BlurMorphTrio/EditedMorph112.png,None,None,,,,,0,0,0,0,0,26,26,111,,,,,,,,,,,,,,,,,,,,,,,32,27,1,141,-1.942864904,1.573300978,112,Experiment,,,,,,,,,59,110,2,2,,,,,,,,,,,,,,,396.7550922,397.2527496,396.7550922,397.2527496,97.27891156,1575573865,1575573868,2.700109005,1575573862,1575573865,,,s14,1,34,F,resident,2019_Dec_05_1318,AdjustEyeTrack,3.1.5,59.86573409
102,Stimuli/Morph102.JPG,Stimuli/Morph102.png,Stimuli/BlurLevel5/BlurEditedMorph102,Stimuli/BlurLevel5/BlurEditedMorph102.png,Stimuli/BlurLevel5/NumberedMorphs/BlurEditedMorph102.png,Stimuli/BlurLevel5/OriginalBlur/BlurEditedMorph102.png,Stimuli/BlurMorphTrio/EditedMorph102.png,None,None,,,,,0,0,0,0,0,27,27,101,,,,,,,,,,,,,,,,,,,,,,,35,28,1,337,2.301262134,-0.976827821,102,Experiment,,,,,,,,,108,108,-6,-6,,,,,,,,,,,,,,,401.8867707,402.385309,401.8867707,402.385309,91.83673469,1575573870,1575573871,1.066138744,1575573868,1575573870,,,s14,1,34,F,resident,2019_Dec_05_1318,AdjustEyeTrack,3.1.5,59.86573409
97,Stimuli/Morph97.JPG,Stimuli/Morph97.png,Stimuli/BlurLevel5/BlurEditedMorph97,Stimuli/BlurLevel5/BlurEditedMorph97.png,Stimuli/BlurLevel5/NumberedMorphs/BlurEditedMorph97.png,Stimuli/BlurLevel5/OriginalBlur/BlurEditedMorph97.png,Stimuli/BlurMorphTrio/EditedMorph97.png,020294right.gif,Stimuli/normal_thumbnails/97right.gif,,,,,0,0,0,0,0,28,28,96,,,,,,,,,,,,,,,,,,,,,,,61,29,1,359,2.499619238,-0.043631016,97,Experiment,,,,,,,,,15,103,-6,-6,,,,,,,,,,,,,,,405.8703643,406.3693681,405.8703643,406.3693681,91.83673469,1575573874,1575573876,2.080671787,1575573871,1575573874,,,s14,1,34,F,resident,2019_Dec_05_1318,AdjustEyeTrack,3.1.5,59.86573409
39,Stimuli/Morph39.JPG,Stimuli/Morph39.png,Stimuli/BlurLevel5/BlurEditedMorph39,Stimuli/BlurLevel5/BlurEditedMorph39.png,Stimuli/BlurLevel5/NumberedMorphs/BlurEditedMorph39.png,Stimuli/BlurLevel5/OriginalBlur/BlurEditedMorph39.png,Stimuli/BlurMorphTrio/EditedMorph39.png,010109right.gif,Stimuli/normal_thumbnails/39right.gif,,,,,0,0,0,0,0,29,29,38,,,,,,,,,,,,,,,,,,,,,,,20,30,1,303,1.361597588,-2.09667642,39,Experiment,,,,,,,,,60,58,-19,-19,,,,,,,,,,,,,,,410.4708828,410.9682986,410.4708828,410.9682986,74.14965986,1575573879,1575573882,3.268407822,1575573876,1575573879,,,s14,1,34,F,resident,2019_Dec_05_1318,AdjustEyeTrack,3.1.5,59.86573409
49,Stimuli/Morph49.JPG,Stimuli/Morph49.png,Stimuli/BlurLevel5/BlurEditedMorph49,Stimuli/BlurLevel5/BlurEditedMorph49.png,Stimuli/BlurLevel5/NumberedMorphs/BlurEditedMorph49.png,Stimuli/BlurLevel5/OriginalBlur/BlurEditedMorph49.png,Stimuli/BlurMorphTrio/EditedMorph49.png,010135right.gif,Stimuli/normal_thumbnails/49right.gif,,,,,0,0,0,0,0,30,30,48,,,,,,,,,,,,,,,,,,,,,,,66,31,1,152,-2.207368982,1.173678907,49,Experiment,,,,,,,,,95,57,-8,-8,,,,,,,,,,,,,,,416.3526316,416.8525776,416.3526316,416.8525776,89.11564626,1575573884,1575573887,2.733699799,1575573882,1575573884,,,s14,1,34,F,resident,2019_Dec_05_1318,AdjustEyeTrack,3.1.5,59.86573409
140,Stimuli/Morph140.JPG,Stimuli/Morph140.png,Stimuli/BlurLevel5/BlurEditedMorph140,Stimuli/BlurLevel5/BlurEditedMorph140.png,Stimuli/BlurLevel5/NumberedMorphs/BlurEditedMorph140.png,Stimuli/BlurLevel5/OriginalBlur/BlurEditedMorph140.png,Stimuli/BlurMorphTrio/EditedMorph140.png,None,None,,,,,0,0,0,0,0,31,31,139,,,,,,,,,,,,,,,,,,,,,,,17,32,1,356,2.493910126,-0.174391184,140,Experiment,,,,,,,,,1,6,134,-13,,,,,,,,,,,,,,,422.1877906,422.6855944,422.1877906,422.6855944,82.31292517,1575573890,1575573894,4.137467146,1575573887,1575573890,,,s14,1,34,F,resident,2019_Dec_05_1318,AdjustEyeTrack,3.1.5,59.86573409
82,Stimuli/Morph82.JPG,Stimuli/Morph82.png,Stimuli/BlurLevel5/BlurEditedMorph82,Stimuli/BlurLevel5/BlurEditedMorph82.png,Stimuli/BlurLevel5/NumberedMorphs/BlurEditedMorph82.png,Stimuli/BlurLevel5/OriginalBlur/BlurEditedMorph82.png,Stimuli/BlurMorphTrio/EditedMorph82.png,020247right.gif,Stimuli/normal_thumbnails/82right.gif,,,,,0,0,0,0,0,32,32,81,,,,,,,,,,,,,,,,,,,,,,,59,33,1,261,-0.391086163,-2.469220851,82,Experiment,,,,,,,,,143,88,-6,-6,,,,,,,,,,,,,,,428.8361532,429.3354831,428.8361532,429.3354831,91.83673469,1575573897,1575573901,4.097723961,1575573895,1575573897,,,s14,1,34,F,resident,2019_Dec_05_1318,AdjustEyeTrack,3.1.5,59.86573409
128,Stimuli/Morph128.JPG,Stimuli/Morph128.png,Stimuli/BlurLevel5/BlurEditedMorph128,Stimuli/BlurLevel5/BlurEditedMorph128.png,Stimuli/BlurLevel5/NumberedMorphs/BlurEditedMorph128.png,Stimuli/BlurLevel5/OriginalBlur/BlurEditedMorph128.png,Stimuli/BlurMorphTrio/EditedMorph128.png,None,None,,,,,0,0,0,0,0,33,33,127,,,,,,,,,,,,,,,,,,,,,,,78,34,1,231,-1.573300978,-1.942864904,128,Experiment,,,,,,,,,55,119,9,9,,,,,,,,,,,,,,,435.5264975,436.0196061,435.5264975,436.0196061,87.75510204,1575573904,1575573910,6.183847904,1575573901,1575573904,,,s14,1,34,F,resident,2019_Dec_05_1318,AdjustEyeTrack,3.1.5,59.86573409
56,Stimuli/Morph56.JPG,Stimuli/Morph56.png,Stimuli/BlurLevel5/BlurEditedMorph56,Stimuli/BlurLevel5/BlurEditedMorph56.png,Stimuli/BlurLevel5/NumberedMorphs/BlurEditedMorph56.png,Stimuli/BlurLevel5/OriginalBlur/BlurEditedMorph56.png,Stimuli/BlurMorphTrio/EditedMorph56.png,010157right.gif,Stimuli/normal_thumbnails/56right.gif,,,,,0,0,0,0,0,34,34,55,,,,,,,,,,,,,,,,,,,,,,,55,35,1,143,-1.996588775,1.504537558,56,Experiment,,,,,,,,,58,57,-1,-1,,,,,,,,,,,,,,,444.4857795,444.9847328,444.4857795,444.9847328,98.63945578,1575573913,1575573915,2.547761202,1575573910,1575573913,,,s14,1,34,F,resident,2019_Dec_05_1318,AdjustEyeTrack,3.1.5,59.86573409
37,Stimuli/Morph37.JPG,Stimuli/Morph37.png,Stimuli/BlurLevel5/BlurEditedMorph37,Stimuli/BlurLevel5/BlurEditedMorph37.png,Stimuli/BlurLevel5/NumberedMorphs/BlurEditedMorph37.png,Stimuli/BlurLevel5/OriginalBlur/BlurEditedMorph37.png,Stimuli/BlurMorphTrio/EditedMorph37.png,010097right.gif,Stimuli/normal_thumbnails/37right.gif,,,,,0,0,0,0,0,35,35,36,,,,,,,,,,,,,,,,,,,,,,,53,36,1,58,1.324798161,2.12012024,37,Experiment,,,,,,,,,53,31,6,6,,,,,,,,,,,,,,,450.0590424,450.5523877,450.0590424,450.5523877,91.83673469,1575573918,1575573920,2.000226021,1575573915,1575573918,,,s14,1,34,F,resident,2019_Dec_05_1318,AdjustEyeTrack,3.1.5,59.86573409
135,Stimuli/Morph135.JPG,Stimuli/Morph135.png,Stimuli/BlurLevel5/BlurEditedMorph135,Stimuli/BlurLevel5/BlurEditedMorph135.png,Stimuli/BlurLevel5/NumberedMorphs/BlurEditedMorph135.png,Stimuli/BlurLevel5/OriginalBlur/BlurEditedMorph135.png,Stimuli/BlurMorphTrio/EditedMorph135.png,None,None,,,,,0,0,0,0,0,36,36,134,,,,,,,,,,,,,,,,,,,,,,,87,37,1,177,-2.496573837,0.130839891,135,Experiment,,,,,,,,,129,6,129,-18,,,,,,,,,,,,,,,454.7381503,455.2350591,454.7381503,455.2350591,75.51020408,1575573923,1575573927,3.865557194,1575573920,1575573923,,,s14,1,34,F,resident,2019_Dec_05_1318,AdjustEyeTrack,3.1.5,59.86573409
19,Stimuli/Morph19.JPG,Stimuli/Morph19.png,Stimuli/BlurLevel5/BlurEditedMorph19,Stimuli/BlurLevel5/BlurEditedMorph19.png,Stimuli/BlurLevel5/NumberedMorphs/BlurEditedMorph19.png,Stimuli/BlurLevel5/OriginalBlur/BlurEditedMorph19.png,Stimuli/BlurMorphTrio/EditedMorph19.png,010045right.gif,Stimuli/normal_thumbnails/19right.gif,,,,,0,0,0,0,0,37,37,18,,,,,,,,,,,,,,,,,,,,,,,80,38,1,149,-2.142918252,1.287595187,19,Experiment,,,,,,,,,20,20,-1,-1,,,,,,,,,,,,,,,460.9687877,461.4684747,460.9687877,461.4684747,98.63945578,1575573929,1575573930,0.61796689,1575573927,1575573929,,,s14,1,34,F,resident,2019_Dec_05_1318,AdjustEyeTrack,3.1.5,59.86573409
63,Stimuli/Morph63.JPG,Stimuli/Morph63.png,Stimuli/BlurLevel5/BlurEditedMorph63,Stimuli/BlurLevel5/BlurEditedMorph63.png,Stimuli/BlurLevel5/NumberedMorphs/BlurEditedMorph63.png,Stimuli/BlurLevel5/OriginalBlur/BlurEditedMorph63.png,Stimuli/BlurMorphTrio/EditedMorph63.png,020206right.gif,Stimuli/normal_thumbnails/63right.gif,,,,,0,0,0,0,0,38,38,62,,,,,,,,,,,,,,,,,,,,,,,90,39,1,216,-2.022542486,-1.469463131,63,Experiment,,,,,,,,,51,68,-5,-5,,,,,,,,,,,,,,,463.9727945,464.4683748,463.9727945,464.4683748,93.19727891,1575573932,1575573935,2.599006891,1575573930,1575573932,,,s14,1,34,F,resident,2019_Dec_05_1318,AdjustEyeTrack,3.1.5,59.86573409
127,Stimuli/Morph127.JPG,Stimuli/Morph127.png,Stimuli/BlurLevel5/BlurEditedMorph127,Stimuli/BlurLevel5/BlurEditedMorph127.png,Stimuli/BlurLevel5/NumberedMorphs/BlurEditedMorph127.png,Stimuli/BlurLevel5/OriginalBlur/BlurEditedMorph127.png,Stimuli/BlurMorphTrio/EditedMorph127.png,None,None,,,,,0,0,0,0,0,39,39,126,,,,,,,,,,,,,,,,,,,,,,,81,40,1,162,-2.377641291,0.772542486,127,Experiment,,,,,,,,,109,129,-2,-2,,,,,,,,,,,,,,,468.9614208,469.4518742,468.9614208,469.4518742,97.27891156,1575573937,1575573943,5.548075199,1575573935,1575573937,,,s14,1,34,F,resident,2019_Dec_05_1318,AdjustEyeTrack,3.1.5,59.86573409
103,Stimuli/Morph103.JPG,Stimuli/Morph103.png,Stimuli/BlurLevel5/BlurEditedMorph103,Stimuli/BlurLevel5/BlurEditedMorph103.png,Stimuli/BlurLevel5/NumberedMorphs/BlurEditedMorph103.png,Stimuli/BlurLevel5/OriginalBlur/BlurEditedMorph103.png,Stimuli/BlurMorphTrio/EditedMorph103.png,None,None,,,,,0,0,0,0,0,40,40,102,,,,,,,,,,,,,,,,,,,,,,,4,41,1,23,2.301262134,0.976827821,103,Experiment,,,,,,,,,63,105,-2,-2,,,,,,,,,,,,,,,477.6028965,478.101017,477.6028965,478.101017,97.27891156,1575573946,1575573947,1.432119846,1575573943,1575573946,,,s14,1,34,F,resident,2019_Dec_05_1318,AdjustEyeTrack,3.1.5,59.86573409
52,Stimuli/Morph52.JPG,Stimuli/Morph52.png,Stimuli/BlurLevel5/BlurEditedMorph52,Stimuli/BlurLevel5/BlurEditedMorph52.png,Stimuli/BlurLevel5/NumberedMorphs/BlurEditedMorph52.png,Stimuli/BlurLevel5/OriginalBlur/BlurEditedMorph52.png,Stimuli/BlurMorphTrio/EditedMorph52.png,010148right.gif,Stimuli/normal_thumbnails/52right.gif,,,,,0,0,0,0,0,41,41,51,,,,,,,,,,,,,,,,,,,,,,,26,42,1,96,-0.261321158,2.486304738,52,Experiment,,,,,,,,,78,56,-4,-4,,,,,,,,,,,,,,,481.618599,482.1179899,481.618599,482.1179899,94.55782313,1575573950,1575573953,3.182309151,1575573947,1575573950,,,s14,1,34,F,resident,2019_Dec_05_1318,AdjustEyeTrack,3.1.5,59.86573409
7,Stimuli/Morph7.JPG,Stimuli/Morph7.png,Stimuli/BlurLevel5/BlurEditedMorph7,Stimuli/BlurLevel5/BlurEditedMorph7.png,Stimuli/BlurLevel5/NumberedMorphs/BlurEditedMorph7.png,Stimuli/BlurLevel5/OriginalBlur/BlurEditedMorph7.png,Stimuli/BlurMorphTrio/EditedMorph7.png,010013right.gif,Stimuli/normal_thumbnails/7right.gif,,,,,0,0,0,0,0,42,42,6,,,,,,,,,,,,,,,,,,,,,,,84,43,1,355,2.490486745,-0.217889357,7,Experiment,,,,,,,,,34,18,-11,-11,,,,,,,,,,,,,,,487.4614256,487.9511069,487.4614256,487.9511069,85.03401361,1575573956,1575573959,3.548480034,1575573953,1575573956,,,s14,1,34,F,resident,2019_Dec_05_1318,AdjustEyeTrack,3.1.5,59.86573409
46,Stimuli/Morph46.JPG,Stimuli/Morph46.png,Stimuli/BlurLevel5/BlurEditedMorph46,Stimuli/BlurLevel5/BlurEditedMorph46.png,Stimuli/BlurLevel5/NumberedMorphs/BlurEditedMorph46.png,Stimuli/BlurLevel5/OriginalBlur/BlurEditedMorph46.png,Stimuli/BlurMorphTrio/EditedMorph46.png,010128right.gif,Stimuli/normal_thumbnails/46right.gif,,,,,0,0,0,0,0,43,43,45,,,,,,,,,,,,,,,,,,,,,,,19,44,1,3,2.496573837,0.130839891,46,Experiment,,,,,,,,,35,41,5,5,,,,,,,,,,,,,,,494.2205269,494.7185312,494.2205269,494.7185312,93.19727891,1575573962,1575573965,2.983391047,1575573959,1575573962,,,s14,1,34,F,resident,2019_Dec_05_1318,AdjustEyeTrack,3.1.5,59.86573409
99,Stimuli/Morph99.JPG,Stimuli/Morph99.png,Stimuli/BlurLevel5/BlurEditedMorph99,Stimuli/BlurLevel5/BlurEditedMorph99.png,Stimuli/BlurLevel5/NumberedMorphs/BlurEditedMorph99.png,Stimuli/BlurLevel5/OriginalBlur/BlurEditedMorph99.png,Stimuli/BlurMorphTrio/EditedMorph99.png,020299right.gif,Stimuli/normal_thumbnails/99right.gif,,,,,0,0,0,0,0,44,44,98,,,,,,,,,,,,,,,,,,,,,,,1,45,1,108,-0.772542486,2.377641291,99,Experiment,,,,,,,,,137,93,6,6,,,,,,,,,,,,,,,499.1771045,499.6684666,499.1771045,499.6684666,91.83673469,1575573967,1575573970,2.617392063,1575573966,1575573967,,,s14,1,34,F,resident,2019_Dec_05_1318,AdjustEyeTrack,3.1.5,59.86573409
94,Stimuli/Morph94.JPG,Stimuli/Morph94.png,Stimuli/BlurLevel5/BlurEditedMorph94,Stimuli/BlurLevel5/BlurEditedMorph94.png,Stimuli/BlurLevel5/NumberedMorphs/BlurEditedMorph94.png,Stimuli/BlurLevel5/OriginalBlur/BlurEditedMorph94.png,Stimuli/BlurMorphTrio/EditedMorph94.png,020286right.gif,Stimuli/normal_thumbnails/94right.gif,,,,,0,0,0,0,0,45,45,93,,,,,,,,,,,,,,,,,,,,,,,33,46,1,86,0.174391184,2.493910126,94,Experiment,,,,,,,,,130,107,-13,-13,,,,,,,,,,,,,,,504.468428,504.9683574,504.468428,504.9683574,82.31292517,1575573973,1575573974,1.482530832,1575573970,1575573973,,,s14,1,34,F,resident,2019_Dec_05_1318,AdjustEyeTrack,3.1.5,59.86573409
120,Stimuli/Morph120.JPG,Stimuli/Morph120.png,Stimuli/BlurLevel5/BlurEditedMorph120,Stimuli/BlurLevel5/BlurEditedMorph120.png,Stimuli/BlurLevel5/NumberedMorphs/BlurEditedMorph120.png,Stimuli/BlurLevel5/OriginalBlur/BlurEditedMorph120.png,Stimuli/BlurMorphTrio/EditedMorph120.png,None,None,,,,,0,0,0,0,0,46,46,119,,,,,,,,,,,,,,,,,,,,,,,88,47,1,193,-2.435925162,-0.562377636,120,Experiment,,,,,,,,,39,106,14,14,,,,,,,,,,,,,,,508.854941,509.3503723,508.854941,509.3503723,80.95238095,1575573977,1575573980,3.050193071,1575573974,1575573977,,,s14,1,34,F,resident,2019_Dec_05_1318,AdjustEyeTrack,3.1.5,59.86573409
55,Stimuli/Morph55.JPG,Stimuli/Morph55.png,Stimuli/BlurLevel5/BlurEditedMorph55,Stimuli/BlurLevel5/BlurEditedMorph55.png,Stimuli/BlurLevel5/NumberedMorphs/BlurEditedMorph55.png,Stimuli/BlurLevel5/OriginalBlur/BlurEditedMorph55.png,Stimuli/BlurMorphTrio/EditedMorph55.png,010151right.gif,Stimuli/normal_thumbnails/55right.gif,,,,,0,0,0,0,0,47,47,54,,,,,,,,,,,,,,,,,,,,,,,42,48,1,315,1.767766953,-1.767766953,55,Experiment,,,,,,,,,27,57,-2,-2,,,,,,,,,,,,,,,515.1730157,515.6695789,515.1730157,515.6695789,97.27891156,1575573983,1575573985,1.980917215,1575573980,1575573983,,,s14,1,34,F,resident,2019_Dec_05_1318,AdjustEyeTrack,3.1.5,59.86573409
146,Stimuli/Morph146.JPG,Stimuli/Morph146.png,Stimuli/BlurLevel5/BlurEditedMorph146,Stimuli/BlurLevel5/BlurEditedMorph146.png,Stimuli/BlurLevel5/NumberedMorphs/BlurEditedMorph146.png,Stimuli/BlurLevel5/OriginalBlur/BlurEditedMorph146.png,Stimuli/BlurMorphTrio/EditedMorph146.png,None,None,,,,,0,0,0,0,0,48,48,145,,,,,,,,,,,,,,,,,,,,,,,44,49,1,208,-2.207368982,-1.173678907,146,Experiment,,,,,,,,,108,147,-1,-1,,,,,,,,,,,,,,,519.8405174,520.3341942,519.8405174,520.3341942,98.63945578,1575573988,1575573991,3.133296967,1575573986,1575573988,,,s14,1,34,F,resident,2019_Dec_05_1318,AdjustEyeTrack,3.1.5,59.86573409
9,Stimuli/Morph9.JPG,Stimuli/Morph9.png,Stimuli/BlurLevel5/BlurEditedMorph9,Stimuli/BlurLevel5/BlurEditedMorph9.png,Stimuli/BlurLevel5/NumberedMorphs/BlurEditedMorph9.png,Stimuli/BlurLevel5/OriginalBlur/BlurEditedMorph9.png,Stimuli/BlurMorphTrio/EditedMorph9.png,010015right.gif,Stimuli/normal_thumbnails/9right.gif,,,,,0,0,0,0,0,49,49,8,,,,,,,,,,,,,,,,,,,,,,,40,50,1,336,2.283863644,-1.016841608,9,Experiment,,,,,,,,,31,147,-138,9,,,,,,,,,,,,,,,525.5113314,526.0176734,525.5113314,526.0176734,87.75510204,1575573994,1575573999,5.55106616,1575573991,1575573994,,,s14,1,34,F,resident,2019_Dec_05_1318,AdjustEyeTrack,3.1.5,59.86573409
44,Stimuli/Morph44.JPG,Stimuli/Morph44.png,Stimuli/BlurLevel5/BlurEditedMorph44,Stimuli/BlurLevel5/BlurEditedMorph44.png,Stimuli/BlurLevel5/NumberedMorphs/BlurEditedMorph44.png,Stimuli/BlurLevel5/OriginalBlur/BlurEditedMorph44.png,Stimuli/BlurMorphTrio/EditedMorph44.png,010126right.gif,Stimuli/normal_thumbnails/44right.gif,,,,,0,0,0,0,0,50,50,43,,,,,,,,,,,,,,,,,,,,,,,11,51,1,194,-2.425739316,-0.604804739,44,Experiment,,,,,,,,,45,45,-1,-1,,,,,,,,,,,,,,,534.5708913,535.0681221,534.5708913,535.0681221,98.63945578,1575574003,1575574003,0.7868011,1575573999,1575574003,,,s14,1,34,F,resident,2019_Dec_05_1318,AdjustEyeTrack,3.1.5,59.86573409
86,Stimuli/Morph86.JPG,Stimuli/Morph86.png,Stimuli/BlurLevel5/BlurEditedMorph86,Stimuli/BlurLevel5/BlurEditedMorph86.png,Stimuli/BlurLevel5/NumberedMorphs/BlurEditedMorph86.png,Stimuli/BlurLevel5/OriginalBlur/BlurEditedMorph86.png,Stimuli/BlurMorphTrio/EditedMorph86.png,020266right.gif,Stimuli/normal_thumbnails/86right.gif,,,,,0,0,0,0,0,51,51,85,,,,,,,,,,,,,,,,,,,,,,,98,52,1,301,1.287595187,-2.142918252,86,Experiment,,,,,,,,,101,101,-15,-15,,,,,,,,,,,,,,,538.2194541,538.7211125,538.2194541,538.7211125,79.59183673,1575574006,1575574007,0.515581131,1575574004,1575574006,,,s14,1,34,F,resident,2019_Dec_05_1318,AdjustEyeTrack,3.1.5,59.86573409
76,Stimuli/Morph76.JPG,Stimuli/Morph76.png,Stimuli/BlurLevel5/BlurEditedMorph76,Stimuli/BlurLevel5/BlurEditedMorph76.png,Stimuli/BlurLevel5/NumberedMorphs/BlurEditedMorph76.png,Stimuli/BlurLevel5/OriginalBlur/BlurEditedMorph76.png,Stimuli/BlurMorphTrio/EditedMorph76.png,020234right.gif,Stimuli/normal_thumbnails/76right.gif,,,,,0,0,0,0,0,52,52,75,,,,,,,,,,,,,,,,,,,,,,,74,53,1,162,-2.377641291,0.772542486,76,Experiment,,,,,,,,,113,68,8,8,,,,,,,,,,,,,,,541.5646272,542.0677958,541.5646272,542.0677958,89.11564626,1575574010,1575574013,3.134251118,1575574007,1575574010,,,s14,1,34,F,resident,2019_Dec_05_1318,AdjustEyeTrack,3.1.5,59.86573409
83,Stimuli/Morph83.JPG,Stimuli/Morph83.png,Stimuli/BlurLevel5/BlurEditedMorph83,Stimuli/BlurLevel5/BlurEditedMorph83.png,Stimuli/BlurLevel5/NumberedMorphs/BlurEditedMorph83.png,Stimuli/BlurLevel5/OriginalBlur/BlurEditedMorph83.png,Stimuli/BlurMorphTrio/EditedMorph83.png,020259right.gif,Stimuli/normal_thumbnails/83right.gif,,,,,0,0,0,0,0,53,53,82,,,,,,,,,,,,,,,,,,,,,,,18,54,1,285,0.647047613,-2.414814566,83,Experiment,,,,,,,,,79,79,4,4,,,,,,,,,,,,,,,547.2589732,547.7502409,547.2589732,547.7502409,94.55782313,1575574015,1575574016,0.71573925,1575574013,1575574015,,,s14,1,34,F,resident,2019_Dec_05_1318,AdjustEyeTrack,3.1.5,59.86573409
35,Stimuli/Morph35.JPG,Stimuli/Morph35.png,Stimuli/BlurLevel5/BlurEditedMorph35,Stimuli/BlurLevel5/BlurEditedMorph35.png,Stimuli/BlurLevel5/NumberedMorphs/BlurEditedMorph35.png,Stimuli/BlurLevel5/OriginalBlur/BlurEditedMorph35.png,Stimuli/BlurMorphTrio/EditedMorph35.png,010094right.gif,Stimuli/normal_thumbnails/35right.gif,,,,,0,0,0,0,0,54,54,34,,,,,,,,,,,,,,,,,,,,,,,67,55,1,348,2.445369002,-0.519779227,35,Experiment,,,,,,,,,56,39,-4,-4,,,,,,,,,,,,,,,550.9957767,551.5003185,550.9957767,551.5003185,94.55782313,1575574019,1575574022,2.885387182,1575574016,1575574019,,,s14,1,34,F,resident,2019_Dec_05_1318,AdjustEyeTrack,3.1.5,59.86573409
92,Stimuli/Morph92.JPG,Stimuli/Morph92.png,Stimuli/BlurLevel5/BlurEditedMorph92,Stimuli/BlurLevel5/BlurEditedMorph92.png,Stimuli/BlurLevel5/NumberedMorphs/BlurEditedMorph92.png,Stimuli/BlurLevel5/OriginalBlur/BlurEditedMorph92.png,Stimuli/BlurMorphTrio/EditedMorph92.png,020277right.gif,Stimuli/normal_thumbnails/92right.gif,,,,,0,0,0,0,0,55,55,91,,,,,,,,,,,,,,,,,,,,,,,81,56,1,111,-0.895919874,2.333951066,92,Experiment,,,,,,,,,39,107,-15,-15,,,,,,,,,,,,,,,556.4363187,556.9336438,556.4363187,556.9336438,79.59183673,1575574025,1575574027,2.116492033,1575574022,1575574025,,,s14,1,34,F,resident,2019_Dec_05_1318,AdjustEyeTrack,3.1.5,59.86573409
41,Stimuli/Morph41.JPG,Stimuli/Morph41.png,Stimuli/BlurLevel5/BlurEditedMorph41,Stimuli/BlurLevel5/BlurEditedMorph41.png,Stimuli/BlurLevel5/NumberedMorphs/BlurEditedMorph41.png,Stimuli/BlurLevel5/OriginalBlur/BlurEditedMorph41.png,Stimuli/BlurMorphTrio/EditedMorph41.png,010112right.gif,Stimuli/normal_thumbnails/41right.gif,,,,,0,0,0,0,0,56,56,40,,,,,,,,,,,,,,,,,,,,,,,76,57,1,263,-0.304673359,-2.481365379,41,Experiment,,,,,,,,,54,42,-1,-1,,,,,,,,,,,,,,,560.722781,561.2173529,560.722781,561.2173529,98.63945578,1575574029,1575574030,1.273359776,1575574027,1575574029,,,s14,1,34,F,resident,2019_Dec_05_1318,AdjustEyeTrack,3.1.5,59.86573409
101,Stimuli/Morph101.JPG,Stimuli/Morph101.png,Stimuli/BlurLevel5/BlurEditedMorph101,Stimuli/BlurLevel5/BlurEditedMorph101.png,Stimuli/BlurLevel5/NumberedMorphs/BlurEditedMorph101.png,Stimuli/BlurLevel5/OriginalBlur/BlurEditedMorph101.png,Stimuli/BlurMorphTrio/EditedMorph101.png,None,None,,,,,0,0,0,0,0,57,57,100,,,,,,,,,,,,,,,,,,,,,,,74,58,1,62,1.173678907,2.207368982,101,Experiment,,,,,,,,,56,126,-25,-25,,,,,,,,,,,,,,,564.4025093,564.9003909,564.4025093,564.9003909,65.98639456,1575574032,1575574040,7.049722195,1575574030,1575574032,,,s14,1,34,F,resident,2019_Dec_05_1318,AdjustEyeTrack,3.1.5,59.86573409
115,Stimuli/Morph115.JPG,Stimuli/Morph115.png,Stimuli/BlurLevel5/BlurEditedMorph115,Stimuli/BlurLevel5/BlurEditedMorph115.png,Stimuli/BlurLevel5/NumberedMorphs/BlurEditedMorph115.png,Stimuli/BlurLevel5/OriginalBlur/BlurEditedMorph115.png,Stimuli/BlurMorphTrio/EditedMorph115.png,None,None,,,,,0,0,0,0,0,58,58,114,,,,,,,,,,,,,,,,,,,,,,,65,59,1,29,2.186549268,1.212024051,115,Experiment,,,,,,,,,130,106,9,9,,,,,,,,,,,,,,,574.3820871,574.8829492,574.3820871,574.8829492,87.75510204,1575574042,1575574045,2.886065245,1575574040,1575574042,,,s14,1,34,F,resident,2019_Dec_05_1318,AdjustEyeTrack,3.1.5,59.86573409
45,Stimuli/Morph45.JPG,Stimuli/Morph45.png,Stimuli/BlurLevel5/BlurEditedMorph45,Stimuli/BlurLevel5/BlurEditedMorph45.png,Stimuli/BlurLevel5/NumberedMorphs/BlurEditedMorph45.png,Stimuli/BlurLevel5/OriginalBlur/BlurEditedMorph45.png,Stimuli/BlurMorphTrio/EditedMorph45.png,010127right.gif,Stimuli/normal_thumbnails/45right.gif,,,,,0,0,0,0,0,59,59,44,,,,,,,,,,,,,,,,,,,,,,,47,60,1,345,2.414814566,-0.647047613,45,Experiment,,,,,,,,,143,42,3,3,,,,,,,,,,,,,,,580.1040272,580.6001616,580.1040272,580.6001616,95.91836735,1575574048,1575574050,1.749625921,1575574046,1575574048,,,s14,1,34,F,resident,2019_Dec_05_1318,AdjustEyeTrack,3.1.5,59.86573409
117,Stimuli/Morph117.JPG,Stimuli/Morph117.png,Stimuli/BlurLevel5/BlurEditedMorph117,Stimuli/BlurLevel5/BlurEditedMorph117.png,Stimuli/BlurLevel5/NumberedMorphs/BlurEditedMorph117.png,Stimuli/BlurLevel5/OriginalBlur/BlurEditedMorph117.png,Stimuli/BlurMorphTrio/EditedMorph117.png,None,None,,,,,0,0,0,0,0,60,60,116,,,,,,,,,,,,,,,,,,,,,,,41,61,1,280,0.434120444,-2.462019383,117,Experiment,,,,,,,,,107,117,0,0,,,,,,,,,,,,,,,584.6276972,585.1497994,584.6276972,585.1497994,100,1575574053,1575574056,3.467122793,1575574050,1575574053,,,s14,1,34,F,resident,2019_Dec_05_1318,AdjustEyeTrack,3.1.5,59.86573409
17,Stimuli/Morph17.JPG,Stimuli/Morph17.png,Stimuli/BlurLevel5/BlurEditedMorph17,Stimuli/BlurLevel5/BlurEditedMorph17.png,Stimuli/BlurLevel5/NumberedMorphs/BlurEditedMorph17.png,Stimuli/BlurLevel5/OriginalBlur/BlurEditedMorph17.png,Stimuli/BlurMorphTrio/EditedMorph17.png,010036right.gif,Stimuli/normal_thumbnails/17right.gif,,,,,0,0,0,0,0,61,61,16,,,,,,,,,,,,,,,,,,,,,,,71,62,1,202,-2.317959636,-0.936516484,17,Experiment,,,,,,,,,123,14,3,3,,,,,,,,,,,,,,,590.8002843,591.3003607,590.8002843,591.3003607,95.91836735,1575574059,1575574061,2.465509892,1575574056,1575574059,,,s14,1,34,F,resident,2019_Dec_05_1318,AdjustEyeTrack,3.1.5,59.86573409
111,Stimuli/Morph111.JPG,Stimuli/Morph111.png,Stimuli/BlurLevel5/BlurEditedMorph111,Stimuli/BlurLevel5/BlurEditedMorph111.png,Stimuli/BlurLevel5/NumberedMorphs/BlurEditedMorph111.png,Stimuli/BlurLevel5/OriginalBlur/BlurEditedMorph111.png,Stimuli/BlurMorphTrio/EditedMorph111.png,None,None,,,,,0,0,0,0,0,62,62,110,,,,,,,,,,,,,,,,,,,,,,,9,63,1,235,-1.433941091,-2.047880111,111,Experiment,,,,,,,,,137,85,26,26,,,,,,,,,,,,,,,595.5040391,596.00068,595.5040391,596.00068,64.62585034,1575574064,1575574067,3.154146194,1575574062,1575574064,,,s14,1,34,F,resident,2019_Dec_05_1318,AdjustEyeTrack,3.1.5,59.86573409
36,Stimuli/Morph36.JPG,Stimuli/Morph36.png,Stimuli/BlurLevel5/BlurEditedMorph36,Stimuli/BlurLevel5/BlurEditedMorph36.png,Stimuli/BlurLevel5/NumberedMorphs/BlurEditedMorph36.png,Stimuli/BlurLevel5/OriginalBlur/BlurEditedMorph36.png,Stimuli/BlurMorphTrio/EditedMorph36.png,010095right.gif,Stimuli/normal_thumbnails/36right.gif,,,,,0,0,0,0,0,63,63,35,,,,,,,,,,,,,,,,,,,,,,,51,64,1,4,2.493910126,0.174391184,36,Experiment,,,,,,,,,135,32,4,4,,,,,,,,,,,,,,,601.7206076,602.2167402,601.7206076,602.2167402,94.55782313,1575574070,1575574072,2.31476593,1575574067,1575574070,,,s14,1,34,F,resident,2019_Dec_05_1318,AdjustEyeTrack,3.1.5,59.86573409
67,Stimuli/Morph67.JPG,Stimuli/Morph67.png,Stimuli/BlurLevel5/BlurEditedMorph67,Stimuli/BlurLevel5/BlurEditedMorph67.png,Stimuli/BlurLevel5/NumberedMorphs/BlurEditedMorph67.png,Stimuli/BlurLevel5/OriginalBlur/BlurEditedMorph67.png,Stimuli/BlurMorphTrio/EditedMorph67.png,020217right.gif,Stimuli/normal_thumbnails/67right.gif,,,,,0,0,0,0,0,64,64,66,,,,,,,,,,,,,,,,,,,,,,,86,65,1,142,-1.970026884,1.539153688,67,Experiment,,,,,,,,,88,47,20,20,,,,,,,,,,,,,,,606.9378115,607.4332705,606.9378115,607.4332705,72.78911565,1575574075,1575574078,3.433747292,1575574072,1575574075,,,s14,1,34,F,resident,2019_Dec_05_1318,AdjustEyeTrack,3.1.5,59.86573409
21,Stimuli/Morph21.JPG,Stimuli/Morph21.png,Stimuli/BlurLevel5/BlurEditedMorph21,Stimuli/BlurLevel5/BlurEditedMorph21.png,Stimuli/BlurLevel5/NumberedMorphs/BlurEditedMorph21.png,Stimuli/BlurLevel5/OriginalBlur/BlurEditedMorph21.png,Stimuli/BlurMorphTrio/EditedMorph21.png,010049right.gif,Stimuli/normal_thumbnails/21right.gif,,,,,0,0,0,0,0,65,65,20,,,,,,,,,,,,,,,,,,,,,,,90,66,1,79,0.477022488,2.454067959,21,Experiment,,,,,,,,,7,21,0,0,,,,,,,,,,,,,,,613.2222373,613.7232148,613.2222373,613.7232148,100,1575574081,1575574085,3.581561804,1575574079,1575574081,,,s14,1,34,F,resident,2019_Dec_05_1318,AdjustEyeTrack,3.1.5,59.86573409
16,Stimuli/Morph16.JPG,Stimuli/Morph16.png,Stimuli/BlurLevel5/BlurEditedMorph16,Stimuli/BlurLevel5/BlurEditedMorph16.png,Stimuli/BlurLevel5/NumberedMorphs/BlurEditedMorph16.png,Stimuli/BlurLevel5/OriginalBlur/BlurEditedMorph16.png,Stimuli/BlurMorphTrio/EditedMorph16.png,010034right.gif,Stimuli/normal_thumbnails/16right.gif,,,,,0,0,0,0,0,66,66,15,,,,,,,,,,,,,,,,,,,,,,,87,67,1,340,2.349231552,-0.855050358,16,Experiment,,,,,,,,,64,19,-3,-3,,,,,,,,,,,,,,,619.5526545,620.050799,619.5526545,620.050799,95.91836735,1575574088,1575574091,3.467102051,1575574085,1575574088,,,s14,1,34,F,resident,2019_Dec_05_1318,AdjustEyeTrack,3.1.5,59.86573409
26,Stimuli/Morph26.JPG,Stimuli/Morph26.png,Stimuli/BlurLevel5/BlurEditedMorph26,Stimuli/BlurLevel5/BlurEditedMorph26.png,Stimuli/BlurLevel5/NumberedMorphs/BlurEditedMorph26.png,Stimuli/BlurLevel5/OriginalBlur/BlurEditedMorph26.png,Stimuli/BlurMorphTrio/EditedMorph26.png,010070right.gif,Stimuli/normal_thumbnails/26right.gif,,,,,0,0,0,0,0,67,67,25,,,,,,,,,,,,,,,,,,,,,,,27,68,1,39,1.942864904,1.573300978,26,Experiment,,,,,,,,,57,22,4,4,,,,,,,,,,,,,,,625.8506504,626.3490021,625.8506504,626.3490021,94.55782313,1575574094,1575574096,2.098920822,1575574091,1575574094,,,s14,1,34,F,resident,2019_Dec_05_1318,AdjustEyeTrack,3.1.5,59.86573409
79,Stimuli/Morph79.JPG,Stimuli/Morph79.png,Stimuli/BlurLevel5/BlurEditedMorph79,Stimuli/BlurLevel5/BlurEditedMorph79.png,Stimuli/BlurLevel5/NumberedMorphs/BlurEditedMorph79.png,Stimuli/BlurLevel5/OriginalBlur/BlurEditedMorph79.png,Stimuli/BlurMorphTrio/EditedMorph79.png,020239right.gif,Stimuli/normal_thumbnails/79right.gif,,,,,0,0,0,0,0,68,68,78,,,,,,,,,,,,,,,,,,,,,,,32,69,1,350,2.462019383,-0.434120444,79,Experiment,,,,,,,,,125,79,0,0,,,,,,,,,,,,,,,630.902405,631.3993933,630.902405,631.3993933,100,1575574099,1575574102,3.017672062,1575574096,1575574099,,,s14,1,34,F,resident,2019_Dec_05_1318,AdjustEyeTrack,3.1.5,59.86573409
2,Stimuli/Morph2.JPG,Stimuli/Morph2.png,Stimuli/BlurLevel5/BlurEditedMorph2,Stimuli/BlurLevel5/BlurEditedMorph2.png,Stimuli/BlurLevel5/NumberedMorphs/BlurEditedMorph2.png,Stimuli/BlurLevel5/OriginalBlur/BlurEditedMorph2.png,Stimuli/BlurMorphTrio/EditedMorph2.png,010006right.gif,Stimuli/normal_thumbnails/2right.gif,,,,,0,0,0,0,0,69,69,1,,,,,,,,,,,,,,,,,,,,,,,53,70,1,345,2.414814566,-0.647047613,2,Experiment,,,,,,,,,47,1,1,1,,,,,,,,,,,,,,,637.1323949,637.6490814,637.1323949,637.6490814,98.63945578,1575574105,1575574109,3.751389027,1575574102,1575574105,,,s14,1,34,F,resident,2019_Dec_05_1318,AdjustEyeTrack,3.1.5,59.86573409
27,Stimuli/Morph27.JPG,Stimuli/Morph27.png,Stimuli/BlurLevel5/BlurEditedMorph27,Stimuli/BlurLevel5/BlurEditedMorph27.png,Stimuli/BlurLevel5/NumberedMorphs/BlurEditedMorph27.png,Stimuli/BlurLevel5/OriginalBlur/BlurEditedMorph27.png,Stimuli/BlurMorphTrio/EditedMorph27.png,010072right.gif,Stimuli/normal_thumbnails/27right.gif,,,,,0,0,0,0,0,70,70,26,,,,,,,,,,,,,,,,,,,,,,,89,71,1,151,-2.186549268,1.212024051,27,Experiment,,,,,,,,,103,36,-9,-9,,,,,,,,,,,,,,,643.4011809,643.9004509,643.4011809,643.9004509,87.75510204,1575574111,1575574115,3.315890074,1575574109,1575574111,,,s14,1,34,F,resident,2019_Dec_05_1318,AdjustEyeTrack,3.1.5,59.86573409
122,Stimuli/Morph122.JPG,Stimuli/Morph122.png,Stimuli/BlurLevel5/BlurEditedMorph122,Stimuli/BlurLevel5/BlurEditedMorph122.png,Stimuli/BlurLevel5/NumberedMorphs/BlurEditedMorph122.png,Stimuli/BlurLevel5/OriginalBlur/BlurEditedMorph122.png,Stimuli/BlurMorphTrio/EditedMorph122.png,None,None,,,,,0,0,0,0,0,71,71,121,,,,,,,,,,,,,,,,,,,,,,,97,72,1,341,2.363796439,-0.813920386,122,Experiment,,,,,,,,,115,115,7,7,,,,,,,,,,,,,,,649.4007619,649.8984155,649.4007619,649.8984155,90.47619048,1575574117,1575574118,0.732996941,1575574115,1575574117,,,s14,1,34,F,resident,2019_Dec_05_1318,AdjustEyeTrack,3.1.5,59.86573409
1,Stimuli/Morph1.JPG,Stimuli/Morph1.png,Stimuli/BlurLevel5/BlurEditedMorph1,Stimuli/BlurLevel5/BlurEditedMorph1.png,Stimuli/BlurLevel5/NumberedMorphs/BlurEditedMorph1.png,Stimuli/BlurLevel5/OriginalBlur/BlurEditedMorph1.png,Stimuli/BlurMorphTrio/EditedMorph1.png,010003right.gif,Stimuli/normal_thumbnails/1right.gif,,,,,0,0,0,0,0,72,72,0,,,,,,,,,,,,,,,,,,,,,,,73,73,1,35,2.047880111,1.433941091,1,Experiment,,,,,,,,,55,142,-141,6,,,,,,,,,,,,,,,652.9024187,653.3986268,652.9024187,653.3986268,91.83673469,1575574121,1575574124,2.90022707,1575574119,1575574121,,,s14,1,34,F,resident,2019_Dec_05_1318,AdjustEyeTrack,3.1.5,59.86573409
54,Stimuli/Morph54.JPG,Stimuli/Morph54.png,Stimuli/BlurLevel5/BlurEditedMorph54,Stimuli/BlurLevel5/BlurEditedMorph54.png,Stimuli/BlurLevel5/NumberedMorphs/BlurEditedMorph54.png,Stimuli/BlurLevel5/OriginalBlur/BlurEditedMorph54.png,Stimuli/BlurMorphTrio/EditedMorph54.png,010150right.gif,Stimuli/normal_thumbnails/54right.gif,,,,,0,0,0,0,0,73,73,53,,,,,,,,,,,,,,,,,,,,,,,77,74,1,190,-2.462019383,-0.434120444,54,Experiment,,,,,,,,,125,51,3,3,,,,,,,,,,,,,,,658.666355,659.1658069,658.666355,659.1658069,95.91836735,1575574127,1575574129,2.083398819,1575574124,1575574127,,,s14,1,34,F,resident,2019_Dec_05_1318,AdjustEyeTrack,3.1.5,59.86573409
14,Stimuli/Morph14.JPG,Stimuli/Morph14.png,Stimuli/BlurLevel5/BlurEditedMorph14,Stimuli/BlurLevel5/BlurEditedMorph14.png,Stimuli/BlurLevel5/NumberedMorphs/BlurEditedMorph14.png,Stimuli/BlurLevel5/OriginalBlur/BlurEditedMorph14.png,Stimuli/BlurMorphTrio/EditedMorph14.png,010030right.gif,Stimuli/normal_thumbnails/14right.gif,,,,,0,0,0,0,0,74,74,13,,,,,,,,,,,,,,,,,,,,,,,75,75,1,278,0.347932752,-2.475670172,14,Experiment,,,,,,,,,33,131,-117,30,,,,,,,,,,,,,,,663.3187245,663.8162681,663.3187245,663.8162681,59.18367347,1575574131,1575574135,3.631698132,1575574129,1575574131,,,s14,1,34,F,resident,2019_Dec_05_1318,AdjustEyeTrack,3.1.5,59.86573409
131,Stimuli/Morph131.JPG,Stimuli/Morph131.png,Stimuli/BlurLevel5/BlurEditedMorph131,Stimuli/BlurLevel5/BlurEditedMorph131.png,Stimuli/BlurLevel5/NumberedMorphs/BlurEditedMorph131.png,Stimuli/BlurLevel5/OriginalBlur/BlurEditedMorph131.png,Stimuli/BlurMorphTrio/EditedMorph131.png,None,None,,,,,0,0,0,0,0,75,75,130,,,,,,,,,,,,,,,,,,,,,,,48,76,1,53,1.504537558,1.996588775,131,Experiment,,,,,,,,,39,122,9,9,,,,,,,,,,,,,,,669.5545001,670.0486428,669.5545001,670.0486428,87.75510204,1575574138,1575574140,2.567413092,1575574135,1575574138,,,s14,1,34,F,resident,2019_Dec_05_1318,AdjustEyeTrack,3.1.5,59.86573409
69,Stimuli/Morph69.JPG,Stimuli/Morph69.png,Stimuli/BlurLevel5/BlurEditedMorph69,Stimuli/BlurLevel5/BlurEditedMorph69.png,Stimuli/BlurLevel5/NumberedMorphs/BlurEditedMorph69.png,Stimuli/BlurLevel5/OriginalBlur/BlurEditedMorph69.png,Stimuli/BlurMorphTrio/EditedMorph69.png,020220right.gif,Stimuli/normal_thumbnails/69right.gif,,,,,0,0,0,0,0,76,76,68,,,,,,,,,,,,,,,,,,,,,,,54,77,1,208,-2.207368982,-1.173678907,69,Experiment,,,,,,,,,36,69,0,0,,,,,,,,,,,,,,,674.9199993,675.4150595,674.9199993,675.4150595,100,1575574143,1575574145,2.083425999,1575574140,1575574143,,,s14,1,34,F,resident,2019_Dec_05_1318,AdjustEyeTrack,3.1.5,59.86573409
11,Stimuli/Morph11.JPG,Stimuli/Morph11.png,Stimuli/BlurLevel5/BlurEditedMorph11,Stimuli/BlurLevel5/BlurEditedMorph11.png,Stimuli/BlurLevel5/NumberedMorphs/BlurEditedMorph11.png,Stimuli/BlurLevel5/OriginalBlur/BlurEditedMorph11.png,Stimuli/BlurMorphTrio/EditedMorph11.png,010024right.gif,Stimuli/normal_thumbnails/11right.gif,,,,,0,0,0,0,0,77,77,10,,,,,,,,,,,,,,,,,,,,,,,38,78,1,287,0.730929262,-2.39076189,11,Experiment,,,,,,,,,7,7,4,4,,,,,,,,,,,,,,,680.0472615,680.5488325,680.0472615,680.5488325,94.55782313,1575574148,1575574149,0.951076984,1575574145,1575574148,,,s14,1,34,F,resident,2019_Dec_05_1318,AdjustEyeTrack,3.1.5,59.86573409
65,Stimuli/Morph65.JPG,Stimuli/Morph65.png,Stimuli/BlurLevel5/BlurEditedMorph65,Stimuli/BlurLevel5/BlurEditedMorph65.png,Stimuli/BlurLevel5/NumberedMorphs/BlurEditedMorph65.png,Stimuli/BlurLevel5/OriginalBlur/BlurEditedMorph65.png,Stimuli/BlurMorphTrio/EditedMorph65.png,020209right.gif,Stimuli/normal_thumbnails/65right.gif,,,,,0,0,0,0,0,78,78,64,,,,,,,,,,,,,,,,,,,,,,,60,79,1,191,-2.454067959,-0.477022488,65,Experiment,,,,,,,,,93,51,14,14,,,,,,,,,,,,,,,684.1506165,684.6490424,684.1506165,684.6490424,80.95238095,1575574152,1575574156,3.417943001,1575574149,1575574152,,,s14,1,34,F,resident,2019_Dec_05_1318,AdjustEyeTrack,3.1.5,59.86573409
96,Stimuli/Morph96.JPG,Stimuli/Morph96.png,Stimuli/BlurLevel5/BlurEditedMorph96,Stimuli/BlurLevel5/BlurEditedMorph96.png,Stimuli/BlurLevel5/NumberedMorphs/BlurEditedMorph96.png,Stimuli/BlurLevel5/OriginalBlur/BlurEditedMorph96.png,Stimuli/BlurMorphTrio/EditedMorph96.png,020292right.gif,Stimuli/normal_thumbnails/96right.gif,,,,,0,0,0,0,0,79,79,95,,,,,,,,,,,,,,,,,,,,,,,42,80,1,18,2.377641291,0.772542486,96,Experiment,,,,,,,,,40,101,-5,-5,,,,,,,,,,,,,,,690.7293259,691.2313832,690.7293259,691.2313832,93.19727891,1575574159,1575574161,1.850727081,1575574156,1575574159,,,s14,1,34,F,resident,2019_Dec_05_1318,AdjustEyeTrack,3.1.5,59.86573409
58,Stimuli/Morph58.JPG,Stimuli/Morph58.png,Stimuli/BlurLevel5/BlurEditedMorph58,Stimuli/BlurLevel5/BlurEditedMorph58.png,Stimuli/BlurLevel5/NumberedMorphs/BlurEditedMorph58.png,Stimuli/BlurLevel5/OriginalBlur/BlurEditedMorph58.png,Stimuli/BlurMorphTrio/EditedMorph58.png,010159right.gif,Stimuli/normal_thumbnails/58right.gif,,,,,0,0,0,0,0,80,80,57,,,,,,,,,,,,,,,,,,,,,,,58,81,1,190,-2.462019383,-0.434120444,58,Experiment,,,,,,,,,104,47,11,11,,,,,,,,,,,,,,,695.11651,695.6155784,695.11651,695.6155784,85.03401361,1575574163,1575574166,2.783470869,1575574161,1575574163,,,s14,1,34,F,resident,2019_Dec_05_1318,AdjustEyeTrack,3.1.5,59.86573409
74,Stimuli/Morph74.JPG,Stimuli/Morph74.png,Stimuli/BlurLevel5/BlurEditedMorph74,Stimuli/BlurLevel5/BlurEditedMorph74.png,Stimuli/BlurLevel5/NumberedMorphs/BlurEditedMorph74.png,Stimuli/BlurLevel5/OriginalBlur/BlurEditedMorph74.png,Stimuli/BlurMorphTrio/EditedMorph74.png,020232right.gif,Stimuli/normal_thumbnails/74right.gif,,,,,0,0,0,0,0,81,81,73,,,,,,,,,,,,,,,,,,,,,,,49,82,1,257,-0.562377636,-2.435925162,74,Experiment,,,,,,,,,45,76,-2,-2,,,,,,,,,,,,,,,700.4334996,700.9311012,700.4334996,700.9311012,97.27891156,1575574169,1575574170,1.75043416,1575574166,1575574169,,,s14,1,34,F,resident,2019_Dec_05_1318,AdjustEyeTrack,3.1.5,59.86573409
88,Stimuli/Morph88.JPG,Stimuli/Morph88.png,Stimuli/BlurLevel5/BlurEditedMorph88,Stimuli/BlurLevel5/BlurEditedMorph88.png,Stimuli/BlurLevel5/NumberedMorphs/BlurEditedMorph88.png,Stimuli/BlurLevel5/OriginalBlur/BlurEditedMorph88.png,Stimuli/BlurMorphTrio/EditedMorph88.png,020271right.gif,Stimuli/normal_thumbnails/88right.gif,,,,,0,0,0,0,0,82,82,87,,,,,,,,,,,,,,,,,,,,,,,15,83,1,5,2.490486745,0.217889357,88,Experiment,,,,,,,,,70,94,-6,-6,,,,,,,,,,,,,,,704.6858797,705.1813623,704.6858797,705.1813623,91.83673469,1575574173,1575574175,2.516562939,1575574171,1575574173,,,s14,1,34,F,resident,2019_Dec_05_1318,AdjustEyeTrack,3.1.5,59.86573409
124,Stimuli/Morph124.JPG,Stimuli/Morph124.png,Stimuli/BlurLevel5/BlurEditedMorph124,Stimuli/BlurLevel5/BlurEditedMorph124.png,Stimuli/BlurLevel5/NumberedMorphs/BlurEditedMorph124.png,Stimuli/BlurLevel5/OriginalBlur/BlurEditedMorph124.png,Stimuli/BlurMorphTrio/EditedMorph124.png,None,None,,,,,0,0,0,0,0,83,83,123,,,,,,,,,,,,,,,,,,,,,,,12,84,1,312,1.672826516,-1.857862064,124,Experiment,,,,,,,,,25,117,7,7,,,,,,,,,,,,,,,710.3998849,710.8980707,710.3998849,710.8980707,90.47619048,1575574178,1575574188,9.300719261,1575574176,1575574178,,,s14,1,34,F,resident,2019_Dec_05_1318,AdjustEyeTrack,3.1.5,59.86573409
60,Stimuli/Morph60.JPG,Stimuli/Morph60.png,Stimuli/BlurLevel5/BlurEditedMorph60,Stimuli/BlurLevel5/BlurEditedMorph60.png,Stimuli/BlurLevel5/NumberedMorphs/BlurEditedMorph60.png,Stimuli/BlurLevel5/OriginalBlur/BlurEditedMorph60.png,Stimuli/BlurMorphTrio/EditedMorph60.png,020200right.gif,Stimuli/normal_thumbnails/60right.gif,,,,,0,0,0,0,0,84,84,59,,,,,,,,,,,,,,,,,,,,,,,62,85,1,248,-0.936516484,-2.317959636,60,Experiment,,,,,,,,,67,67,-7,-7,,,,,,,,,,,,,,,722.7536518,723.2483713,722.7536518,723.2483713,90.47619048,1575574191,1575574192,0.765151978,1575574188,1575574191,,,s14,1,34,F,resident,2019_Dec_05_1318,AdjustEyeTrack,3.1.5,59.86573409
133,Stimuli/Morph133.JPG,Stimuli/Morph133.png,Stimuli/BlurLevel5/BlurEditedMorph133,Stimuli/BlurLevel5/BlurEditedMorph133.png,Stimuli/BlurLevel5/NumberedMorphs/BlurEditedMorph133.png,Stimuli/BlurLevel5/OriginalBlur/BlurEditedMorph133.png,Stimuli/BlurMorphTrio/EditedMorph133.png,None,None,,,,,1,0,1,0,0,0,0,132,,,,,,,,,,,,,,,,,,,,,,,29,1,2,194,-2.425739316,-0.604804739,133,Experiment,,,,,,,,,10,130,3,3,,,,,,,,,,,,,,,745.9331846,746.4313103,745.9331846,746.4313103,95.91836735,1575574214,1575574217,2.884514093,1575574211,1575574214,space,18.74080779,s14,1,34,F,resident,2019_Dec_05_1318,AdjustEyeTrack,3.1.5,59.86573409
107,Stimuli/Morph107.JPG,Stimuli/Morph107.png,Stimuli/BlurLevel5/BlurEditedMorph107,Stimuli/BlurLevel5/BlurEditedMorph107.png,Stimuli/BlurLevel5/NumberedMorphs/BlurEditedMorph107.png,Stimuli/BlurLevel5/OriginalBlur/BlurEditedMorph107.png,Stimuli/BlurMorphTrio/EditedMorph107.png,None,None,,,,,1,0,1,0,0,1,1,106,,,,,,,,,,,,,,,,,,,,,,,40,2,2,219,-1.942864904,-1.573300978,107,Experiment,,,,,,,,,36,116,-9,-9,,,,,,,,,,,,,,,751.8838053,752.3809385,751.8838053,752.3809385,87.75510204,1575574220,1575574223,2.867034197,1575574217,1575574220,,,s14,1,34,F,resident,2019_Dec_05_1318,AdjustEyeTrack,3.1.5,59.86573409
120,Stimuli/Morph120.JPG,Stimuli/Morph120.png,Stimuli/BlurLevel5/BlurEditedMorph120,Stimuli/BlurLevel5/BlurEditedMorph120.png,Stimuli/BlurLevel5/NumberedMorphs/BlurEditedMorph120.png,Stimuli/BlurLevel5/OriginalBlur/BlurEditedMorph120.png,Stimuli/BlurMorphTrio/EditedMorph120.png,None,None,,,,,1,0,1,0,0,2,2,119,,,,,,,,,,,,,,,,,,,,,,,85,3,2,23,2.301262134,0.976827821,120,Experiment,,,,,,,,,115,115,5,5,,,,,,,,,,,,,,,757.5148325,758.0142221,757.5148325,758.0142221,93.19727891,1575574226,1575574226,0.683521032,1575574223,1575574226,,,s14,1,34,F,resident,2019_Dec_05_1318,AdjustEyeTrack,3.1.5,59.86573409
43,Stimuli/Morph43.JPG,Stimuli/Morph43.png,Stimuli/BlurLevel5/BlurEditedMorph43,Stimuli/BlurLevel5/BlurEditedMorph43.png,Stimuli/BlurLevel5/NumberedMorphs/BlurEditedMorph43.png,Stimuli/BlurLevel5/OriginalBlur/BlurEditedMorph43.png,Stimuli/BlurMorphTrio/EditedMorph43.png,010124right.gif,Stimuli/normal_thumbnails/43right.gif,,,,,1,0,1,0,0,3,3,42,,,,,,,,,,,,,,,,,,,,,,,67,4,2,186,-2.486304738,-0.261321158,43,Experiment,,,,,,,,,82,42,1,1,,,,,,,,,,,,,,,760.7479349,761.2478244,760.7479349,761.2478244,98.63945578,1575574229,1575574232,3.267477036,1575574227,1575574229,,,s14,1,34,F,resident,2019_Dec_05_1318,AdjustEyeTrack,3.1.5,59.86573409
44,Stimuli/Morph44.JPG,Stimuli/Morph44.png,Stimuli/BlurLevel5/BlurEditedMorph44,Stimuli/BlurLevel5/BlurEditedMorph44.png,Stimuli/BlurLevel5/NumberedMorphs/BlurEditedMorph44.png,Stimuli/BlurLevel5/OriginalBlur/BlurEditedMorph44.png,Stimuli/BlurMorphTrio/EditedMorph44.png,010126right.gif,Stimuli/normal_thumbnails/44right.gif,,,,,1,0,1,0,0,4,4,43,,,,,,,,,,,,,,,,,,,,,,,91,5,2,243,-1.134976249,-2.22751631,44,Experiment,,,,,,,,,88,49,-5,-5,,,,,,,,,,,,,,,766.7666976,767.2634636,766.7666976,767.2634636,93.19727891,1575574235,1575574238,3.12522006,1575574232,1575574235,,,s14,1,34,F,resident,2019_Dec_05_1318,AdjustEyeTrack,3.1.5,59.86573409
62,Stimuli/Morph62.JPG,Stimuli/Morph62.png,Stimuli/BlurLevel5/BlurEditedMorph62,Stimuli/BlurLevel5/BlurEditedMorph62.png,Stimuli/BlurLevel5/NumberedMorphs/BlurEditedMorph62.png,Stimuli/BlurLevel5/OriginalBlur/BlurEditedMorph62.png,Stimuli/BlurMorphTrio/EditedMorph62.png,020205right.gif,Stimuli/normal_thumbnails/62right.gif,,,,,1,0,1,0,0,5,5,61,,,,,,,,,,,,,,,,,,,,,,,5,6,2,216,-2.022542486,-1.469463131,62,Experiment,,,,,,,,,83,64,-2,-2,,,,,,,,,,,,,,,772.6813871,773.1809946,772.6813871,773.1809946,97.27891156,1575574241,1575574244,3.484164,1575574238,1575574241,,,s14,1,34,F,resident,2019_Dec_05_1318,AdjustEyeTrack,3.1.5,59.86573409
108,Stimuli/Morph108.JPG,Stimuli/Morph108.png,Stimuli/BlurLevel5/BlurEditedMorph108,Stimuli/BlurLevel5/BlurEditedMorph108.png,Stimuli/BlurLevel5/NumberedMorphs/BlurEditedMorph108.png,Stimuli/BlurLevel5/OriginalBlur/BlurEditedMorph108.png,Stimuli/BlurMorphTrio/EditedMorph108.png,None,None,,,,,1,0,1,0,0,6,6,107,,,,,,,,,,,,,,,,,,,,,,,42,7,2,192,-2.445369002,-0.519779227,108,Experiment,,,,,,,,,105,105,3,3,,,,,,,,,,,,,,,779.4995621,779.998052,779.4995621,779.998052,95.91836735,1575574248,1575574248,0.488558054,1575574245,1575574248,,,s14,1,34,F,resident,2019_Dec_05_1318,AdjustEyeTrack,3.1.5,59.86573409
142,Stimuli/Morph142.JPG,Stimuli/Morph142.png,Stimuli/BlurLevel5/BlurEditedMorph142,Stimuli/BlurLevel5/BlurEditedMorph142.png,Stimuli/BlurLevel5/NumberedMorphs/BlurEditedMorph142.png,Stimuli/BlurLevel5/OriginalBlur/BlurEditedMorph142.png,Stimuli/BlurMorphTrio/EditedMorph142.png,None,None,,,,,1,0,1,0,0,7,7,141,,,,,,,,,,,,,,,,,,,,,,,14,8,2,71,0.813920386,2.363796439,142,Experiment,,,,,,,,,27,2,140,-7,,,,,,,,,,,,,,,782.9336857,783.4638682,782.9336857,783.4638682,90.47619048,1575574251,1575574254,3.366713285,1575574248,1575574251,,,s14,1,34,F,resident,2019_Dec_05_1318,AdjustEyeTrack,3.1.5,59.86573409
24,Stimuli/Morph24.JPG,Stimuli/Morph24.png,Stimuli/BlurLevel5/BlurEditedMorph24,Stimuli/BlurLevel5/BlurEditedMorph24.png,Stimuli/BlurLevel5/NumberedMorphs/BlurEditedMorph24.png,Stimuli/BlurLevel5/OriginalBlur/BlurEditedMorph24.png,Stimuli/BlurMorphTrio/EditedMorph24.png,010068right.gif,Stimuli/normal_thumbnails/24right.gif,,,,,1,0,1,0,0,8,8,23,,,,,,,,,,,,,,,,,,,,,,,17,9,2,352,2.475670172,-0.347932752,24,Experiment,,,,,,,,,108,20,4,4,,,,,,,,,,,,,,,789.6218583,790.1147836,789.6218583,790.1147836,94.55782313,1575574258,1575574261,3.183878899,1575574255,1575574258,,,s14,1,34,F,resident,2019_Dec_05_1318,AdjustEyeTrack,3.1.5,59.86573409
58,Stimuli/Morph58.JPG,Stimuli/Morph58.png,Stimuli/BlurLevel5/BlurEditedMorph58,Stimuli/BlurLevel5/BlurEditedMorph58.png,Stimuli/BlurLevel5/NumberedMorphs/BlurEditedMorph58.png,Stimuli/BlurLevel5/OriginalBlur/BlurEditedMorph58.png,Stimuli/BlurMorphTrio/EditedMorph58.png,010159right.gif,Stimuli/normal_thumbnails/58right.gif,,,,,1,0,1,0,0,9,9,57,,,,,,,,,,,,,,,,,,,,,,,52,10,2,92,-0.087248742,2.498477068,58,Experiment,,,,,,,,,128,58,0,0,,,,,,,,,,,,,,,795.534415,796.0306168,795.534415,796.0306168,100,1575574264,1575574267,3.450364113,1575574261,1575574264,,,s14,1,34,F,resident,2019_Dec_05_1318,AdjustEyeTrack,3.1.5,59.86573409
19,Stimuli/Morph19.JPG,Stimuli/Morph19.png,Stimuli/BlurLevel5/BlurEditedMorph19,Stimuli/BlurLevel5/BlurEditedMorph19.png,Stimuli/BlurLevel5/NumberedMorphs/BlurEditedMorph19.png,Stimuli/BlurLevel5/OriginalBlur/BlurEditedMorph19.png,Stimuli/BlurMorphTrio/EditedMorph19.png,010045right.gif,Stimuli/normal_thumbnails/19right.gif,,,,,1,0,1,0,0,10,10,18,,,,,,,,,,,,,,,,,,,,,,,49,11,2,158,-2.317959636,0.936516484,19,Experiment,,,,,,,,,1,25,-6,-6,,,,,,,,,,,,,,,801.7676168,802.2631305,801.7676168,802.2631305,91.83673469,1575574270,1575574277,6.816276073,1575574267,1575574270,,,s14,1,34,F,resident,2019_Dec_05_1318,AdjustEyeTrack,3.1.5,59.86573409
132,Stimuli/Morph132.JPG,Stimuli/Morph132.png,Stimuli/BlurLevel5/BlurEditedMorph132,Stimuli/BlurLevel5/BlurEditedMorph132.png,Stimuli/BlurLevel5/NumberedMorphs/BlurEditedMorph132.png,Stimuli/BlurLevel5/OriginalBlur/BlurEditedMorph132.png,Stimuli/BlurMorphTrio/EditedMorph132.png,None,None,,,,,1,0,1,0,0,11,11,131,,,,,,,,,,,,,,,,,,,,,,,44,12,2,178,-2.498477068,0.087248742,132,Experiment,,,,,,,,,93,140,-8,-8,,,,,,,,,,,,,,,811.4475672,811.9470392,811.4475672,811.9470392,89.11564626,1575574280,1575574281,1.890851021,1575574277,1575574280,,,s14,1,34,F,resident,2019_Dec_05_1318,AdjustEyeTrack,3.1.5,59.86573409
55,Stimuli/Morph55.JPG,Stimuli/Morph55.png,Stimuli/BlurLevel5/BlurEditedMorph55,Stimuli/BlurLevel5/BlurEditedMorph55.png,Stimuli/BlurLevel5/NumberedMorphs/BlurEditedMorph55.png,Stimuli/BlurLevel5/OriginalBlur/BlurEditedMorph55.png,Stimuli/BlurMorphTrio/EditedMorph55.png,010151right.gif,Stimuli/normal_thumbnails/55right.gif,,,,,1,0,1,0,0,12,12,54,,,,,,,,,,,,,,,,,,,,,,,85,13,2,102,-0.519779227,2.445369002,55,Experiment,,,,,,,,,30,52,3,3,,,,,,,,,,,,,,,816.0547245,816.5468473,816.0547245,816.5468473,95.91836735,1575574284,1575574286,2.017083883,1575574282,1575574284,,,s14,1,34,F,resident,2019_Dec_05_1318,AdjustEyeTrack,3.1.5,59.86573409
25,Stimuli/Morph25.JPG,Stimuli/Morph25.png,Stimuli/BlurLevel5/BlurEditedMorph25,Stimuli/BlurLevel5/BlurEditedMorph25.png,Stimuli/BlurLevel5/NumberedMorphs/BlurEditedMorph25.png,Stimuli/BlurLevel5/OriginalBlur/BlurEditedMorph25.png,Stimuli/BlurMorphTrio/EditedMorph25.png,010069right.gif,Stimuli/normal_thumbnails/25right.gif,,,,,1,0,1,0,0,13,13,24,,,,,,,,,,,,,,,,,,,,,,,49,14,2,257,-0.562377636,-2.435925162,25,Experiment,,,,,,,,,79,2,23,23,,,,,,,,,,,,,,,820.6816012,821.1802997,820.6816012,821.1802997,68.70748299,1575574289,1575574292,3.350383043,1575574286,1575574289,,,s14,1,34,F,resident,2019_Dec_05_1318,AdjustEyeTrack,3.1.5,59.86573409
49,Stimuli/Morph49.JPG,Stimuli/Morph49.png,Stimuli/BlurLevel5/BlurEditedMorph49,Stimuli/BlurLevel5/BlurEditedMorph49.png,Stimuli/BlurLevel5/NumberedMorphs/BlurEditedMorph49.png,Stimuli/BlurLevel5/OriginalBlur/BlurEditedMorph49.png,Stimuli/BlurMorphTrio/EditedMorph49.png,010135right.gif,Stimuli/normal_thumbnails/49right.gif,,,,,1,0,1,0,0,14,14,48,,,,,,,,,,,,,,,,,,,,,,,80,15,2,291,0.895919874,-2.333951066,49,Experiment,,,,,,,,,24,64,-15,-15,,,,,,,,,,,,,,,826.3838659,826.8966721,826.3838659,826.8966721,79.59183673,1575574294,1575574298,3.500236034,1575574292,1575574294,,,s14,1,34,F,resident,2019_Dec_05_1318,AdjustEyeTrack,3.1.5,59.86573409
112,Stimuli/Morph112.JPG,Stimuli/Morph112.png,Stimuli/BlurLevel5/BlurEditedMorph112,Stimuli/BlurLevel5/BlurEditedMorph112.png,Stimuli/BlurLevel5/NumberedMorphs/BlurEditedMorph112.png,Stimuli/BlurLevel5/OriginalBlur/BlurEditedMorph112.png,Stimuli/BlurMorphTrio/EditedMorph112.png,None,None,,,,,1,0,1,0,0,15,15,111,,,,,,,,,,,,,,,,,,,,,,,7,16,2,118,-1.173678907,2.207368982,112,Experiment,,,,,,,,,70,95,17,17,,,,,,,,,,,,,,,832.3646543,832.8636508,832.3646543,832.8636508,76.8707483,1575574300,1575574303,2.134469032,1575574298,1575574300,,,s14,1,34,F,resident,2019_Dec_05_1318,AdjustEyeTrack,3.1.5,59.86573409
67,Stimuli/Morph67.JPG,Stimuli/Morph67.png,Stimuli/BlurLevel5/BlurEditedMorph67,Stimuli/BlurLevel5/BlurEditedMorph67.png,Stimuli/BlurLevel5/NumberedMorphs/BlurEditedMorph67.png,Stimuli/BlurLevel5/OriginalBlur/BlurEditedMorph67.png,Stimuli/BlurMorphTrio/EditedMorph67.png,020217right.gif,Stimuli/normal_thumbnails/67right.gif,,,,,1,0,1,0,0,16,16,66,,,,,,,,,,,,,,,,,,,,,,,13,17,2,160,-2.349231552,0.855050358,67,Experiment,,,,,,,,,133,69,-2,-2,,,,,,,,,,,,,,,837.6657342,838.163049,837.6657342,838.163049,97.27891156,1575574306,1575574309,2.983393192,1575574303,1575574306,,,s14,1,34,F,resident,2019_Dec_05_1318,AdjustEyeTrack,3.1.5,59.86573409
42,Stimuli/Morph42.JPG,Stimuli/Morph42.png,Stimuli/BlurLevel5/BlurEditedMorph42,Stimuli/BlurLevel5/BlurEditedMorph42.png,Stimuli/BlurLevel5/NumberedMorphs/BlurEditedMorph42.png,Stimuli/BlurLevel5/OriginalBlur/BlurEditedMorph42.png,Stimuli/BlurMorphTrio/EditedMorph42.png,010121right.gif,Stimuli/normal_thumbnails/42right.gif,,,,,1,0,1,0,0,17,17,41,,,,,,,,,,,,,,,,,,,,,,,88,18,2,355,2.490486745,-0.217889357,42,Experiment,,,,,,,,,28,44,-2,-2,,,,,,,,,,,,,,,843.5833553,844.0828662,843.5833553,844.0828662,97.27891156,1575574312,1575574313,1.466190815,1575574309,1575574312,,,s14,1,34,F,resident,2019_Dec_05_1318,AdjustEyeTrack,3.1.5,59.86573409
140,Stimuli/Morph140.JPG,Stimuli/Morph140.png,Stimuli/BlurLevel5/BlurEditedMorph140,Stimuli/BlurLevel5/BlurEditedMorph140.png,Stimuli/BlurLevel5/NumberedMorphs/BlurEditedMorph140.png,Stimuli/BlurLevel5/OriginalBlur/BlurEditedMorph140.png,Stimuli/BlurMorphTrio/EditedMorph140.png,None,None,,,,,1,0,1,0,0,18,18,139,,,,,,,,,,,,,,,,,,,,,,,65,19,2,46,1.736645926,1.798349501,140,Experiment,,,,,,,,,53,138,2,2,,,,,,,,,,,,,,,847.9328081,848.433759,847.9328081,848.433759,97.27891156,1575574316,1575574323,6.549891949,1575574313,1575574316,,,s14,1,34,F,resident,2019_Dec_05_1318,AdjustEyeTrack,3.1.5,59.86573409
97,Stimuli/Morph97.JPG,Stimuli/Morph97.png,Stimuli/BlurLevel5/BlurEditedMorph97,Stimuli/BlurLevel5/BlurEditedMorph97.png,Stimuli/BlurLevel5/NumberedMorphs/BlurEditedMorph97.png,Stimuli/BlurLevel5/OriginalBlur/BlurEditedMorph97.png,Stimuli/BlurMorphTrio/EditedMorph97.png,020294right.gif,Stimuli/normal_thumbnails/97right.gif,,,,,1,0,1,0,0,19,19,96,,,,,,,,,,,,,,,,,,,,,,,34,20,2,153,-2.22751631,1.134976249,97,Experiment,,,,,,,,,69,88,9,9,,,,,,,,,,,,,,,857.7668779,858.2628791,857.7668779,858.2628791,87.75510204,1575574326,1575574328,1.731500149,1575574323,1575574326,,,s14,1,34,F,resident,2019_Dec_05_1318,AdjustEyeTrack,3.1.5,59.86573409
9,Stimuli/Morph9.JPG,Stimuli/Morph9.png,Stimuli/BlurLevel5/BlurEditedMorph9,Stimuli/BlurLevel5/BlurEditedMorph9.png,Stimuli/BlurLevel5/NumberedMorphs/BlurEditedMorph9.png,Stimuli/BlurLevel5/OriginalBlur/BlurEditedMorph9.png,Stimuli/BlurMorphTrio/EditedMorph9.png,010015right.gif,Stimuli/normal_thumbnails/9right.gif,,,,,1,0,1,0,0,20,20,8,,,,,,,,,,,,,,,,,,,,,,,40,21,2,128,-1.539153688,1.970026884,9,Experiment,,,,,,,,,137,130,-121,26,,,,,,,,,,,,,,,862.2465557,862.7462358,862.2465557,862.7462358,64.62585034,1575574330,1575574332,1.633193016,1575574328,1575574330,,,s14,1,34,F,resident,2019_Dec_05_1318,AdjustEyeTrack,3.1.5,59.86573409
50,Stimuli/Morph50.JPG,Stimuli/Morph50.png,Stimuli/BlurLevel5/BlurEditedMorph50,Stimuli/BlurLevel5/BlurEditedMorph50.png,Stimuli/BlurLevel5/NumberedMorphs/BlurEditedMorph50.png,Stimuli/BlurLevel5/OriginalBlur/BlurEditedMorph50.png,Stimuli/BlurMorphTrio/EditedMorph50.png,010142right.gif,Stimuli/normal_thumbnails/50right.gif,,,,,1,0,1,0,0,21,21,49,,,,,,,,,,,,,,,,,,,,,,,16,22,2,338,2.317959636,-0.936516484,50,Experiment,,,,,,,,,14,51,-1,-1,,,,,,,,,,,,,,,867.0161064,867.5129035,867.0161064,867.5129035,98.63945578,1575574335,1575574337,1.594932079,1575574332,1575574335,,,s14,1,34,F,resident,2019_Dec_05_1318,AdjustEyeTrack,3.1.5,59.86573409
1,Stimuli/Morph1.JPG,Stimuli/Morph1.png,Stimuli/BlurLevel5/BlurEditedMorph1,Stimuli/BlurLevel5/BlurEditedMorph1.png,Stimuli/BlurLevel5/NumberedMorphs/BlurEditedMorph1.png,Stimuli/BlurLevel5/OriginalBlur/BlurEditedMorph1.png,Stimuli/BlurMorphTrio/EditedMorph1.png,010003right.gif,Stimuli/normal_thumbnails/1right.gif,,,,,1,0,1,0,0,22,22,0,,,,,,,,,,,,,,,,,,,,,,,4,23,2,45,1.767766953,1.767766953,1,Experiment,,,,,,,,,81,143,-142,5,,,,,,,,,,,,,,,871.7791258,872.2793425,871.7791258,872.2793425,93.19727891,1575574340,1575574342,2.582993746,1575574337,1575574340,,,s14,1,34,F,resident,2019_Dec_05_1318,AdjustEyeTrack,3.1.5,59.86573409
95,Stimuli/Morph95.JPG,Stimuli/Morph95.png,Stimuli/BlurLevel5/BlurEditedMorph95,Stimuli/BlurLevel5/BlurEditedMorph95.png,Stimuli/BlurLevel5/NumberedMorphs/BlurEditedMorph95.png,Stimuli/BlurLevel5/OriginalBlur/BlurEditedMorph95.png,Stimuli/BlurMorphTrio/EditedMorph95.png,020287right.gif,Stimuli/normal_thumbnails/95right.gif,,,,,1,0,1,0,0,23,23,94,,,,,,,,,,,,,,,,,,,,,,,38,24,2,46,1.736645926,1.798349501,95,Experiment,,,,,,,,,92,96,-1,-1,,,,,,,,,,,,,,,877.2805027,877.7885852,877.2805027,877.7885852,98.63945578,1575574345,1575574346,1.085095882,1575574343,1575574345,,,s14,1,34,F,resident,2019_Dec_05_1318,AdjustEyeTrack,3.1.5,59.86573409
115,Stimuli/Morph115.JPG,Stimuli/Morph115.png,Stimuli/BlurLevel5/BlurEditedMorph115,Stimuli/BlurLevel5/BlurEditedMorph115.png,Stimuli/BlurLevel5/NumberedMorphs/BlurEditedMorph115.png,Stimuli/BlurLevel5/OriginalBlur/BlurEditedMorph115.png,Stimuli/BlurMorphTrio/EditedMorph115.png,None,None,,,,,1,0,1,0,0,24,24,114,,,,,,,,,,,,,,,,,,,,,,,51,25,2,186,-2.486304738,-0.261321158,115,Experiment,,,,,,,,,58,102,13,13,,,,,,,,,,,,,,,881.2010175,881.6953275,881.2010175,881.6953275,82.31292517,1575574349,1575574351,1.484134912,1575574347,1575574349,,,s14,1,34,F,resident,2019_Dec_05_1318,AdjustEyeTrack,3.1.5,59.86573409
64,Stimuli/Morph64.JPG,Stimuli/Morph64.png,Stimuli/BlurLevel5/BlurEditedMorph64,Stimuli/BlurLevel5/BlurEditedMorph64.png,Stimuli/BlurLevel5/NumberedMorphs/BlurEditedMorph64.png,Stimuli/BlurLevel5/OriginalBlur/BlurEditedMorph64.png,Stimuli/BlurMorphTrio/EditedMorph64.png,020208right.gif,Stimuli/normal_thumbnails/64right.gif,,,,,1,0,1,0,0,25,25,63,,,,,,,,,,,,,,,,,,,,,,,91,26,2,183,-2.496573837,-0.130839891,64,Experiment,,,,,,,,,21,67,-3,-3,,,,,,,,,,,,,,,885.309696,885.8123576,885.309696,885.8123576,95.91836735,1575574353,1575574355,1.96638608,1575574351,1575574353,,,s14,1,34,F,resident,2019_Dec_05_1318,AdjustEyeTrack,3.1.5,59.86573409
53,Stimuli/Morph53.JPG,Stimuli/Morph53.png,Stimuli/BlurLevel5/BlurEditedMorph53,Stimuli/BlurLevel5/BlurEditedMorph53.png,Stimuli/BlurLevel5/NumberedMorphs/BlurEditedMorph53.png,Stimuli/BlurLevel5/OriginalBlur/BlurEditedMorph53.png,Stimuli/BlurMorphTrio/EditedMorph53.png,010149right.gif,Stimuli/normal_thumbnails/53right.gif,,,,,1,0,1,0,0,26,26,52,,,,,,,,,,,,,,,,,,,,,,,96,27,2,292,0.936516484,-2.317959636,53,Experiment,,,,,,,,,55,60,-7,-7,,,,,,,,,,,,,,,891.0358847,891.5295328,891.0358847,891.5295328,90.47619048,1575574359,1575574362,2.417913198,1575574356,1575574359,,,s14,1,34,F,resident,2019_Dec_05_1318,AdjustEyeTrack,3.1.5,59.86573409
48,Stimuli/Morph48.JPG,Stimuli/Morph48.png,Stimuli/BlurLevel5/BlurEditedMorph48,Stimuli/BlurLevel5/BlurEditedMorph48.png,Stimuli/BlurLevel5/NumberedMorphs/BlurEditedMorph48.png,Stimuli/BlurLevel5/OriginalBlur/BlurEditedMorph48.png,Stimuli/BlurMorphTrio/EditedMorph48.png,010131right.gif,Stimuli/normal_thumbnails/48right.gif,,,,,1,0,1,0,0,27,27,47,,,,,,,,,,,,,,,,,,,,,,,51,28,2,233,-1.504537558,-1.996588775,48,Experiment,,,,,,,,,62,62,-14,-14,,,,,,,,,,,,,,,896.1194033,896.6124656,896.1194033,896.6124656,80.95238095,1575574364,1575574365,0.816581011,1575574362,1575574364,,,s14,1,34,F,resident,2019_Dec_05_1318,AdjustEyeTrack,3.1.5,59.86573409
144,Stimuli/Morph144.JPG,Stimuli/Morph144.png,Stimuli/BlurLevel5/BlurEditedMorph144,Stimuli/BlurLevel5/BlurEditedMorph144.png,Stimuli/BlurLevel5/NumberedMorphs/BlurEditedMorph144.png,Stimuli/BlurLevel5/OriginalBlur/BlurEditedMorph144.png,Stimuli/BlurMorphTrio/EditedMorph144.png,None,None,,,,,1,0,1,0,0,28,28,143,,,,,,,,,,,,,,,,,,,,,,,24,29,2,120,-1.25,2.165063509,144,Experiment,,,,,,,,,33,143,1,1,,,,,,,,,,,,,,,899.7872613,900.280273,899.7872613,900.280273,98.63945578,1575574368,1575574371,3.015783072,1575574365,1575574368,,,s14,1,34,F,resident,2019_Dec_05_1318,AdjustEyeTrack,3.1.5,59.86573409
127,Stimuli/Morph127.JPG,Stimuli/Morph127.png,Stimuli/BlurLevel5/BlurEditedMorph127,Stimuli/BlurLevel5/BlurEditedMorph127.png,Stimuli/BlurLevel5/NumberedMorphs/BlurEditedMorph127.png,Stimuli/BlurLevel5/OriginalBlur/BlurEditedMorph127.png,Stimuli/BlurMorphTrio/EditedMorph127.png,None,None,,,,,1,0,1,0,0,29,29,126,,,,,,,,,,,,,,,,,,,,,,,46,30,2,80,0.434120444,2.462019383,127,Experiment,,,,,,,,,36,10,117,-30,,,,,,,,,,,,,,,905.3784411,905.8787371,905.3784411,905.8787371,59.18367347,1575574373,1575574378,4.671067238,1575574371,1575574373,,,s14,1,34,F,resident,2019_Dec_05_1318,AdjustEyeTrack,3.1.5,59.86573409
3,Stimuli/Morph3.JPG,Stimuli/Morph3.png,Stimuli/BlurLevel5/BlurEditedMorph3,Stimuli/BlurLevel5/BlurEditedMorph3.png,Stimuli/BlurLevel5/NumberedMorphs/BlurEditedMorph3.png,Stimuli/BlurLevel5/OriginalBlur/BlurEditedMorph3.png,Stimuli/BlurMorphTrio/EditedMorph3.png,010009right.gif,Stimuli/normal_thumbnails/3right.gif,,,,,1,0,1,0,0,30,30,2,,,,,,,,,,,,,,,,,,,,,,,31,31,2,81,0.391086163,2.469220851,3,Experiment,,,,,,,,,1,1,2,2,,,,,,,,,,,,,,,913.09886,913.5965885,913.09886,913.5965885,97.27891156,1575574381,1575574382,1.083050966,1575574378,1575574381,,,s14,1,34,F,resident,2019_Dec_05_1318,AdjustEyeTrack,3.1.5,59.86573409
15,Stimuli/Morph15.JPG,Stimuli/Morph15.png,Stimuli/BlurLevel5/BlurEditedMorph15,Stimuli/BlurLevel5/BlurEditedMorph15.png,Stimuli/BlurLevel5/NumberedMorphs/BlurEditedMorph15.png,Stimuli/BlurLevel5/OriginalBlur/BlurEditedMorph15.png,Stimuli/BlurMorphTrio/EditedMorph15.png,010031right.gif,Stimuli/normal_thumbnails/15right.gif,,,,,1,0,1,0,0,31,31,14,,,,,,,,,,,,,,,,,,,,,,,34,32,2,165,-2.414814566,0.647047613,15,Experiment,,,,,,,,,34,143,-128,19,,,,,,,,,,,,,,,917.2957352,917.7952722,917.2957352,917.7952722,74.14965986,1575574385,1575574392,6.365298033,1575574383,1575574385,,,s14,1,34,F,resident,2019_Dec_05_1318,AdjustEyeTrack,3.1.5,59.86573409
23,Stimuli/Morph23.JPG,Stimuli/Morph23.png,Stimuli/BlurLevel5/BlurEditedMorph23,Stimuli/BlurLevel5/BlurEditedMorph23.png,Stimuli/BlurLevel5/NumberedMorphs/BlurEditedMorph23.png,Stimuli/BlurLevel5/OriginalBlur/BlurEditedMorph23.png,Stimuli/BlurMorphTrio/EditedMorph23.png,010063right.gif,Stimuli/normal_thumbnails/23right.gif,,,,,1,0,1,0,0,32,32,22,,,,,,,,,,,,,,,,,,,,,,,88,33,2,10,2.462019383,0.434120444,23,Experiment,,,,,,,,,32,25,-2,-2,,,,,,,,,,,,,,,926.6339843,927.1299539,926.6339843,927.1299539,97.27891156,1575574395,1575574397,1.869150877,1575574392,1575574395,,,s14,1,34,F,resident,2019_Dec_05_1318,AdjustEyeTrack,3.1.5,59.86573409
89,Stimuli/Morph89.JPG,Stimuli/Morph89.png,Stimuli/BlurLevel5/BlurEditedMorph89,Stimuli/BlurLevel5/BlurEditedMorph89.png,Stimuli/BlurLevel5/NumberedMorphs/BlurEditedMorph89.png,Stimuli/BlurLevel5/OriginalBlur/BlurEditedMorph89.png,Stimuli/BlurMorphTrio/EditedMorph89.png,020273right.gif,Stimuli/normal_thumbnails/89right.gif,,,,,1,0,1,0,0,33,33,88,,,,,,,,,,,,,,,,,,,,,,,89,34,2,223,-1.828384254,-1.7049959,89,Experiment,,,,,,,,,116,84,5,5,,,,,,,,,,,,,,,931.3065762,931.8122901,931.3065762,931.8122901,93.19727891,1575574399,1575574403,3.3344419,1575574397,1575574399,,,s14,1,34,F,resident,2019_Dec_05_1318,AdjustEyeTrack,3.1.5,59.86573409
86,Stimuli/Morph86.JPG,Stimuli/Morph86.png,Stimuli/BlurLevel5/BlurEditedMorph86,Stimuli/BlurLevel5/BlurEditedMorph86.png,Stimuli/BlurLevel5/NumberedMorphs/BlurEditedMorph86.png,Stimuli/BlurLevel5/OriginalBlur/BlurEditedMorph86.png,Stimuli/BlurMorphTrio/EditedMorph86.png,020266right.gif,Stimuli/normal_thumbnails/86right.gif,,,,,1,0,1,0,0,34,34,85,,,,,,,,,,,,,,,,,,,,,,,37,35,2,341,2.363796439,-0.813920386,86,Experiment,,,,,,,,,28,114,-28,-28,,,,,,,,,,,,,,,937.5501692,938.0453742,937.5501692,938.0453742,61.9047619,1575574406,1575574408,2.550539732,1575574403,1575574406,,,s14,1,34,F,resident,2019_Dec_05_1318,AdjustEyeTrack,3.1.5,59.86573409
103,Stimuli/Morph103.JPG,Stimuli/Morph103.png,Stimuli/BlurLevel5/BlurEditedMorph103,Stimuli/BlurLevel5/BlurEditedMorph103.png,Stimuli/BlurLevel5/NumberedMorphs/BlurEditedMorph103.png,Stimuli/BlurLevel5/OriginalBlur/BlurEditedMorph103.png,Stimuli/BlurMorphTrio/EditedMorph103.png,None,None,,,,,1,0,1,0,0,35,35,102,,,,,,,,,,,,,,,,,,,,,,,94,36,2,310,1.606969024,-1.915111108,103,Experiment,,,,,,,,,31,112,-9,-9,,,,,,,,,,,,,,,942.7798621,943.2784085,942.7798621,943.2784085,87.75510204,1575574411,1575574413,2.083082914,1575574408,1575574411,,,s14,1,34,F,resident,2019_Dec_05_1318,AdjustEyeTrack,3.1.5,59.86573409
88,Stimuli/Morph88.JPG,Stimuli/Morph88.png,Stimuli/BlurLevel5/BlurEditedMorph88,Stimuli/BlurLevel5/BlurEditedMorph88.png,Stimuli/BlurLevel5/NumberedMorphs/BlurEditedMorph88.png,Stimuli/BlurLevel5/OriginalBlur/BlurEditedMorph88.png,Stimuli/BlurMorphTrio/EditedMorph88.png,020271right.gif,Stimuli/normal_thumbnails/88right.gif,,,,,1,0,1,0,0,36,36,87,,,,,,,,,,,,,,,,,,,,,,,65,37,2,103,-0.562377636,2.435925162,88,Experiment,,,,,,,,,87,87,1,1,,,,,,,,,,,,,,,947.6385215,948.1451609,947.6385215,948.1451609,98.63945578,1575574416,1575574416,0.74925375,1575574413,1575574416,,,s14,1,34,F,resident,2019_Dec_05_1318,AdjustEyeTrack,3.1.5,59.86573409
34,Stimuli/Morph34.JPG,Stimuli/Morph34.png,Stimuli/BlurLevel5/BlurEditedMorph34,Stimuli/BlurLevel5/BlurEditedMorph34.png,Stimuli/BlurLevel5/NumberedMorphs/BlurEditedMorph34.png,Stimuli/BlurLevel5/OriginalBlur/BlurEditedMorph34.png,Stimuli/BlurMorphTrio/EditedMorph34.png,010090right.gif,Stimuli/normal_thumbnails/34right.gif,,,,,1,0,1,0,0,37,37,33,,,,,,,,,,,,,,,,,,,,,,,17,38,2,269,-0.043631016,-2.499619238,34,Experiment,,,,,,,,,118,32,2,2,,,,,,,,,,,,,,,951.6961455,952.1959755,951.6961455,952.1959755,97.27891156,1575574420,1575574423,3.072112322,1575574417,1575574420,,,s14,1,34,F,resident,2019_Dec_05_1318,AdjustEyeTrack,3.1.5,59.86573409
2,Stimuli/Morph2.JPG,Stimuli/Morph2.png,Stimuli/BlurLevel5/BlurEditedMorph2,Stimuli/BlurLevel5/BlurEditedMorph2.png,Stimuli/BlurLevel5/NumberedMorphs/BlurEditedMorph2.png,Stimuli/BlurLevel5/OriginalBlur/BlurEditedMorph2.png,Stimuli/BlurMorphTrio/EditedMorph2.png,010006right.gif,Stimuli/normal_thumbnails/2right.gif,,,,,1,0,1,0,0,38,38,1,,,,,,,,,,,,,,,,,,,,,,,70,39,2,195,-2.414814566,-0.647047613,2,Experiment,,,,,,,,,100,10,-8,-8,,,,,,,,,,,,,,,957.428399,957.9287064,957.428399,957.9287064,89.11564626,1575574426,1575574428,2.683917046,1575574423,1575574426,,,s14,1,34,F,resident,2019_Dec_05_1318,AdjustEyeTrack,3.1.5,59.86573409
66,Stimuli/Morph66.JPG,Stimuli/Morph66.png,Stimuli/BlurLevel5/BlurEditedMorph66,Stimuli/BlurLevel5/BlurEditedMorph66.png,Stimuli/BlurLevel5/NumberedMorphs/BlurEditedMorph66.png,Stimuli/BlurLevel5/OriginalBlur/BlurEditedMorph66.png,Stimuli/BlurMorphTrio/EditedMorph66.png,020212right.gif,Stimuli/normal_thumbnails/66right.gif,,,,,1,0,1,0,0,39,39,65,,,,,,,,,,,,,,,,,,,,,,,94,40,2,1,2.499619238,0.043631016,66,Experiment,,,,,,,,,42,63,3,3,,,,,,,,,,,,,,,962.7284262,963.2281076,962.7284262,963.2281076,95.91836735,1575574431,1575574433,1.883471251,1575574428,1575574431,,,s14,1,34,F,resident,2019_Dec_05_1318,AdjustEyeTrack,3.1.5,59.86573409
106,Stimuli/Morph106.JPG,Stimuli/Morph106.png,Stimuli/BlurLevel5/BlurEditedMorph106,Stimuli/BlurLevel5/BlurEditedMorph106.png,Stimuli/BlurLevel5/NumberedMorphs/BlurEditedMorph106.png,Stimuli/BlurLevel5/OriginalBlur/BlurEditedMorph106.png,Stimuli/BlurMorphTrio/EditedMorph106.png,None,None,,,,,1,0,1,0,0,40,40,105,,,,,,,,,,,,,,,,,,,,,,,86,41,2,38,1.970026884,1.539153688,106,Experiment,,,,,,,,,60,95,11,11,,,,,,,,,,,,,,,967.3822092,967.8779699,967.3822092,967.8779699,85.03401361,1575574435,1575574437,2.015675068,1575574433,1575574435,,,s14,1,34,F,resident,2019_Dec_05_1318,AdjustEyeTrack,3.1.5,59.86573409
82,Stimuli/Morph82.JPG,Stimuli/Morph82.png,Stimuli/BlurLevel5/BlurEditedMorph82,Stimuli/BlurLevel5/BlurEditedMorph82.png,Stimuli/BlurLevel5/NumberedMorphs/BlurEditedMorph82.png,Stimuli/BlurLevel5/OriginalBlur/BlurEditedMorph82.png,Stimuli/BlurMorphTrio/EditedMorph82.png,020247right.gif,Stimuli/normal_thumbnails/82right.gif,,,,,1,0,1,0,0,41,41,81,,,,,,,,,,,,,,,,,,,,,,,23,42,2,36,2.022542486,1.469463131,82,Experiment,,,,,,,,,99,99,-17,-17,,,,,,,,,,,,,,,972.1479028,972.7115988,972.1479028,972.7115988,76.8707483,1575574440,1575574441,0.517592907,1575574438,1575574440,,,s14,1,34,F,resident,2019_Dec_05_1318,AdjustEyeTrack,3.1.5,59.86573409
92,Stimuli/Morph92.JPG,Stimuli/Morph92.png,Stimuli/BlurLevel5/BlurEditedMorph92,Stimuli/BlurLevel5/BlurEditedMorph92.png,Stimuli/BlurLevel5/NumberedMorphs/BlurEditedMorph92.png,Stimuli/BlurLevel5/OriginalBlur/BlurEditedMorph92.png,Stimuli/BlurMorphTrio/EditedMorph92.png,020277right.gif,Stimuli/normal_thumbnails/92right.gif,,,,,1,0,1,0,0,42,42,91,,,,,,,,,,,,,,,,,,,,,,,40,43,2,221,-1.886773951,-1.640147572,92,Experiment,,,,,,,,,57,92,0,0,,,,,,,,,,,,,,,975.6521249,976.1448379,975.6521249,976.1448379,100,1575574444,1575574445,1.549157143,1575574441,1575574444,,,s14,1,34,F,resident,2019_Dec_05_1318,AdjustEyeTrack,3.1.5,59.86573409
78,Stimuli/Morph78.JPG,Stimuli/Morph78.png,Stimuli/BlurLevel5/BlurEditedMorph78,Stimuli/BlurLevel5/BlurEditedMorph78.png,Stimuli/BlurLevel5/NumberedMorphs/BlurEditedMorph78.png,Stimuli/BlurLevel5/OriginalBlur/BlurEditedMorph78.png,Stimuli/BlurMorphTrio/EditedMorph78.png,020238right.gif,Stimuli/normal_thumbnails/78right.gif,,,,,1,0,1,0,0,43,43,77,,,,,,,,,,,,,,,,,,,,,,,3,44,2,205,-2.265769468,-1.056545654,78,Experiment,,,,,,,,,72,88,-10,-10,,,,,,,,,,,,,,,980.0434211,980.5445737,980.0434211,980.5445737,86.39455782,1575574448,1575574449,1.149293184,1575574446,1575574448,,,s14,1,34,F,resident,2019_Dec_05_1318,AdjustEyeTrack,3.1.5,59.86573409
73,Stimuli/Morph73.JPG,Stimuli/Morph73.png,Stimuli/BlurLevel5/BlurEditedMorph73,Stimuli/BlurLevel5/BlurEditedMorph73.png,Stimuli/BlurLevel5/NumberedMorphs/BlurEditedMorph73.png,Stimuli/BlurLevel5/OriginalBlur/BlurEditedMorph73.png,Stimuli/BlurMorphTrio/EditedMorph73.png,020230right.gif,Stimuli/normal_thumbnails/73right.gif,,,,,1,0,1,0,0,44,44,72,,,,,,,,,,,,,,,,,,,,,,,75,45,2,60,1.25,2.165063509,73,Experiment,,,,,,,,,56,74,-1,-1,,,,,,,,,,,,,,,983.8121353,984.3128638,983.8121353,984.3128638,98.63945578,1575574452,1575574456,3.903362036,1575574450,1575574452,,,s14,1,34,F,resident,2019_Dec_05_1318,AdjustEyeTrack,3.1.5,59.86573409
33,Stimuli/Morph33.JPG,Stimuli/Morph33.png,Stimuli/BlurLevel5/BlurEditedMorph33,Stimuli/BlurLevel5/BlurEditedMorph33.png,Stimuli/BlurLevel5/NumberedMorphs/BlurEditedMorph33.png,Stimuli/BlurLevel5/OriginalBlur/BlurEditedMorph33.png,Stimuli/BlurMorphTrio/EditedMorph33.png,010089right.gif,Stimuli/normal_thumbnails/33right.gif,,,,,1,0,1,0,0,45,45,32,,,,,,,,,,,,,,,,,,,,,,,61,46,2,35,2.047880111,1.433941091,33,Experiment,,,,,,,,,124,30,3,3,,,,,,,,,,,,,,,990.9276656,991.4283584,990.9276656,991.4283584,95.91836735,1575574459,1575574462,2.999524117,1575574456,1575574459,,,s14,1,34,F,resident,2019_Dec_05_1318,AdjustEyeTrack,3.1.5,59.86573409
22,Stimuli/Morph22.JPG,Stimuli/Morph22.png,Stimuli/BlurLevel5/BlurEditedMorph22,Stimuli/BlurLevel5/BlurEditedMorph22.png,Stimuli/BlurLevel5/NumberedMorphs/BlurEditedMorph22.png,Stimuli/BlurLevel5/OriginalBlur/BlurEditedMorph22.png,Stimuli/BlurMorphTrio/EditedMorph22.png,010055right.gif,Stimuli/normal_thumbnails/22right.gif,,,,,1,0,1,0,0,46,46,21,,,,,,,,,,,,,,,,,,,,,,,8,47,2,68,0.936516484,2.317959636,22,Experiment,,,,,,,,,33,24,-2,-2,,,,,,,,,,,,,,,996.9625628,997.4612836,996.9625628,997.4612836,97.27891156,1575574465,1575574466,1.41643405,1575574462,1575574465,,,s14,1,34,F,resident,2019_Dec_05_1318,AdjustEyeTrack,3.1.5,59.86573409
80,Stimuli/Morph80.JPG,Stimuli/Morph80.png,Stimuli/BlurLevel5/BlurEditedMorph80,Stimuli/BlurLevel5/BlurEditedMorph80.png,Stimuli/BlurLevel5/NumberedMorphs/BlurEditedMorph80.png,Stimuli/BlurLevel5/OriginalBlur/BlurEditedMorph80.png,Stimuli/BlurMorphTrio/EditedMorph80.png,020240right.gif,Stimuli/normal_thumbnails/80right.gif,,,,,1,0,1,0,0,47,47,79,,,,,,,,,,,,,,,,,,,,,,,26,48,2,106,-0.68909339,2.40315424,80,Experiment,,,,,,,,,65,81,-1,-1,,,,,,,,,,,,,,,1001.346253,1001.84994,1001.346253,1001.84994,98.63945578,1575574469,1575574471,1.750751019,1575574467,1575574469,,,s14,1,34,F,resident,2019_Dec_05_1318,AdjustEyeTrack,3.1.5,59.86573409
30,Stimuli/Morph30.JPG,Stimuli/Morph30.png,Stimuli/BlurLevel5/BlurEditedMorph30,Stimuli/BlurLevel5/BlurEditedMorph30.png,Stimuli/BlurLevel5/NumberedMorphs/BlurEditedMorph30.png,Stimuli/BlurLevel5/OriginalBlur/BlurEditedMorph30.png,Stimuli/BlurMorphTrio/EditedMorph30.png,010076right.gif,Stimuli/normal_thumbnails/30right.gif,,,,,1,0,1,0,0,48,48,29,,,,,,,,,,,,,,,,,,,,,,,13,49,2,275,0.217889357,-2.490486745,30,Experiment,,,,,,,,,99,28,2,2,,,,,,,,,,,,,,,1005.783163,1006.277374,1005.783163,1006.277374,97.27891156,1575574474,1575574477,3.100242853,1575574471,1575574474,,,s14,1,34,F,resident,2019_Dec_05_1318,AdjustEyeTrack,3.1.5,59.86573409
85,Stimuli/Morph85.JPG,Stimuli/Morph85.png,Stimuli/BlurLevel5/BlurEditedMorph85,Stimuli/BlurLevel5/BlurEditedMorph85.png,Stimuli/BlurLevel5/NumberedMorphs/BlurEditedMorph85.png,Stimuli/BlurLevel5/OriginalBlur/BlurEditedMorph85.png,Stimuli/BlurMorphTrio/EditedMorph85.png,020264right.gif,Stimuli/normal_thumbnails/85right.gif,,,,,1,0,1,0,0,49,49,84,,,,,,,,,,,,,,,,,,,,,,,69,50,2,58,1.324798161,2.12012024,85,Experiment,,,,,,,,,31,93,-8,-8,,,,,,,,,,,,,,,1011.717813,1012.211033,1011.717813,1012.211033,89.11564626,1575574480,1575574482,1.850398064,1575574477,1575574480,,,s14,1,34,F,resident,2019_Dec_05_1318,AdjustEyeTrack,3.1.5,59.86573409
5,Stimuli/Morph5.JPG,Stimuli/Morph5.png,Stimuli/BlurLevel5/BlurEditedMorph5,Stimuli/BlurLevel5/BlurEditedMorph5.png,Stimuli/BlurLevel5/NumberedMorphs/BlurEditedMorph5.png,Stimuli/BlurLevel5/OriginalBlur/BlurEditedMorph5.png,Stimuli/BlurMorphTrio/EditedMorph5.png,010011right.gif,Stimuli/normal_thumbnails/5right.gif,,,,,1,0,1,0,0,50,50,4,,,,,,,,,,,,,,,,,,,,,,,38,51,2,261,-0.391086163,-2.469220851,5,Experiment,,,,,,,,,101,7,-2,-2,,,,,,,,,,,,,,,1016.490888,1016.993878,1016.490888,1016.993878,97.27891156,1575574485,1575574488,3.119569063,1575574482,1575574485,,,s14,1,34,F,resident,2019_Dec_05_1318,AdjustEyeTrack,3.1.5,59.86573409
118,Stimuli/Morph118.JPG,Stimuli/Morph118.png,Stimuli/BlurLevel5/BlurEditedMorph118,Stimuli/BlurLevel5/BlurEditedMorph118.png,Stimuli/BlurLevel5/NumberedMorphs/BlurEditedMorph118.png,Stimuli/BlurLevel5/OriginalBlur/BlurEditedMorph118.png,Stimuli/BlurMorphTrio/EditedMorph118.png,None,None,,,,,1,0,1,0,0,51,51,117,,,,,,,,,,,,,,,,,,,,,,,13,52,2,170,-2.462019383,0.434120444,118,Experiment,,,,,,,,,76,131,-13,-13,,,,,,,,,,,,,,,1022.261637,1022.76188,1022.261637,1022.76188,82.31292517,1575574490,1575574492,1.949292183,1575574488,1575574490,,,s14,1,34,F,resident,2019_Dec_05_1318,AdjustEyeTrack,3.1.5,59.86573409
135,Stimuli/Morph135.JPG,Stimuli/Morph135.png,Stimuli/BlurLevel5/BlurEditedMorph135,Stimuli/BlurLevel5/BlurEditedMorph135.png,Stimuli/BlurLevel5/NumberedMorphs/BlurEditedMorph135.png,Stimuli/BlurLevel5/OriginalBlur/BlurEditedMorph135.png,Stimuli/BlurMorphTrio/EditedMorph135.png,None,None,,,,,1,0,1,0,0,52,52,134,,,,,,,,,,,,,,,,,,,,,,,64,53,2,320,1.915111108,-1.606969024,135,Experiment,,,,,,,,,81,129,6,6,,,,,,,,,,,,,,,1026.797,1027.294133,1026.797,1027.294133,91.83673469,1575574495,1575574497,1.801776171,1575574493,1575574495,,,s14,1,34,F,resident,2019_Dec_05_1318,AdjustEyeTrack,3.1.5,59.86573409
75,Stimuli/Morph75.JPG,Stimuli/Morph75.png,Stimuli/BlurLevel5/BlurEditedMorph75,Stimuli/BlurLevel5/BlurEditedMorph75.png,Stimuli/BlurLevel5/NumberedMorphs/BlurEditedMorph75.png,Stimuli/BlurLevel5/OriginalBlur/BlurEditedMorph75.png,Stimuli/BlurMorphTrio/EditedMorph75.png,020233right.gif,Stimuli/normal_thumbnails/75right.gif,,,,,1,0,1,0,0,53,53,74,,,,,,,,,,,,,,,,,,,,,,,34,54,2,329,2.142918252,-1.287595187,75,Experiment,,,,,,,,,139,84,-9,-9,,,,,,,,,,,,,,,1031.744308,1032.244554,1031.744308,1032.244554,87.75510204,1575574500,1575574503,3.352991104,1575574497,1575574500,,,s14,1,34,F,resident,2019_Dec_05_1318,AdjustEyeTrack,3.1.5,59.86573409
100,Stimuli/Morph100.JPG,Stimuli/Morph100.png,Stimuli/BlurLevel5/BlurEditedMorph100,Stimuli/BlurLevel5/BlurEditedMorph100.png,Stimuli/BlurLevel5/NumberedMorphs/BlurEditedMorph100.png,Stimuli/BlurLevel5/OriginalBlur/BlurEditedMorph100.png,Stimuli/BlurMorphTrio/EditedMorph100.png,020297right.gif,Stimuli/normal_thumbnails/100right.gif,,,,,1,0,1,0,0,54,54,99,,,,,,,,,,,,,,,,,,,,,,,53,55,2,293,0.976827821,-2.301262134,100,Experiment,,,,,,,,,8,98,2,2,,,,,,,,,,,,,,,1037.932062,1038.429886,1037.932062,1038.429886,97.27891156,1575574506,1575574509,2.583943844,1575574503,1575574506,,,s14,1,34,F,resident,2019_Dec_05_1318,AdjustEyeTrack,3.1.5,59.86573409
124,Stimuli/Morph124.JPG,Stimuli/Morph124.png,Stimuli/BlurLevel5/BlurEditedMorph124,Stimuli/BlurLevel5/BlurEditedMorph124.png,Stimuli/BlurLevel5/NumberedMorphs/BlurEditedMorph124.png,Stimuli/BlurLevel5/OriginalBlur/BlurEditedMorph124.png,Stimuli/BlurMorphTrio/EditedMorph124.png,None,None,,,,,1,0,1,0,0,55,55,123,,,,,,,,,,,,,,,,,,,,,,,88,56,2,78,0.519779227,2.445369002,124,Experiment,,,,,,,,,37,116,8,8,,,,,,,,,,,,,,,1043.482352,1043.976755,1043.482352,1043.976755,89.11564626,1575574512,1575574514,2.466164827,1575574509,1575574512,,,s14,1,34,F,resident,2019_Dec_05_1318,AdjustEyeTrack,3.1.5,59.86573409
77,Stimuli/Morph77.JPG,Stimuli/Morph77.png,Stimuli/BlurLevel5/BlurEditedMorph77,Stimuli/BlurLevel5/BlurEditedMorph77.png,Stimuli/BlurLevel5/NumberedMorphs/BlurEditedMorph77.png,Stimuli/BlurLevel5/OriginalBlur/BlurEditedMorph77.png,Stimuli/BlurMorphTrio/EditedMorph77.png,020235right.gif,Stimuli/normal_thumbnails/77right.gif,,,,,1,0,1,0,0,56,56,76,,,,,,,,,,,,,,,,,,,,,,,37,57,2,60,1.25,2.165063509,77,Experiment,,,,,,,,,115,92,-15,-15,,,,,,,,,,,,,,,1048.880305,1049.377611,1048.880305,1049.377611,79.59183673,1575574517,1575574520,2.848811865,1575574514,1575574517,,,s14,1,34,F,resident,2019_Dec_05_1318,AdjustEyeTrack,3.1.5,59.86573409
7,Stimuli/Morph7.JPG,Stimuli/Morph7.png,Stimuli/BlurLevel5/BlurEditedMorph7,Stimuli/BlurLevel5/BlurEditedMorph7.png,Stimuli/BlurLevel5/NumberedMorphs/BlurEditedMorph7.png,Stimuli/BlurLevel5/OriginalBlur/BlurEditedMorph7.png,Stimuli/BlurMorphTrio/EditedMorph7.png,010013right.gif,Stimuli/normal_thumbnails/7right.gif,,,,,1,0,1,0,0,57,57,6,,,,,,,,,,,,,,,,,,,,,,,44,58,2,108,-0.772542486,2.377641291,7,Experiment,,,,,,,,,48,141,-134,13,,,,,,,,,,,,,,,1054.693692,1055.194016,1054.693692,1055.194016,82.31292517,1575574523,1575574525,2.571147919,1575574520,1575574523,,,s14,1,34,F,resident,2019_Dec_05_1318,AdjustEyeTrack,3.1.5,59.86573409
122,Stimuli/Morph122.JPG,Stimuli/Morph122.png,Stimuli/BlurLevel5/BlurEditedMorph122,Stimuli/BlurLevel5/BlurEditedMorph122.png,Stimuli/BlurLevel5/NumberedMorphs/BlurEditedMorph122.png,Stimuli/BlurLevel5/OriginalBlur/BlurEditedMorph122.png,Stimuli/BlurMorphTrio/EditedMorph122.png,None,None,,,,,1,0,1,0,0,58,58,121,,,,,,,,,,,,,,,,,,,,,,,32,59,2,123,-1.361597588,2.09667642,122,Experiment,,,,,,,,,140,116,6,6,,,,,,,,,,,,,,,1060.344938,1060.860258,1060.344938,1060.860258,91.83673469,1575574529,1575574532,3.314797163,1575574526,1575574529,,,s14,1,34,F,resident,2019_Dec_05_1318,AdjustEyeTrack,3.1.5,59.86573409
119,Stimuli/Morph119.JPG,Stimuli/Morph119.png,Stimuli/BlurLevel5/BlurEditedMorph119,Stimuli/BlurLevel5/BlurEditedMorph119.png,Stimuli/BlurLevel5/NumberedMorphs/BlurEditedMorph119.png,Stimuli/BlurLevel5/OriginalBlur/BlurEditedMorph119.png,Stimuli/BlurMorphTrio/EditedMorph119.png,None,None,,,,,1,0,1,0,0,59,59,118,,,,,,,,,,,,,,,,,,,,,,,84,60,2,91,-0.043631016,2.499619238,119,Experiment,,,,,,,,,121,121,-2,-2,,,,,,,,,,,,,,,1066.343785,1066.84344,1066.343785,1066.84344,97.27891156,1575574534,1575574535,0.549611092,1575574532,1575574534,,,s14,1,34,F,resident,2019_Dec_05_1318,AdjustEyeTrack,3.1.5,59.86573409
