stimulusID,stimulus_JPG,stimulusPath,stimulusPath2,stimulusPath3,stimulusPath4,stimulusPath5,stimulusPath6,xRayOriginal,xRayPath,Training.thisRepN,Training.thisTrialN,Training.thisN,Training.thisIndex,Blocks.thisRepN,Blocks.thisTrialN,Blocks.thisN,Blocks.thisIndex,Trials.thisRepN,Trials.thisTrialN,Trials.thisN,Trials.thisIndex,text_2.started,text_2.stopped,image.started,image.stopped,image_2.started,image_2.stopped,image_3.started,image_3.stopped,image_4.started,image_4.stopped,image_6.started,image_6.stopped,image_7.started,image_7.stopped,image_8.started,image_8.stopped,image_9.started,image_9.stopped,image_10.started,image_10.stopped,image_12.started,image_12.stopped,xrayID,trialNumber,blockNumber,stimLocationDeg,stimXCoord,stimYCoord,stimulusID,blockType,trainingXray.started,trainingXray.stopped,trainingTumors.started,trainingTumors.stopped,trainingScore%,startTrainingRespTime,endTrainingRespTime,trainingRT,morphTrack,morphID,errorRaw,errorCorrected,startTrainingStimTime,endTrainingStimTime,key_resp_3.keys,key_resp_3.rt,text.started,text.stopped,text_3.started,text_3.stopped,text_4.started,text_4.stopped,key_resp_5.keys,key_resp_5.rt,key_resp_5.started,key_resp_5.stopped,xray1.started,xray1.stopped,tumors.started,tumors.stopped,trialCorrect%,startRespTime,endRespTime,RT,startStimTime,endStimTime,key_resp.keys,key_resp.rt,participant,session,age,gender,status,date,expName,psychopyVersion,frameRate
76,Stimuli/Morph76.JPG,Stimuli/Morph76.png,Stimuli/BlurLevel5/BlurEditedMorph76,Stimuli/BlurLevel5/BlurEditedMorph76.png,Stimuli/BlurLevel5/NumberedMorphs/BlurEditedMorph76.png,Stimuli/BlurLevel5/OriginalBlur/BlurEditedMorph76.png,Stimuli/BlurMorphTrio/EditedMorph76.png,020234right.gif,Stimuli/normal_thumbnails/76right.gif,0,0,0,75,,,,,,,,,49.95311285,None,49.95311285,None,49.95311285,None,49.95311285,None,49.95311285,None,49.95311285,None,49.95311285,None,49.95311285,None,49.95311285,None,49.95311285,None,49.95311285,None,79,-100,-100,23,2.301262134,0.976827821,76,training,79.98718505,80.4860861,79.98718505,80.4860861,46.93877551,1575399651,1575399655,3.932282209,109,115,-39,-39,1575399649,1575399651,space,3.307911343,,,,,,,,,,,,,,,,,,,,,,,S2,1,27,f,resident,2019_Dec_03_1300,AdjustEyeTrack,3.1.5,59.50416181
70,Stimuli/Morph70.JPG,Stimuli/Morph70.png,Stimuli/BlurLevel5/BlurEditedMorph70,Stimuli/BlurLevel5/BlurEditedMorph70.png,Stimuli/BlurLevel5/NumberedMorphs/BlurEditedMorph70.png,Stimuli/BlurLevel5/OriginalBlur/BlurEditedMorph70.png,Stimuli/BlurMorphTrio/EditedMorph70.png,020221right.gif,Stimuli/normal_thumbnails/70right.gif,0,1,1,69,,,,,,,,,,,,,,,,,,,,,,,,,,,,,,,38,-100,-100,27,2.22751631,1.134976249,70,training,89.54524473,90.05210928,89.54524473,90.05210928,82.31292517,1575399661,1575399664,3.033360004,72,83,-13,-13,1575399659,1575399661,space,6.679373463,,,,,,,,,,,,,,,,,,,,,,,S2,1,27,f,resident,2019_Dec_03_1300,AdjustEyeTrack,3.1.5,59.50416181
141,Stimuli/Morph141.JPG,Stimuli/Morph141.png,Stimuli/BlurLevel5/BlurEditedMorph141,Stimuli/BlurLevel5/BlurEditedMorph141.png,Stimuli/BlurLevel5/NumberedMorphs/BlurEditedMorph141.png,Stimuli/BlurLevel5/OriginalBlur/BlurEditedMorph141.png,Stimuli/BlurMorphTrio/EditedMorph141.png,None,None,0,2,2,140,,,,,,,,,,,,,,,,,,,,,,,,,,,,,,,27,-100,-100,104,-0.604804739,2.425739316,141,training,101.6874223,102.185351,101.6874223,102.185351,90.47619048,1575399673,1575399680,6.33351779,104,134,7,7,1575399671,1575399673,space,4.293519393,,,,,,,,,,,,,,,,,,,,,,,S2,1,27,f,resident,2019_Dec_03_1300,AdjustEyeTrack,3.1.5,59.50416181
1,Stimuli/Morph1.JPG,Stimuli/Morph1.png,Stimuli/BlurLevel5/BlurEditedMorph1,Stimuli/BlurLevel5/BlurEditedMorph1.png,Stimuli/BlurLevel5/NumberedMorphs/BlurEditedMorph1.png,Stimuli/BlurLevel5/OriginalBlur/BlurEditedMorph1.png,Stimuli/BlurMorphTrio/EditedMorph1.png,010003right.gif,Stimuli/normal_thumbnails/1right.gif,0,3,3,0,,,,,,,,,,,,,,,,,,,,,,,,,,,,,,,49,-100,-100,148,-2.12012024,1.324798161,1,training,114.7453856,115.2353183,114.7453856,115.2353183,94.55782313,1575399686,1575399689,3.100926161,24,5,-4,-4,1575399684,1575399686,space,1.163936178,,,,,,,,,,,,,,,,,,,,,,,S2,1,27,f,resident,2019_Dec_03_1300,AdjustEyeTrack,3.1.5,59.50416181
2,Stimuli/Morph2.JPG,Stimuli/Morph2.png,Stimuli/BlurLevel5/BlurEditedMorph2,Stimuli/BlurLevel5/BlurEditedMorph2.png,Stimuli/BlurLevel5/NumberedMorphs/BlurEditedMorph2.png,Stimuli/BlurLevel5/OriginalBlur/BlurEditedMorph2.png,Stimuli/BlurMorphTrio/EditedMorph2.png,010006right.gif,Stimuli/normal_thumbnails/2right.gif,0,4,4,1,,,,,,,,,,,,,,,,,,,,,,,,,,,,,,,63,-100,-100,128,-1.539153688,1.970026884,2,training,121.4360173,121.9355224,121.4360173,121.9355224,98.63945578,1575399693,1575399696,2.903226137,126,1,1,1,1575399691,1575399693,space,7.165605596,,,,,,,,,,,,,,,,,,,,,,,S2,1,27,f,resident,2019_Dec_03_1300,AdjustEyeTrack,3.1.5,59.50416181
119,Stimuli/Morph119.JPG,Stimuli/Morph119.png,Stimuli/BlurLevel5/BlurEditedMorph119,Stimuli/BlurLevel5/BlurEditedMorph119.png,Stimuli/BlurLevel5/NumberedMorphs/BlurEditedMorph119.png,Stimuli/BlurLevel5/OriginalBlur/BlurEditedMorph119.png,Stimuli/BlurMorphTrio/EditedMorph119.png,None,None,0,5,5,118,,,,,,,,,,,,,,,,,,,,,,,,,,,,,,,14,-100,-100,330,2.165063509,-1.25,119,training,134.0028837,134.5015614,134.0028837,134.5015614,90.47619048,1575399705,1575399710,4.750637054,112,112,7,7,1575399703,1575399705,space,1.150817649,,,,,,,,,,,,,,,,,,,,,,,S2,1,27,f,resident,2019_Dec_03_1300,AdjustEyeTrack,3.1.5,59.50416181
140,Stimuli/Morph140.JPG,Stimuli/Morph140.png,Stimuli/BlurLevel5/BlurEditedMorph140,Stimuli/BlurLevel5/BlurEditedMorph140.png,Stimuli/BlurLevel5/NumberedMorphs/BlurEditedMorph140.png,Stimuli/BlurLevel5/OriginalBlur/BlurEditedMorph140.png,Stimuli/BlurMorphTrio/EditedMorph140.png,None,None,0,6,6,139,,,,,,,,,,,,,,,,,,,,,,,,,,,,,,,79,-100,-100,328,2.12012024,-1.324798161,140,training,142.1853651,142.6867937,142.1853651,142.6867937,72.78911565,1575399714,1575399716,2.683923244,97,120,20,20,1575399711,1575399714,space,4.106877585,,,,,,,,,,,,,,,,,,,,,,,S2,1,27,f,resident,2019_Dec_03_1300,AdjustEyeTrack,3.1.5,59.50416181
124,Stimuli/Morph124.JPG,Stimuli/Morph124.png,Stimuli/BlurLevel5/BlurEditedMorph124,Stimuli/BlurLevel5/BlurEditedMorph124.png,Stimuli/BlurLevel5/NumberedMorphs/BlurEditedMorph124.png,Stimuli/BlurLevel5/OriginalBlur/BlurEditedMorph124.png,Stimuli/BlurMorphTrio/EditedMorph124.png,None,None,0,7,7,123,,,,,,,,,,,,,,,,,,,,,,,,,,,,,,,49,-100,-100,320,1.915111108,-1.606969024,124,training,151.253705,151.7512713,151.253705,151.7512713,75.51020408,1575399723,1575399724,1.085837126,106,106,18,18,1575399721,1575399723,space,1.154023956,,,,,,,,,,,,,,,,,,,,,,,S2,1,27,f,resident,2019_Dec_03_1300,AdjustEyeTrack,3.1.5,59.50416181
82,Stimuli/Morph82.JPG,Stimuli/Morph82.png,Stimuli/BlurLevel5/BlurEditedMorph82,Stimuli/BlurLevel5/BlurEditedMorph82.png,Stimuli/BlurLevel5/NumberedMorphs/BlurEditedMorph82.png,Stimuli/BlurLevel5/OriginalBlur/BlurEditedMorph82.png,Stimuli/BlurMorphTrio/EditedMorph82.png,020247right.gif,Stimuli/normal_thumbnails/82right.gif,0,8,8,81,,,,,,,,,,,,,,,,,,,,,,,,,,,,,,,57,-100,-100,233,-1.504537558,-1.996588775,82,training,156.1700043,156.6684208,156.1700043,156.6684208,97.27891156,1575399728,1575399730,2.317219734,125,84,-2,-2,1575399725,1575399728,space,0.822558647,,,,,,,,,,,,,,,,,,,,,,,S2,1,27,f,resident,2019_Dec_03_1300,AdjustEyeTrack,3.1.5,59.50416181
79,Stimuli/Morph79.JPG,Stimuli/Morph79.png,Stimuli/BlurLevel5/BlurEditedMorph79,Stimuli/BlurLevel5/BlurEditedMorph79.png,Stimuli/BlurLevel5/NumberedMorphs/BlurEditedMorph79.png,Stimuli/BlurLevel5/OriginalBlur/BlurEditedMorph79.png,Stimuli/BlurMorphTrio/EditedMorph79.png,020239right.gif,Stimuli/normal_thumbnails/79right.gif,0,9,9,78,,,,,,,,,,,,,,,,,,,,,,,,,,,,,,,68,-100,-100,165,-2.414814566,0.647047613,79,training,161.9236593,162.4180383,161.9236593,162.4180383,56.46258503,1575399733,1575399737,3.850447178,13,111,-32,-32,1575399731,1575399733,space,0.656070435,,,,,,,,,,,,,,,,,,,,,,,S2,1,27,f,resident,2019_Dec_03_1300,AdjustEyeTrack,3.1.5,59.50416181
,,,,,,,,,,,,,,,,,,,,,,,,,,,,,,,,,,,,,,,,,,,,,-100,-100,,,,,training,,,,,,,,,,,,,,,,,168.0854932,None,168.0854932,None,168.0854932,None,space,34.26179534,168.0854932,None,,,,,,,,,,,,,S2,1,27,f,resident,2019_Dec_03_1300,AdjustEyeTrack,3.1.5,59.50416181
97,Stimuli/Morph97.JPG,Stimuli/Morph97.png,Stimuli/BlurLevel5/BlurEditedMorph97,Stimuli/BlurLevel5/BlurEditedMorph97.png,Stimuli/BlurLevel5/NumberedMorphs/BlurEditedMorph97.png,Stimuli/BlurLevel5/OriginalBlur/BlurEditedMorph97.png,Stimuli/BlurMorphTrio/EditedMorph97.png,020294right.gif,Stimuli/normal_thumbnails/97right.gif,,,,,0,0,0,0,0,0,0,96,,,,,,,,,,,,,,,,,,,,,,,23,1,1,3,2.496573837,0.130839891,97,Experiment,,,,,,,,,64,103,-6,-6,,,,,,,,,,,,,,,203.4710415,203.9674166,203.4710415,203.9674166,91.83673469,1575399775,1575399779,4.406423092,1575399773,1575399775,,,S2,1,27,f,resident,2019_Dec_03_1300,AdjustEyeTrack,3.1.5,59.50416181
78,Stimuli/Morph78.JPG,Stimuli/Morph78.png,Stimuli/BlurLevel5/BlurEditedMorph78,Stimuli/BlurLevel5/BlurEditedMorph78.png,Stimuli/BlurLevel5/NumberedMorphs/BlurEditedMorph78.png,Stimuli/BlurLevel5/OriginalBlur/BlurEditedMorph78.png,Stimuli/BlurMorphTrio/EditedMorph78.png,020238right.gif,Stimuli/normal_thumbnails/78right.gif,,,,,0,0,0,0,0,1,1,77,,,,,,,,,,,,,,,,,,,,,,,1,2,1,111,-0.895919874,2.333951066,78,Experiment,,,,,,,,,53,76,2,2,,,,,,,,,,,,,,,209.834547,210.3337013,209.834547,210.3337013,97.27891156,1575399781,1575399786,4.451461315,1575399780,1575399781,,,S2,1,27,f,resident,2019_Dec_03_1300,AdjustEyeTrack,3.1.5,59.50416181
80,Stimuli/Morph80.JPG,Stimuli/Morph80.png,Stimuli/BlurLevel5/BlurEditedMorph80,Stimuli/BlurLevel5/BlurEditedMorph80.png,Stimuli/BlurLevel5/NumberedMorphs/BlurEditedMorph80.png,Stimuli/BlurLevel5/OriginalBlur/BlurEditedMorph80.png,Stimuli/BlurMorphTrio/EditedMorph80.png,020240right.gif,Stimuli/normal_thumbnails/80right.gif,,,,,0,0,0,0,0,2,2,79,,,,,,,,,,,,,,,,,,,,,,,39,3,1,170,-2.462019383,0.434120444,80,Experiment,,,,,,,,,45,89,-9,-9,,,,,,,,,,,,,,,217.2302836,217.7334085,217.2302836,217.7334085,87.75510204,1575399789,1575399793,4.699782133,1575399786,1575399789,,,S2,1,27,f,resident,2019_Dec_03_1300,AdjustEyeTrack,3.1.5,59.50416181
43,Stimuli/Morph43.JPG,Stimuli/Morph43.png,Stimuli/BlurLevel5/BlurEditedMorph43,Stimuli/BlurLevel5/BlurEditedMorph43.png,Stimuli/BlurLevel5/NumberedMorphs/BlurEditedMorph43.png,Stimuli/BlurLevel5/OriginalBlur/BlurEditedMorph43.png,Stimuli/BlurMorphTrio/EditedMorph43.png,010124right.gif,Stimuli/normal_thumbnails/43right.gif,,,,,0,0,0,0,0,3,3,42,,,,,,,,,,,,,,,,,,,,,,,64,4,1,51,1.573300978,1.942864904,43,Experiment,,,,,,,,,116,51,-8,-8,,,,,,,,,,,,,,,224.639498,225.1338364,224.639498,225.1338364,89.11564626,1575399796,1575399798,2.265265942,1575399794,1575399796,,,S2,1,27,f,resident,2019_Dec_03_1300,AdjustEyeTrack,3.1.5,59.50416181
82,Stimuli/Morph82.JPG,Stimuli/Morph82.png,Stimuli/BlurLevel5/BlurEditedMorph82,Stimuli/BlurLevel5/BlurEditedMorph82.png,Stimuli/BlurLevel5/NumberedMorphs/BlurEditedMorph82.png,Stimuli/BlurLevel5/OriginalBlur/BlurEditedMorph82.png,Stimuli/BlurMorphTrio/EditedMorph82.png,020247right.gif,Stimuli/normal_thumbnails/82right.gif,,,,,0,0,0,0,0,4,4,81,,,,,,,,,,,,,,,,,,,,,,,51,5,1,22,2.317959636,0.936516484,82,Experiment,,,,,,,,,28,83,-1,-1,,,,,,,,,,,,,,,229.8413845,230.3342177,229.8413845,230.3342177,98.63945578,1575399801,1575399805,3.583408117,1575399799,1575399801,,,S2,1,27,f,resident,2019_Dec_03_1300,AdjustEyeTrack,3.1.5,59.50416181
7,Stimuli/Morph7.JPG,Stimuli/Morph7.png,Stimuli/BlurLevel5/BlurEditedMorph7,Stimuli/BlurLevel5/BlurEditedMorph7.png,Stimuli/BlurLevel5/NumberedMorphs/BlurEditedMorph7.png,Stimuli/BlurLevel5/OriginalBlur/BlurEditedMorph7.png,Stimuli/BlurMorphTrio/EditedMorph7.png,010013right.gif,Stimuli/normal_thumbnails/7right.gif,,,,,0,0,0,0,0,5,5,6,,,,,,,,,,,,,,,,,,,,,,,62,6,1,332,2.207368982,-1.173678907,7,Experiment,,,,,,,,,89,74,-67,-67,,,,,,,,,,,,,,,236.3718378,236.8718517,236.3718378,236.8718517,8.843537415,1575399808,1575399815,6.919286013,1575399805,1575399808,,,S2,1,27,f,resident,2019_Dec_03_1300,AdjustEyeTrack,3.1.5,59.50416181
102,Stimuli/Morph102.JPG,Stimuli/Morph102.png,Stimuli/BlurLevel5/BlurEditedMorph102,Stimuli/BlurLevel5/BlurEditedMorph102.png,Stimuli/BlurLevel5/NumberedMorphs/BlurEditedMorph102.png,Stimuli/BlurLevel5/OriginalBlur/BlurEditedMorph102.png,Stimuli/BlurMorphTrio/EditedMorph102.png,None,None,,,,,0,0,0,0,0,6,6,101,,,,,,,,,,,,,,,,,,,,,,,3,7,1,213,-2.09667642,-1.361597588,102,Experiment,,,,,,,,,88,87,15,15,,,,,,,,,,,,,,,245.8505643,246.3511351,245.8505643,246.3511351,79.59183673,1575399817,1575399820,2.266905785,1575399815,1575399817,,,S2,1,27,f,resident,2019_Dec_03_1300,AdjustEyeTrack,3.1.5,59.50416181
12,Stimuli/Morph12.JPG,Stimuli/Morph12.png,Stimuli/BlurLevel5/BlurEditedMorph12,Stimuli/BlurLevel5/BlurEditedMorph12.png,Stimuli/BlurLevel5/NumberedMorphs/BlurEditedMorph12.png,Stimuli/BlurLevel5/OriginalBlur/BlurEditedMorph12.png,Stimuli/BlurMorphTrio/EditedMorph12.png,010026right.gif,Stimuli/normal_thumbnails/12right.gif,,,,,0,0,0,0,0,7,7,11,,,,,,,,,,,,,,,,,,,,,,,10,8,1,152,-2.207368982,1.173678907,12,Experiment,,,,,,,,,33,25,-13,-13,,,,,,,,,,,,,,,250.9094173,251.3996537,250.9094173,251.3996537,82.31292517,1575399822,1575399828,5.78343606,1575399820,1575399822,,,S2,1,27,f,resident,2019_Dec_03_1300,AdjustEyeTrack,3.1.5,59.50416181
2,Stimuli/Morph2.JPG,Stimuli/Morph2.png,Stimuli/BlurLevel5/BlurEditedMorph2,Stimuli/BlurLevel5/BlurEditedMorph2.png,Stimuli/BlurLevel5/NumberedMorphs/BlurEditedMorph2.png,Stimuli/BlurLevel5/OriginalBlur/BlurEditedMorph2.png,Stimuli/BlurMorphTrio/EditedMorph2.png,010006right.gif,Stimuli/normal_thumbnails/2right.gif,,,,,0,0,0,0,0,8,8,1,,,,,,,,,,,,,,,,,,,,,,,28,9,1,270,-4.59E-16,-2.5,2,Experiment,,,,,,,,,144,2,0,0,,,,,,,,,,,,,,,259.6504678,260.1505737,259.6504678,260.1505737,100,1575399831,1575399836,4.452588081,1575399828,1575399831,,,S2,1,27,f,resident,2019_Dec_03_1300,AdjustEyeTrack,3.1.5,59.50416181
104,Stimuli/Morph104.JPG,Stimuli/Morph104.png,Stimuli/BlurLevel5/BlurEditedMorph104,Stimuli/BlurLevel5/BlurEditedMorph104.png,Stimuli/BlurLevel5/NumberedMorphs/BlurEditedMorph104.png,Stimuli/BlurLevel5/OriginalBlur/BlurEditedMorph104.png,Stimuli/BlurMorphTrio/EditedMorph104.png,None,None,,,,,0,0,0,0,0,9,9,103,,,,,,,,,,,,,,,,,,,,,,,17,10,1,277,0.304673359,-2.481365379,104,Experiment,,,,,,,,,15,87,17,17,,,,,,,,,,,,,,,267.2049758,267.70028,267.2049758,267.70028,76.8707483,1575399839,1575399842,3.100439787,1575399836,1575399839,,,S2,1,27,f,resident,2019_Dec_03_1300,AdjustEyeTrack,3.1.5,59.50416181
45,Stimuli/Morph45.JPG,Stimuli/Morph45.png,Stimuli/BlurLevel5/BlurEditedMorph45,Stimuli/BlurLevel5/BlurEditedMorph45.png,Stimuli/BlurLevel5/NumberedMorphs/BlurEditedMorph45.png,Stimuli/BlurLevel5/OriginalBlur/BlurEditedMorph45.png,Stimuli/BlurMorphTrio/EditedMorph45.png,010127right.gif,Stimuli/normal_thumbnails/45right.gif,,,,,0,0,0,0,0,10,10,44,,,,,,,,,,,,,,,,,,,,,,,43,11,1,32,2.12012024,1.324798161,45,Experiment,,,,,,,,,82,53,-8,-8,,,,,,,,,,,,,,,273.2169063,273.717206,273.2169063,273.717206,89.11564626,1575399845,1575399851,6.449433804,1575399842,1575399845,,,S2,1,27,f,resident,2019_Dec_03_1300,AdjustEyeTrack,3.1.5,59.50416181
58,Stimuli/Morph58.JPG,Stimuli/Morph58.png,Stimuli/BlurLevel5/BlurEditedMorph58,Stimuli/BlurLevel5/BlurEditedMorph58.png,Stimuli/BlurLevel5/NumberedMorphs/BlurEditedMorph58.png,Stimuli/BlurLevel5/OriginalBlur/BlurEditedMorph58.png,Stimuli/BlurMorphTrio/EditedMorph58.png,010159right.gif,Stimuli/normal_thumbnails/58right.gif,,,,,0,0,0,0,0,11,11,57,,,,,,,,,,,,,,,,,,,,,,,30,12,1,134,-1.736645926,1.798349501,58,Experiment,,,,,,,,,23,47,11,11,,,,,,,,,,,,,,,282.3169724,282.8330163,282.3169724,282.8330163,85.03401361,1575399854,1575399856,2.401145697,1575399851,1575399854,,,S2,1,27,f,resident,2019_Dec_03_1300,AdjustEyeTrack,3.1.5,59.50416181
46,Stimuli/Morph46.JPG,Stimuli/Morph46.png,Stimuli/BlurLevel5/BlurEditedMorph46,Stimuli/BlurLevel5/BlurEditedMorph46.png,Stimuli/BlurLevel5/NumberedMorphs/BlurEditedMorph46.png,Stimuli/BlurLevel5/OriginalBlur/BlurEditedMorph46.png,Stimuli/BlurMorphTrio/EditedMorph46.png,010128right.gif,Stimuli/normal_thumbnails/46right.gif,,,,,0,0,0,0,0,12,12,45,,,,,,,,,,,,,,,,,,,,,,,46,13,1,358,2.498477068,-0.087248742,46,Experiment,,,,,,,,,61,61,-15,-15,,,,,,,,,,,,,,,287.3191236,287.899918,287.3191236,287.899918,79.59183673,1575399859,1575399860,1.016529083,1575399856,1575399859,,,S2,1,27,f,resident,2019_Dec_03_1300,AdjustEyeTrack,3.1.5,59.50416181
87,Stimuli/Morph87.JPG,Stimuli/Morph87.png,Stimuli/BlurLevel5/BlurEditedMorph87,Stimuli/BlurLevel5/BlurEditedMorph87.png,Stimuli/BlurLevel5/NumberedMorphs/BlurEditedMorph87.png,Stimuli/BlurLevel5/OriginalBlur/BlurEditedMorph87.png,Stimuli/BlurMorphTrio/EditedMorph87.png,020270right.gif,Stimuli/normal_thumbnails/87right.gif,,,,,0,0,0,0,0,13,13,86,,,,,,,,,,,,,,,,,,,,,,,14,14,1,134,-1.736645926,1.798349501,87,Experiment,,,,,,,,,77,77,10,10,,,,,,,,,,,,,,,291.3768309,291.8685167,291.3768309,291.8685167,86.39455782,1575399863,1575399864,1.057471991,1575399860,1575399863,,,S2,1,27,f,resident,2019_Dec_03_1300,AdjustEyeTrack,3.1.5,59.50416181
124,Stimuli/Morph124.JPG,Stimuli/Morph124.png,Stimuli/BlurLevel5/BlurEditedMorph124,Stimuli/BlurLevel5/BlurEditedMorph124.png,Stimuli/BlurLevel5/NumberedMorphs/BlurEditedMorph124.png,Stimuli/BlurLevel5/OriginalBlur/BlurEditedMorph124.png,Stimuli/BlurMorphTrio/EditedMorph124.png,None,None,,,,,0,0,0,0,0,14,14,123,,,,,,,,,,,,,,,,,,,,,,,98,15,1,192,-2.445369002,-0.519779227,124,Experiment,,,,,,,,,69,109,15,15,,,,,,,,,,,,,,,295.1701061,295.6664014,295.1701061,295.6664014,79.59183673,1575399867,1575399871,3.866366148,1575399864,1575399867,,,S2,1,27,f,resident,2019_Dec_03_1300,AdjustEyeTrack,3.1.5,59.50416181
141,Stimuli/Morph141.JPG,Stimuli/Morph141.png,Stimuli/BlurLevel5/BlurEditedMorph141,Stimuli/BlurLevel5/BlurEditedMorph141.png,Stimuli/BlurLevel5/NumberedMorphs/BlurEditedMorph141.png,Stimuli/BlurLevel5/OriginalBlur/BlurEditedMorph141.png,Stimuli/BlurMorphTrio/EditedMorph141.png,None,None,,,,,0,0,0,0,0,15,15,140,,,,,,,,,,,,,,,,,,,,,,,18,16,1,124,-1.397982259,2.072593931,141,Experiment,,,,,,,,,90,116,25,25,,,,,,,,,,,,,,,301.4996902,301.9993762,301.4996902,301.9993762,65.98639456,1575399873,1575399878,4.732681274,1575399871,1575399873,,,S2,1,27,f,resident,2019_Dec_03_1300,AdjustEyeTrack,3.1.5,59.50416181
40,Stimuli/Morph40.JPG,Stimuli/Morph40.png,Stimuli/BlurLevel5/BlurEditedMorph40,Stimuli/BlurLevel5/BlurEditedMorph40.png,Stimuli/BlurLevel5/NumberedMorphs/BlurEditedMorph40.png,Stimuli/BlurLevel5/OriginalBlur/BlurEditedMorph40.png,Stimuli/BlurMorphTrio/EditedMorph40.png,010110right.gif,Stimuli/normal_thumbnails/40right.gif,,,,,0,0,0,0,0,16,16,39,,,,,,,,,,,,,,,,,,,,,,,88,17,1,21,2.333951066,0.895919874,40,Experiment,,,,,,,,,64,49,-9,-9,,,,,,,,,,,,,,,308.7439266,309.2497742,308.7439266,309.2497742,87.75510204,1575399880,1575399882,2.233528137,1575399878,1575399880,,,S2,1,27,f,resident,2019_Dec_03_1300,AdjustEyeTrack,3.1.5,59.50416181
86,Stimuli/Morph86.JPG,Stimuli/Morph86.png,Stimuli/BlurLevel5/BlurEditedMorph86,Stimuli/BlurLevel5/BlurEditedMorph86.png,Stimuli/BlurLevel5/NumberedMorphs/BlurEditedMorph86.png,Stimuli/BlurLevel5/OriginalBlur/BlurEditedMorph86.png,Stimuli/BlurMorphTrio/EditedMorph86.png,020266right.gif,Stimuli/normal_thumbnails/86right.gif,,,,,0,0,0,0,0,17,17,85,,,,,,,,,,,,,,,,,,,,,,,94,18,1,115,-1.056545654,2.265769468,86,Experiment,,,,,,,,,94,85,1,1,,,,,,,,,,,,,,,313.9686674,314.468042,313.9686674,314.468042,98.63945578,1575399885,1575399887,2.031805992,1575399883,1575399885,,,S2,1,27,f,resident,2019_Dec_03_1300,AdjustEyeTrack,3.1.5,59.50416181
53,Stimuli/Morph53.JPG,Stimuli/Morph53.png,Stimuli/BlurLevel5/BlurEditedMorph53,Stimuli/BlurLevel5/BlurEditedMorph53.png,Stimuli/BlurLevel5/NumberedMorphs/BlurEditedMorph53.png,Stimuli/BlurLevel5/OriginalBlur/BlurEditedMorph53.png,Stimuli/BlurMorphTrio/EditedMorph53.png,010149right.gif,Stimuli/normal_thumbnails/53right.gif,,,,,0,0,0,0,0,18,18,52,,,,,,,,,,,,,,,,,,,,,,,11,19,1,27,2.22751631,1.134976249,53,Experiment,,,,,,,,,64,54,-1,-1,,,,,,,,,,,,,,,319.2969995,319.7994475,319.2969995,319.7994475,98.63945578,1575399891,1575399893,2.116245985,1575399888,1575399891,,,S2,1,27,f,resident,2019_Dec_03_1300,AdjustEyeTrack,3.1.5,59.50416181
15,Stimuli/Morph15.JPG,Stimuli/Morph15.png,Stimuli/BlurLevel5/BlurEditedMorph15,Stimuli/BlurLevel5/BlurEditedMorph15.png,Stimuli/BlurLevel5/NumberedMorphs/BlurEditedMorph15.png,Stimuli/BlurLevel5/OriginalBlur/BlurEditedMorph15.png,Stimuli/BlurMorphTrio/EditedMorph15.png,010031right.gif,Stimuli/normal_thumbnails/15right.gif,,,,,0,0,0,0,0,19,19,14,,,,,,,,,,,,,,,,,,,,,,,96,20,1,350,2.462019383,-0.434120444,15,Experiment,,,,,,,,,25,15,0,0,,,,,,,,,,,,,,,324.9018936,325.4012732,324.9018936,325.4012732,100,1575399896,1575399899,3.050184965,1575399893,1575399896,,,S2,1,27,f,resident,2019_Dec_03_1300,AdjustEyeTrack,3.1.5,59.50416181
85,Stimuli/Morph85.JPG,Stimuli/Morph85.png,Stimuli/BlurLevel5/BlurEditedMorph85,Stimuli/BlurLevel5/BlurEditedMorph85.png,Stimuli/BlurLevel5/NumberedMorphs/BlurEditedMorph85.png,Stimuli/BlurLevel5/OriginalBlur/BlurEditedMorph85.png,Stimuli/BlurMorphTrio/EditedMorph85.png,020264right.gif,Stimuli/normal_thumbnails/85right.gif,,,,,0,0,0,0,0,20,20,84,,,,,,,,,,,,,,,,,,,,,,,67,21,1,88,0.087248742,2.498477068,85,Experiment,,,,,,,,,48,94,-9,-9,,,,,,,,,,,,,,,330.7012097,331.1992044,330.7012097,331.1992044,87.75510204,1575399902,1575399905,3.133235931,1575399900,1575399902,,,S2,1,27,f,resident,2019_Dec_03_1300,AdjustEyeTrack,3.1.5,59.50416181
42,Stimuli/Morph42.JPG,Stimuli/Morph42.png,Stimuli/BlurLevel5/BlurEditedMorph42,Stimuli/BlurLevel5/BlurEditedMorph42.png,Stimuli/BlurLevel5/NumberedMorphs/BlurEditedMorph42.png,Stimuli/BlurLevel5/OriginalBlur/BlurEditedMorph42.png,Stimuli/BlurMorphTrio/EditedMorph42.png,010121right.gif,Stimuli/normal_thumbnails/42right.gif,,,,,0,0,0,0,0,21,21,41,,,,,,,,,,,,,,,,,,,,,,,85,22,1,288,0.772542486,-2.377641291,42,Experiment,,,,,,,,,6,62,-20,-20,,,,,,,,,,,,,,,336.6325844,337.132536,336.6325844,337.132536,72.78911565,1575399908,1575399911,2.717365026,1575399906,1575399908,,,S2,1,27,f,resident,2019_Dec_03_1300,AdjustEyeTrack,3.1.5,59.50416181
37,Stimuli/Morph37.JPG,Stimuli/Morph37.png,Stimuli/BlurLevel5/BlurEditedMorph37,Stimuli/BlurLevel5/BlurEditedMorph37.png,Stimuli/BlurLevel5/NumberedMorphs/BlurEditedMorph37.png,Stimuli/BlurLevel5/OriginalBlur/BlurEditedMorph37.png,Stimuli/BlurMorphTrio/EditedMorph37.png,010097right.gif,Stimuli/normal_thumbnails/37right.gif,,,,,0,0,0,0,0,22,22,36,,,,,,,,,,,,,,,,,,,,,,,61,23,1,51,1.573300978,1.942864904,37,Experiment,,,,,,,,,93,50,-13,-13,,,,,,,,,,,,,,,342.3523529,342.849143,342.3523529,342.849143,82.31292517,1575399914,1575399918,4.116587877,1575399911,1575399914,,,S2,1,27,f,resident,2019_Dec_03_1300,AdjustEyeTrack,3.1.5,59.50416181
130,Stimuli/Morph130.JPG,Stimuli/Morph130.png,Stimuli/BlurLevel5/BlurEditedMorph130,Stimuli/BlurLevel5/BlurEditedMorph130.png,Stimuli/BlurLevel5/NumberedMorphs/BlurEditedMorph130.png,Stimuli/BlurLevel5/OriginalBlur/BlurEditedMorph130.png,Stimuli/BlurMorphTrio/EditedMorph130.png,None,None,,,,,0,0,0,0,0,23,23,129,,,,,,,,,,,,,,,,,,,,,,,91,24,1,164,-2.40315424,0.68909339,130,Experiment,,,,,,,,,2,119,11,11,,,,,,,,,,,,,,,349.5498305,350.0489887,349.5498305,350.0489887,85.03401361,1575399921,1575399924,2.884268999,1575399918,1575399921,,,S2,1,27,f,resident,2019_Dec_03_1300,AdjustEyeTrack,3.1.5,59.50416181
33,Stimuli/Morph33.JPG,Stimuli/Morph33.png,Stimuli/BlurLevel5/BlurEditedMorph33,Stimuli/BlurLevel5/BlurEditedMorph33.png,Stimuli/BlurLevel5/NumberedMorphs/BlurEditedMorph33.png,Stimuli/BlurLevel5/OriginalBlur/BlurEditedMorph33.png,Stimuli/BlurMorphTrio/EditedMorph33.png,010089right.gif,Stimuli/normal_thumbnails/33right.gif,,,,,0,0,0,0,0,24,24,32,,,,,,,,,,,,,,,,,,,,,,,92,25,1,178,-2.498477068,0.087248742,33,Experiment,,,,,,,,,66,142,-109,38,,,,,,,,,,,,,,,355.9021568,356.3997716,355.9021568,356.3997716,48.29931973,1575399927,1575399931,3.567088127,1575399924,1575399927,,,S2,1,27,f,resident,2019_Dec_03_1300,AdjustEyeTrack,3.1.5,59.50416181
14,Stimuli/Morph14.JPG,Stimuli/Morph14.png,Stimuli/BlurLevel5/BlurEditedMorph14,Stimuli/BlurLevel5/BlurEditedMorph14.png,Stimuli/BlurLevel5/NumberedMorphs/BlurEditedMorph14.png,Stimuli/BlurLevel5/OriginalBlur/BlurEditedMorph14.png,Stimuli/BlurMorphTrio/EditedMorph14.png,010030right.gif,Stimuli/normal_thumbnails/14right.gif,,,,,0,0,0,0,0,25,25,13,,,,,,,,,,,,,,,,,,,,,,,10,26,1,249,-0.895919874,-2.333951066,14,Experiment,,,,,,,,,7,13,1,1,,,,,,,,,,,,,,,362.382458,362.8815368,362.382458,362.8815368,98.63945578,1575399934,1575399937,3.000991106,1575399931,1575399934,,,S2,1,27,f,resident,2019_Dec_03_1300,AdjustEyeTrack,3.1.5,59.50416181
91,Stimuli/Morph91.JPG,Stimuli/Morph91.png,Stimuli/BlurLevel5/BlurEditedMorph91,Stimuli/BlurLevel5/BlurEditedMorph91.png,Stimuli/BlurLevel5/NumberedMorphs/BlurEditedMorph91.png,Stimuli/BlurLevel5/OriginalBlur/BlurEditedMorph91.png,Stimuli/BlurMorphTrio/EditedMorph91.png,020276right.gif,Stimuli/normal_thumbnails/91right.gif,,,,,0,0,0,0,0,26,26,90,,,,,,,,,,,,,,,,,,,,,,,65,27,1,327,2.09667642,-1.361597588,91,Experiment,,,,,,,,,67,88,3,3,,,,,,,,,,,,,,,367.881847,368.3826674,367.881847,368.3826674,95.91836735,1575399939,1575399943,3.567308903,1575399937,1575399939,,,S2,1,27,f,resident,2019_Dec_03_1300,AdjustEyeTrack,3.1.5,59.50416181
145,Stimuli/Morph145.JPG,Stimuli/Morph145.png,Stimuli/BlurLevel5/BlurEditedMorph145,Stimuli/BlurLevel5/BlurEditedMorph145.png,Stimuli/BlurLevel5/NumberedMorphs/BlurEditedMorph145.png,Stimuli/BlurLevel5/OriginalBlur/BlurEditedMorph145.png,Stimuli/BlurMorphTrio/EditedMorph145.png,None,None,,,,,0,0,0,0,0,27,27,144,,,,,,,,,,,,,,,,,,,,,,,7,28,1,102,-0.519779227,2.445369002,145,Experiment,,,,,,,,,30,5,140,-7,,,,,,,,,,,,,,,373.8679157,374.3660354,373.8679157,374.3660354,90.47619048,1575399945,1575399948,3.049234867,1575399943,1575399945,,,S2,1,27,f,resident,2019_Dec_03_1300,AdjustEyeTrack,3.1.5,59.50416181
121,Stimuli/Morph121.JPG,Stimuli/Morph121.png,Stimuli/BlurLevel5/BlurEditedMorph121,Stimuli/BlurLevel5/BlurEditedMorph121.png,Stimuli/BlurLevel5/NumberedMorphs/BlurEditedMorph121.png,Stimuli/BlurLevel5/OriginalBlur/BlurEditedMorph121.png,Stimuli/BlurMorphTrio/EditedMorph121.png,None,None,,,,,0,0,0,0,0,28,28,120,,,,,,,,,,,,,,,,,,,,,,,39,29,1,64,1.095927867,2.246985116,121,Experiment,,,,,,,,,30,106,15,15,,,,,,,,,,,,,,,379.7911637,380.2822708,379.7911637,380.2822708,79.59183673,1575399951,1575399955,3.399454117,1575399949,1575399951,,,S2,1,27,f,resident,2019_Dec_03_1300,AdjustEyeTrack,3.1.5,59.50416181
34,Stimuli/Morph34.JPG,Stimuli/Morph34.png,Stimuli/BlurLevel5/BlurEditedMorph34,Stimuli/BlurLevel5/BlurEditedMorph34.png,Stimuli/BlurLevel5/NumberedMorphs/BlurEditedMorph34.png,Stimuli/BlurLevel5/OriginalBlur/BlurEditedMorph34.png,Stimuli/BlurMorphTrio/EditedMorph34.png,010090right.gif,Stimuli/normal_thumbnails/34right.gif,,,,,0,0,0,0,0,29,29,33,,,,,,,,,,,,,,,,,,,,,,,56,30,1,126,-1.469463131,2.022542486,34,Experiment,,,,,,,,,96,144,-110,37,,,,,,,,,,,,,,,386.1998501,386.6984249,386.1998501,386.6984249,49.65986395,1575399958,1575399962,4.015735865,1575399955,1575399958,,,S2,1,27,f,resident,2019_Dec_03_1300,AdjustEyeTrack,3.1.5,59.50416181
88,Stimuli/Morph88.JPG,Stimuli/Morph88.png,Stimuli/BlurLevel5/BlurEditedMorph88,Stimuli/BlurLevel5/BlurEditedMorph88.png,Stimuli/BlurLevel5/NumberedMorphs/BlurEditedMorph88.png,Stimuli/BlurLevel5/OriginalBlur/BlurEditedMorph88.png,Stimuli/BlurMorphTrio/EditedMorph88.png,020271right.gif,Stimuli/normal_thumbnails/88right.gif,,,,,0,0,0,0,0,30,30,87,,,,,,,,,,,,,,,,,,,,,,,67,31,1,292,0.936516484,-2.317959636,88,Experiment,,,,,,,,,21,95,-7,-7,,,,,,,,,,,,,,,393.1525218,393.6506632,393.1525218,393.6506632,90.47619048,1575399965,1575399968,2.932701111,1575399962,1575399965,,,S2,1,27,f,resident,2019_Dec_03_1300,AdjustEyeTrack,3.1.5,59.50416181
113,Stimuli/Morph113.JPG,Stimuli/Morph113.png,Stimuli/BlurLevel5/BlurEditedMorph113,Stimuli/BlurLevel5/BlurEditedMorph113.png,Stimuli/BlurLevel5/NumberedMorphs/BlurEditedMorph113.png,Stimuli/BlurLevel5/OriginalBlur/BlurEditedMorph113.png,Stimuli/BlurMorphTrio/EditedMorph113.png,None,None,,,,,0,0,0,0,0,31,31,112,,,,,,,,,,,,,,,,,,,,,,,94,32,1,149,-2.142918252,1.287595187,113,Experiment,,,,,,,,,58,92,21,21,,,,,,,,,,,,,,,399.3877487,399.8818236,399.3877487,399.8818236,71.42857143,1575399971,1575399974,3.580630064,1575399968,1575399971,,,S2,1,27,f,resident,2019_Dec_03_1300,AdjustEyeTrack,3.1.5,59.50416181
57,Stimuli/Morph57.JPG,Stimuli/Morph57.png,Stimuli/BlurLevel5/BlurEditedMorph57,Stimuli/BlurLevel5/BlurEditedMorph57.png,Stimuli/BlurLevel5/NumberedMorphs/BlurEditedMorph57.png,Stimuli/BlurLevel5/OriginalBlur/BlurEditedMorph57.png,Stimuli/BlurMorphTrio/EditedMorph57.png,010158right.gif,Stimuli/normal_thumbnails/57right.gif,,,,,0,0,0,0,0,32,32,56,,,,,,,,,,,,,,,,,,,,,,,4,33,1,97,-0.304673359,2.481365379,57,Experiment,,,,,,,,,76,104,-47,-47,,,,,,,,,,,,,,,406.1030786,406.6323292,406.1030786,406.6323292,36.05442177,1575399978,1575399980,2.450097799,1575399975,1575399978,,,S2,1,27,f,resident,2019_Dec_03_1300,AdjustEyeTrack,3.1.5,59.50416181
93,Stimuli/Morph93.JPG,Stimuli/Morph93.png,Stimuli/BlurLevel5/BlurEditedMorph93,Stimuli/BlurLevel5/BlurEditedMorph93.png,Stimuli/BlurLevel5/NumberedMorphs/BlurEditedMorph93.png,Stimuli/BlurLevel5/OriginalBlur/BlurEditedMorph93.png,Stimuli/BlurMorphTrio/EditedMorph93.png,020280right.gif,Stimuli/normal_thumbnails/93right.gif,,,,,0,0,0,0,0,33,33,92,,,,,,,,,,,,,,,,,,,,,,,77,34,1,89,0.043631016,2.499619238,93,Experiment,,,,,,,,,103,103,-10,-10,,,,,,,,,,,,,,,411.6385489,412.1309042,411.6385489,412.1309042,86.39455782,1575399983,1575399984,0.8004601,1575399981,1575399983,,,S2,1,27,f,resident,2019_Dec_03_1300,AdjustEyeTrack,3.1.5,59.50416181
39,Stimuli/Morph39.JPG,Stimuli/Morph39.png,Stimuli/BlurLevel5/BlurEditedMorph39,Stimuli/BlurLevel5/BlurEditedMorph39.png,Stimuli/BlurLevel5/NumberedMorphs/BlurEditedMorph39.png,Stimuli/BlurLevel5/OriginalBlur/BlurEditedMorph39.png,Stimuli/BlurMorphTrio/EditedMorph39.png,010109right.gif,Stimuli/normal_thumbnails/39right.gif,,,,,0,0,0,0,0,34,34,38,,,,,,,,,,,,,,,,,,,,,,,64,35,1,12,2.445369002,0.519779227,39,Experiment,,,,,,,,,62,140,-101,46,,,,,,,,,,,,,,,415.2150592,415.7170008,415.2150592,415.7170008,37.41496599,1575399987,1575399989,2.450147152,1575399984,1575399987,,,S2,1,27,f,resident,2019_Dec_03_1300,AdjustEyeTrack,3.1.5,59.50416181
11,Stimuli/Morph11.JPG,Stimuli/Morph11.png,Stimuli/BlurLevel5/BlurEditedMorph11,Stimuli/BlurLevel5/BlurEditedMorph11.png,Stimuli/BlurLevel5/NumberedMorphs/BlurEditedMorph11.png,Stimuli/BlurLevel5/OriginalBlur/BlurEditedMorph11.png,Stimuli/BlurMorphTrio/EditedMorph11.png,010024right.gif,Stimuli/normal_thumbnails/11right.gif,,,,,0,0,0,0,0,35,35,10,,,,,,,,,,,,,,,,,,,,,,,5,36,1,166,-2.425739316,0.604804739,11,Experiment,,,,,,,,,120,120,-109,38,,,,,,,,,,,,,,,420.0723633,420.5648986,420.0723633,420.5648986,48.29931973,1575399992,1575399998,6.84978199,1575399989,1575399992,,,S2,1,27,f,resident,2019_Dec_03_1300,AdjustEyeTrack,3.1.5,59.50416181
76,Stimuli/Morph76.JPG,Stimuli/Morph76.png,Stimuli/BlurLevel5/BlurEditedMorph76,Stimuli/BlurLevel5/BlurEditedMorph76.png,Stimuli/BlurLevel5/NumberedMorphs/BlurEditedMorph76.png,Stimuli/BlurLevel5/OriginalBlur/BlurEditedMorph76.png,Stimuli/BlurMorphTrio/EditedMorph76.png,020234right.gif,Stimuli/normal_thumbnails/76right.gif,,,,,0,0,0,0,0,36,36,75,,,,,,,,,,,,,,,,,,,,,,,19,37,1,346,2.425739316,-0.604804739,76,Experiment,,,,,,,,,116,105,-29,-29,,,,,,,,,,,,,,,429.5437733,430.0473294,429.5437733,430.0473294,60.54421769,1575400001,1575400005,3.750253201,1575399999,1575400001,,,S2,1,27,f,resident,2019_Dec_03_1300,AdjustEyeTrack,3.1.5,59.50416181
84,Stimuli/Morph84.JPG,Stimuli/Morph84.png,Stimuli/BlurLevel5/BlurEditedMorph84,Stimuli/BlurLevel5/BlurEditedMorph84.png,Stimuli/BlurLevel5/NumberedMorphs/BlurEditedMorph84.png,Stimuli/BlurLevel5/OriginalBlur/BlurEditedMorph84.png,Stimuli/BlurMorphTrio/EditedMorph84.png,020261right.gif,Stimuli/normal_thumbnails/84right.gif,,,,,0,0,0,0,0,37,37,83,,,,,,,,,,,,,,,,,,,,,,,98,38,1,345,2.414814566,-0.647047613,84,Experiment,,,,,,,,,17,109,-25,-25,,,,,,,,,,,,,,,436.0007517,436.4987399,436.0007517,436.4987399,65.98639456,1575400007,1575400013,5.583409071,1575400005,1575400007,,,S2,1,27,f,resident,2019_Dec_03_1300,AdjustEyeTrack,3.1.5,59.50416181
123,Stimuli/Morph123.JPG,Stimuli/Morph123.png,Stimuli/BlurLevel5/BlurEditedMorph123,Stimuli/BlurLevel5/BlurEditedMorph123.png,Stimuli/BlurLevel5/NumberedMorphs/BlurEditedMorph123.png,Stimuli/BlurLevel5/OriginalBlur/BlurEditedMorph123.png,Stimuli/BlurMorphTrio/EditedMorph123.png,None,None,,,,,0,0,0,0,0,38,38,122,,,,,,,,,,,,,,,,,,,,,,,40,39,1,91,-0.043631016,2.499619238,123,Experiment,,,,,,,,,41,102,21,21,,,,,,,,,,,,,,,444.4650028,444.964734,444.4650028,444.964734,71.42857143,1575400016,1575400019,2.951395273,1575400013,1575400016,,,S2,1,27,f,resident,2019_Dec_03_1300,AdjustEyeTrack,3.1.5,59.50416181
77,Stimuli/Morph77.JPG,Stimuli/Morph77.png,Stimuli/BlurLevel5/BlurEditedMorph77,Stimuli/BlurLevel5/BlurEditedMorph77.png,Stimuli/BlurLevel5/NumberedMorphs/BlurEditedMorph77.png,Stimuli/BlurLevel5/OriginalBlur/BlurEditedMorph77.png,Stimuli/BlurMorphTrio/EditedMorph77.png,020235right.gif,Stimuli/normal_thumbnails/77right.gif,,,,,0,0,0,0,0,39,39,76,,,,,,,,,,,,,,,,,,,,,,,4,40,1,162,-2.377641291,0.772542486,77,Experiment,,,,,,,,,131,87,-10,-10,,,,,,,,,,,,,,,450.7021086,451.1977733,450.7021086,451.1977733,86.39455782,1575400022,1575400024,1.966631889,1575400019,1575400022,,,S2,1,27,f,resident,2019_Dec_03_1300,AdjustEyeTrack,3.1.5,59.50416181
8,Stimuli/Morph8.JPG,Stimuli/Morph8.png,Stimuli/BlurLevel5/BlurEditedMorph8,Stimuli/BlurLevel5/BlurEditedMorph8.png,Stimuli/BlurLevel5/NumberedMorphs/BlurEditedMorph8.png,Stimuli/BlurLevel5/OriginalBlur/BlurEditedMorph8.png,Stimuli/BlurMorphTrio/EditedMorph8.png,010014right.gif,Stimuli/normal_thumbnails/8right.gif,,,,,0,0,0,0,0,40,40,7,,,,,,,,,,,,,,,,,,,,,,,75,41,1,344,2.40315424,-0.68909339,8,Experiment,,,,,,,,,129,18,-10,-10,,,,,,,,,,,,,,,455.0492524,455.5470689,455.0492524,455.5470689,86.39455782,1575400027,1575400030,3.817077875,1575400024,1575400027,,,S2,1,27,f,resident,2019_Dec_03_1300,AdjustEyeTrack,3.1.5,59.50416181
147,Stimuli/Morph147.JPG,Stimuli/Morph147.png,Stimuli/BlurLevel5/BlurEditedMorph147,Stimuli/BlurLevel5/BlurEditedMorph147.png,Stimuli/BlurLevel5/NumberedMorphs/BlurEditedMorph147.png,Stimuli/BlurLevel5/OriginalBlur/BlurEditedMorph147.png,Stimuli/BlurMorphTrio/EditedMorph147.png,None,None,,,,,0,0,0,0,0,41,41,146,,,,,,,,,,,,,,,,,,,,,,,83,42,1,73,0.730929262,2.39076189,147,Experiment,,,,,,,,,109,132,15,15,,,,,,,,,,,,,,,461.8512435,462.3479735,461.8512435,462.3479735,79.59183673,1575400033,1575400037,3.284046888,1575400031,1575400033,,,S2,1,27,f,resident,2019_Dec_03_1300,AdjustEyeTrack,3.1.5,59.50416181
138,Stimuli/Morph138.JPG,Stimuli/Morph138.png,Stimuli/BlurLevel5/BlurEditedMorph138,Stimuli/BlurLevel5/BlurEditedMorph138.png,Stimuli/BlurLevel5/NumberedMorphs/BlurEditedMorph138.png,Stimuli/BlurLevel5/OriginalBlur/BlurEditedMorph138.png,Stimuli/BlurMorphTrio/EditedMorph138.png,None,None,,,,,0,0,0,0,0,42,42,137,,,,,,,,,,,,,,,,,,,,,,,68,43,1,295,1.056545654,-2.265769468,138,Experiment,,,,,,,,,36,119,19,19,,,,,,,,,,,,,,,468.0574846,468.5470654,468.0574846,468.5470654,74.14965986,1575400040,1575400042,2.000715733,1575400037,1575400040,,,S2,1,27,f,resident,2019_Dec_03_1300,AdjustEyeTrack,3.1.5,59.50416181
118,Stimuli/Morph118.JPG,Stimuli/Morph118.png,Stimuli/BlurLevel5/BlurEditedMorph118,Stimuli/BlurLevel5/BlurEditedMorph118.png,Stimuli/BlurLevel5/NumberedMorphs/BlurEditedMorph118.png,Stimuli/BlurLevel5/OriginalBlur/BlurEditedMorph118.png,Stimuli/BlurMorphTrio/EditedMorph118.png,None,None,,,,,0,0,0,0,0,43,43,117,,,,,,,,,,,,,,,,,,,,,,,66,44,1,10,2.462019383,0.434120444,118,Experiment,,,,,,,,,45,110,8,8,,,,,,,,,,,,,,,472.6742357,473.180471,472.6742357,473.180471,89.11564626,1575400044,1575400047,2.750695944,1575400042,1575400044,,,S2,1,27,f,resident,2019_Dec_03_1300,AdjustEyeTrack,3.1.5,59.50416181
128,Stimuli/Morph128.JPG,Stimuli/Morph128.png,Stimuli/BlurLevel5/BlurEditedMorph128,Stimuli/BlurLevel5/BlurEditedMorph128.png,Stimuli/BlurLevel5/NumberedMorphs/BlurEditedMorph128.png,Stimuli/BlurLevel5/OriginalBlur/BlurEditedMorph128.png,Stimuli/BlurMorphTrio/EditedMorph128.png,None,None,,,,,0,0,0,0,0,44,44,127,,,,,,,,,,,,,,,,,,,,,,,20,45,1,170,-2.462019383,0.434120444,128,Experiment,,,,,,,,,48,97,31,31,,,,,,,,,,,,,,,478.0982502,478.5970841,478.0982502,478.5970841,57.82312925,1575400050,1575400053,3.083257914,1575400047,1575400050,,,S2,1,27,f,resident,2019_Dec_03_1300,AdjustEyeTrack,3.1.5,59.50416181
129,Stimuli/Morph129.JPG,Stimuli/Morph129.png,Stimuli/BlurLevel5/BlurEditedMorph129,Stimuli/BlurLevel5/BlurEditedMorph129.png,Stimuli/BlurLevel5/NumberedMorphs/BlurEditedMorph129.png,Stimuli/BlurLevel5/OriginalBlur/BlurEditedMorph129.png,Stimuli/BlurMorphTrio/EditedMorph129.png,None,None,,,,,0,0,0,0,0,45,45,128,,,,,,,,,,,,,,,,,,,,,,,84,46,1,190,-2.462019383,-0.434120444,129,Experiment,,,,,,,,,17,101,28,28,,,,,,,,,,,,,,,483.8159149,484.3138075,483.8159149,484.3138075,61.9047619,1575400055,1575400058,2.766660213,1575400053,1575400055,,,S2,1,27,f,resident,2019_Dec_03_1300,AdjustEyeTrack,3.1.5,59.50416181
61,Stimuli/Morph61.JPG,Stimuli/Morph61.png,Stimuli/BlurLevel5/BlurEditedMorph61,Stimuli/BlurLevel5/BlurEditedMorph61.png,Stimuli/BlurLevel5/NumberedMorphs/BlurEditedMorph61.png,Stimuli/BlurLevel5/OriginalBlur/BlurEditedMorph61.png,Stimuli/BlurMorphTrio/EditedMorph61.png,020201right.gif,Stimuli/normal_thumbnails/61right.gif,,,,,0,0,0,0,0,46,46,60,,,,,,,,,,,,,,,,,,,,,,,81,47,1,299,1.212024051,-2.186549268,61,Experiment,,,,,,,,,146,56,5,5,,,,,,,,,,,,,,,488.8977155,489.3978474,488.8977155,489.3978474,93.19727891,1575400060,1575400063,2.666687965,1575400058,1575400060,,,S2,1,27,f,resident,2019_Dec_03_1300,AdjustEyeTrack,3.1.5,59.50416181
50,Stimuli/Morph50.JPG,Stimuli/Morph50.png,Stimuli/BlurLevel5/BlurEditedMorph50,Stimuli/BlurLevel5/BlurEditedMorph50.png,Stimuli/BlurLevel5/NumberedMorphs/BlurEditedMorph50.png,Stimuli/BlurLevel5/OriginalBlur/BlurEditedMorph50.png,Stimuli/BlurMorphTrio/EditedMorph50.png,010142right.gif,Stimuli/normal_thumbnails/50right.gif,,,,,0,0,0,0,0,47,47,49,,,,,,,,,,,,,,,,,,,,,,,95,48,1,196,-2.40315424,-0.68909339,50,Experiment,,,,,,,,,2,42,8,8,,,,,,,,,,,,,,,494.3429381,494.8472478,494.3429381,494.8472478,89.11564626,1575400066,1575400069,3.616631985,1575400063,1575400066,,,S2,1,27,f,resident,2019_Dec_03_1300,AdjustEyeTrack,3.1.5,59.50416181
103,Stimuli/Morph103.JPG,Stimuli/Morph103.png,Stimuli/BlurLevel5/BlurEditedMorph103,Stimuli/BlurLevel5/BlurEditedMorph103.png,Stimuli/BlurLevel5/NumberedMorphs/BlurEditedMorph103.png,Stimuli/BlurLevel5/OriginalBlur/BlurEditedMorph103.png,Stimuli/BlurMorphTrio/EditedMorph103.png,None,None,,,,,0,0,0,0,0,48,48,102,,,,,,,,,,,,,,,,,,,,,,,99,49,1,60,1.25,2.165063509,103,Experiment,,,,,,,,,22,91,12,12,,,,,,,,,,,,,,,500.4879123,500.9805884,500.4879123,500.9805884,83.67346939,1575400072,1575400075,3.233283043,1575400070,1575400072,,,S2,1,27,f,resident,2019_Dec_03_1300,AdjustEyeTrack,3.1.5,59.50416181
60,Stimuli/Morph60.JPG,Stimuli/Morph60.png,Stimuli/BlurLevel5/BlurEditedMorph60,Stimuli/BlurLevel5/BlurEditedMorph60.png,Stimuli/BlurLevel5/NumberedMorphs/BlurEditedMorph60.png,Stimuli/BlurLevel5/OriginalBlur/BlurEditedMorph60.png,Stimuli/BlurMorphTrio/EditedMorph60.png,020200right.gif,Stimuli/normal_thumbnails/60right.gif,,,,,0,0,0,0,0,49,49,59,,,,,,,,,,,,,,,,,,,,,,,83,50,1,75,0.647047613,2.414814566,60,Experiment,,,,,,,,,49,47,13,13,,,,,,,,,,,,,,,506.7870627,507.2807449,506.7870627,507.2807449,82.31292517,1575400078,1575400080,1.351295948,1575400075,1575400078,,,S2,1,27,f,resident,2019_Dec_03_1300,AdjustEyeTrack,3.1.5,59.50416181
137,Stimuli/Morph137.JPG,Stimuli/Morph137.png,Stimuli/BlurLevel5/BlurEditedMorph137,Stimuli/BlurLevel5/BlurEditedMorph137.png,Stimuli/BlurLevel5/NumberedMorphs/BlurEditedMorph137.png,Stimuli/BlurLevel5/OriginalBlur/BlurEditedMorph137.png,Stimuli/BlurMorphTrio/EditedMorph137.png,None,None,,,,,0,0,0,0,0,50,50,136,,,,,,,,,,,,,,,,,,,,,,,82,51,1,43,1.828384254,1.7049959,137,Experiment,,,,,,,,,77,105,32,32,,,,,,,,,,,,,,,510.9141351,511.4137134,510.9141351,511.4137134,56.46258503,1575400082,1575400086,3.598907232,1575400080,1575400082,,,S2,1,27,f,resident,2019_Dec_03_1300,AdjustEyeTrack,3.1.5,59.50416181
134,Stimuli/Morph134.JPG,Stimuli/Morph134.png,Stimuli/BlurLevel5/BlurEditedMorph134,Stimuli/BlurLevel5/BlurEditedMorph134.png,Stimuli/BlurLevel5/NumberedMorphs/BlurEditedMorph134.png,Stimuli/BlurLevel5/OriginalBlur/BlurEditedMorph134.png,Stimuli/BlurMorphTrio/EditedMorph134.png,None,None,,,,,0,0,0,0,0,51,51,133,,,,,,,,,,,,,,,,,,,,,,,16,52,1,93,-0.130839891,2.496573837,134,Experiment,,,,,,,,,3,139,-5,-5,,,,,,,,,,,,,,,517.4184777,517.9134124,517.4184777,517.9134124,93.19727891,1575400089,1575400091,1.682037115,1575400086,1575400089,,,S2,1,27,f,resident,2019_Dec_03_1300,AdjustEyeTrack,3.1.5,59.50416181
17,Stimuli/Morph17.JPG,Stimuli/Morph17.png,Stimuli/BlurLevel5/BlurEditedMorph17,Stimuli/BlurLevel5/BlurEditedMorph17.png,Stimuli/BlurLevel5/NumberedMorphs/BlurEditedMorph17.png,Stimuli/BlurLevel5/OriginalBlur/BlurEditedMorph17.png,Stimuli/BlurMorphTrio/EditedMorph17.png,010036right.gif,Stimuli/normal_thumbnails/17right.gif,,,,,0,0,0,0,0,52,52,16,,,,,,,,,,,,,,,,,,,,,,,4,53,1,355,2.490486745,-0.217889357,17,Experiment,,,,,,,,,21,24,-7,-7,,,,,,,,,,,,,,,522.2503108,522.7469858,522.2503108,522.7469858,90.47619048,1575400094,1575400096,1.950428009,1575400091,1575400094,,,S2,1,27,f,resident,2019_Dec_03_1300,AdjustEyeTrack,3.1.5,59.50416181
31,Stimuli/Morph31.JPG,Stimuli/Morph31.png,Stimuli/BlurLevel5/BlurEditedMorph31,Stimuli/BlurLevel5/BlurEditedMorph31.png,Stimuli/BlurLevel5/NumberedMorphs/BlurEditedMorph31.png,Stimuli/BlurLevel5/OriginalBlur/BlurEditedMorph31.png,Stimuli/BlurMorphTrio/EditedMorph31.png,010079right.gif,Stimuli/normal_thumbnails/31right.gif,,,,,0,0,0,0,0,53,53,30,,,,,,,,,,,,,,,,,,,,,,,36,54,1,7,2.481365379,0.304673359,31,Experiment,,,,,,,,,13,31,0,0,,,,,,,,,,,,,,,526.8327752,527.3299391,526.8327752,527.3299391,100,1575400098,1575400101,2.651322842,1575400096,1575400098,,,S2,1,27,f,resident,2019_Dec_03_1300,AdjustEyeTrack,3.1.5,59.50416181
99,Stimuli/Morph99.JPG,Stimuli/Morph99.png,Stimuli/BlurLevel5/BlurEditedMorph99,Stimuli/BlurLevel5/BlurEditedMorph99.png,Stimuli/BlurLevel5/NumberedMorphs/BlurEditedMorph99.png,Stimuli/BlurLevel5/OriginalBlur/BlurEditedMorph99.png,Stimuli/BlurMorphTrio/EditedMorph99.png,020299right.gif,Stimuli/normal_thumbnails/99right.gif,,,,,0,0,0,0,0,54,54,98,,,,,,,,,,,,,,,,,,,,,,,93,55,1,328,2.12012024,-1.324798161,99,Experiment,,,,,,,,,138,122,-23,-23,,,,,,,,,,,,,,,533.0989568,533.5966771,533.0989568,533.5966771,68.70748299,1575400105,1575400107,2.666550875,1575400101,1575400105,,,S2,1,27,f,resident,2019_Dec_03_1300,AdjustEyeTrack,3.1.5,59.50416181
44,Stimuli/Morph44.JPG,Stimuli/Morph44.png,Stimuli/BlurLevel5/BlurEditedMorph44,Stimuli/BlurLevel5/BlurEditedMorph44.png,Stimuli/BlurLevel5/NumberedMorphs/BlurEditedMorph44.png,Stimuli/BlurLevel5/OriginalBlur/BlurEditedMorph44.png,Stimuli/BlurMorphTrio/EditedMorph44.png,010126right.gif,Stimuli/normal_thumbnails/44right.gif,,,,,0,0,0,0,0,55,55,43,,,,,,,,,,,,,,,,,,,,,,,71,56,1,151,-2.186549268,1.212024051,44,Experiment,,,,,,,,,43,52,-8,-8,,,,,,,,,,,,,,,538.2301373,538.7297397,538.2301373,538.7297397,89.11564626,1575400110,1575400111,1.673169851,1575400108,1575400110,,,S2,1,27,f,resident,2019_Dec_03_1300,AdjustEyeTrack,3.1.5,59.50416181
55,Stimuli/Morph55.JPG,Stimuli/Morph55.png,Stimuli/BlurLevel5/BlurEditedMorph55,Stimuli/BlurLevel5/BlurEditedMorph55.png,Stimuli/BlurLevel5/NumberedMorphs/BlurEditedMorph55.png,Stimuli/BlurLevel5/OriginalBlur/BlurEditedMorph55.png,Stimuli/BlurMorphTrio/EditedMorph55.png,010151right.gif,Stimuli/normal_thumbnails/55right.gif,,,,,0,0,0,0,0,56,56,54,,,,,,,,,,,,,,,,,,,,,,,15,57,1,229,-1.640147572,-1.886773951,55,Experiment,,,,,,,,,113,63,-8,-8,,,,,,,,,,,,,,,542.698734,543.1964675,542.698734,543.1964675,89.11564626,1575400114,1575400117,2.549260139,1575400112,1575400114,,,S2,1,27,f,resident,2019_Dec_03_1300,AdjustEyeTrack,3.1.5,59.50416181
71,Stimuli/Morph71.JPG,Stimuli/Morph71.png,Stimuli/BlurLevel5/BlurEditedMorph71,Stimuli/BlurLevel5/BlurEditedMorph71.png,Stimuli/BlurLevel5/NumberedMorphs/BlurEditedMorph71.png,Stimuli/BlurLevel5/OriginalBlur/BlurEditedMorph71.png,Stimuli/BlurMorphTrio/EditedMorph71.png,020225right.gif,Stimuli/normal_thumbnails/71right.gif,,,,,0,0,0,0,0,57,57,70,,,,,,,,,,,,,,,,,,,,,,,34,58,1,259,-0.477022488,-2.454067959,71,Experiment,,,,,,,,,106,43,28,28,,,,,,,,,,,,,,,547.8867318,548.3793438,547.8867318,548.3793438,61.9047619,1575400119,1575400122,2.337233067,1575400117,1575400119,,,S2,1,27,f,resident,2019_Dec_03_1300,AdjustEyeTrack,3.1.5,59.50416181
48,Stimuli/Morph48.JPG,Stimuli/Morph48.png,Stimuli/BlurLevel5/BlurEditedMorph48,Stimuli/BlurLevel5/BlurEditedMorph48.png,Stimuli/BlurLevel5/NumberedMorphs/BlurEditedMorph48.png,Stimuli/BlurLevel5/OriginalBlur/BlurEditedMorph48.png,Stimuli/BlurMorphTrio/EditedMorph48.png,010131right.gif,Stimuli/normal_thumbnails/48right.gif,,,,,0,0,0,0,0,58,58,47,,,,,,,,,,,,,,,,,,,,,,,96,59,1,180,-2.5,3.06E-16,48,Experiment,,,,,,,,,42,42,6,6,,,,,,,,,,,,,,,553.6707986,554.1676583,553.6707986,554.1676583,91.83673469,1575400125,1575400127,1.867543221,1575400122,1575400125,,,S2,1,27,f,resident,2019_Dec_03_1300,AdjustEyeTrack,3.1.5,59.50416181
62,Stimuli/Morph62.JPG,Stimuli/Morph62.png,Stimuli/BlurLevel5/BlurEditedMorph62,Stimuli/BlurLevel5/BlurEditedMorph62.png,Stimuli/BlurLevel5/NumberedMorphs/BlurEditedMorph62.png,Stimuli/BlurLevel5/OriginalBlur/BlurEditedMorph62.png,Stimuli/BlurMorphTrio/EditedMorph62.png,020205right.gif,Stimuli/normal_thumbnails/62right.gif,,,,,0,0,0,0,0,59,59,61,,,,,,,,,,,,,,,,,,,,,,,51,60,1,73,0.730929262,2.39076189,62,Experiment,,,,,,,,,116,50,12,12,,,,,,,,,,,,,,,558.4004651,558.8953594,558.4004651,558.8953594,83.67346939,1575400130,1575400133,2.783473969,1575400127,1575400130,,,S2,1,27,f,resident,2019_Dec_03_1300,AdjustEyeTrack,3.1.5,59.50416181
81,Stimuli/Morph81.JPG,Stimuli/Morph81.png,Stimuli/BlurLevel5/BlurEditedMorph81,Stimuli/BlurLevel5/BlurEditedMorph81.png,Stimuli/BlurLevel5/NumberedMorphs/BlurEditedMorph81.png,Stimuli/BlurLevel5/OriginalBlur/BlurEditedMorph81.png,Stimuli/BlurMorphTrio/EditedMorph81.png,020245right.gif,Stimuli/normal_thumbnails/81right.gif,,,,,0,0,0,0,0,60,60,80,,,,,,,,,,,,,,,,,,,,,,,63,61,1,4,2.493910126,0.174391184,81,Experiment,,,,,,,,,69,86,-5,-5,,,,,,,,,,,,,,,563.7748735,564.2794873,563.7748735,564.2794873,93.19727891,1575400135,1575400140,4.534188986,1575400133,1575400135,,,S2,1,27,f,resident,2019_Dec_03_1300,AdjustEyeTrack,3.1.5,59.50416181
92,Stimuli/Morph92.JPG,Stimuli/Morph92.png,Stimuli/BlurLevel5/BlurEditedMorph92,Stimuli/BlurLevel5/BlurEditedMorph92.png,Stimuli/BlurLevel5/NumberedMorphs/BlurEditedMorph92.png,Stimuli/BlurLevel5/OriginalBlur/BlurEditedMorph92.png,Stimuli/BlurMorphTrio/EditedMorph92.png,020277right.gif,Stimuli/normal_thumbnails/92right.gif,,,,,0,0,0,0,0,61,61,91,,,,,,,,,,,,,,,,,,,,,,,23,62,1,344,2.40315424,-0.68909339,92,Experiment,,,,,,,,,19,95,-3,-3,,,,,,,,,,,,,,,571.189186,571.6967248,571.189186,571.6967248,95.91836735,1575400143,1575400145,2.317750931,1575400140,1575400143,,,S2,1,27,f,resident,2019_Dec_03_1300,AdjustEyeTrack,3.1.5,59.50416181
30,Stimuli/Morph30.JPG,Stimuli/Morph30.png,Stimuli/BlurLevel5/BlurEditedMorph30,Stimuli/BlurLevel5/BlurEditedMorph30.png,Stimuli/BlurLevel5/NumberedMorphs/BlurEditedMorph30.png,Stimuli/BlurLevel5/OriginalBlur/BlurEditedMorph30.png,Stimuli/BlurMorphTrio/EditedMorph30.png,010076right.gif,Stimuli/normal_thumbnails/30right.gif,,,,,0,0,0,0,0,62,62,29,,,,,,,,,,,,,,,,,,,,,,,11,63,1,52,1.539153688,1.970026884,30,Experiment,,,,,,,,,69,29,1,1,,,,,,,,,,,,,,,576.6205246,577.1130975,576.6205246,577.1130975,98.63945578,1575400148,1575400151,2.515723705,1575400145,1575400148,,,S2,1,27,f,resident,2019_Dec_03_1300,AdjustEyeTrack,3.1.5,59.50416181
132,Stimuli/Morph132.JPG,Stimuli/Morph132.png,Stimuli/BlurLevel5/BlurEditedMorph132,Stimuli/BlurLevel5/BlurEditedMorph132.png,Stimuli/BlurLevel5/NumberedMorphs/BlurEditedMorph132.png,Stimuli/BlurLevel5/OriginalBlur/BlurEditedMorph132.png,Stimuli/BlurMorphTrio/EditedMorph132.png,None,None,,,,,0,0,0,0,0,63,63,131,,,,,,,,,,,,,,,,,,,,,,,100,64,1,106,-0.68909339,2.40315424,132,Experiment,,,,,,,,,38,140,-8,-8,,,,,,,,,,,,,,,581.6813971,582.1794258,581.6813971,582.1794258,89.11564626,1575400153,1575400155,1.63338685,1575400151,1575400153,,,S2,1,27,f,resident,2019_Dec_03_1300,AdjustEyeTrack,3.1.5,59.50416181
64,Stimuli/Morph64.JPG,Stimuli/Morph64.png,Stimuli/BlurLevel5/BlurEditedMorph64,Stimuli/BlurLevel5/BlurEditedMorph64.png,Stimuli/BlurLevel5/NumberedMorphs/BlurEditedMorph64.png,Stimuli/BlurLevel5/OriginalBlur/BlurEditedMorph64.png,Stimuli/BlurMorphTrio/EditedMorph64.png,020208right.gif,Stimuli/normal_thumbnails/64right.gif,,,,,0,0,0,0,0,64,64,63,,,,,,,,,,,,,,,,,,,,,,,34,65,1,96,-0.261321158,2.486304738,64,Experiment,,,,,,,,,89,136,-72,-72,,,,,,,,,,,,,,,586.3711317,586.86232,586.3711317,586.86232,2.040816327,1575400158,1575400161,3.183898926,1575400155,1575400158,,,S2,1,27,f,resident,2019_Dec_03_1300,AdjustEyeTrack,3.1.5,59.50416181
56,Stimuli/Morph56.JPG,Stimuli/Morph56.png,Stimuli/BlurLevel5/BlurEditedMorph56,Stimuli/BlurLevel5/BlurEditedMorph56.png,Stimuli/BlurLevel5/NumberedMorphs/BlurEditedMorph56.png,Stimuli/BlurLevel5/OriginalBlur/BlurEditedMorph56.png,Stimuli/BlurMorphTrio/EditedMorph56.png,010157right.gif,Stimuli/normal_thumbnails/56right.gif,,,,,0,0,0,0,0,65,65,55,,,,,,,,,,,,,,,,,,,,,,,92,66,1,25,2.265769468,1.056545654,56,Experiment,,,,,,,,,78,40,16,16,,,,,,,,,,,,,,,593.0162804,593.5157419,593.0162804,593.5157419,78.23129252,1575400165,1575400166,1.482578993,1575400161,1575400164,,,S2,1,27,f,resident,2019_Dec_03_1300,AdjustEyeTrack,3.1.5,59.50416181
1,Stimuli/Morph1.JPG,Stimuli/Morph1.png,Stimuli/BlurLevel5/BlurEditedMorph1,Stimuli/BlurLevel5/BlurEditedMorph1.png,Stimuli/BlurLevel5/NumberedMorphs/BlurEditedMorph1.png,Stimuli/BlurLevel5/OriginalBlur/BlurEditedMorph1.png,Stimuli/BlurMorphTrio/EditedMorph1.png,010003right.gif,Stimuli/normal_thumbnails/1right.gif,,,,,0,0,0,0,0,66,66,0,,,,,,,,,,,,,,,,,,,,,,,74,67,1,272,0.087248742,-2.498477068,1,Experiment,,,,,,,,,84,140,-139,8,,,,,,,,,,,,,,,597.2376041,597.7457213,597.2376041,597.7457213,89.11564626,1575400169,1575400171,2.683668852,1575400166,1575400169,,,S2,1,27,f,resident,2019_Dec_03_1300,AdjustEyeTrack,3.1.5,59.50416181
41,Stimuli/Morph41.JPG,Stimuli/Morph41.png,Stimuli/BlurLevel5/BlurEditedMorph41,Stimuli/BlurLevel5/BlurEditedMorph41.png,Stimuli/BlurLevel5/NumberedMorphs/BlurEditedMorph41.png,Stimuli/BlurLevel5/OriginalBlur/BlurEditedMorph41.png,Stimuli/BlurMorphTrio/EditedMorph41.png,010112right.gif,Stimuli/normal_thumbnails/41right.gif,,,,,0,0,0,0,0,67,67,40,,,,,,,,,,,,,,,,,,,,,,,99,68,1,61,1.212024051,2.186549268,41,Experiment,,,,,,,,,49,7,34,34,,,,,,,,,,,,,,,602.3956149,602.9120107,602.3956149,602.9120107,53.7414966,1575400174,1575400178,4.268173933,1575400172,1575400174,,,S2,1,27,f,resident,2019_Dec_03_1300,AdjustEyeTrack,3.1.5,59.50416181
18,Stimuli/Morph18.JPG,Stimuli/Morph18.png,Stimuli/BlurLevel5/BlurEditedMorph18,Stimuli/BlurLevel5/BlurEditedMorph18.png,Stimuli/BlurLevel5/NumberedMorphs/BlurEditedMorph18.png,Stimuli/BlurLevel5/OriginalBlur/BlurEditedMorph18.png,Stimuli/BlurMorphTrio/EditedMorph18.png,010039right.gif,Stimuli/normal_thumbnails/18right.gif,,,,,0,0,0,0,0,68,68,17,,,,,,,,,,,,,,,,,,,,,,,100,69,1,87,0.130839891,2.496573837,18,Experiment,,,,,,,,,101,6,12,12,,,,,,,,,,,,,,,609.1128499,609.6120107,609.1128499,609.6120107,83.67346939,1575400181,1575400184,3.669901848,1575400178,1575400181,,,S2,1,27,f,resident,2019_Dec_03_1300,AdjustEyeTrack,3.1.5,59.50416181
59,Stimuli/Morph59.JPG,Stimuli/Morph59.png,Stimuli/BlurLevel5/BlurEditedMorph59,Stimuli/BlurLevel5/BlurEditedMorph59.png,Stimuli/BlurLevel5/NumberedMorphs/BlurEditedMorph59.png,Stimuli/BlurLevel5/OriginalBlur/BlurEditedMorph59.png,Stimuli/BlurMorphTrio/EditedMorph59.png,010160right.gif,Stimuli/normal_thumbnails/59right.gif,,,,,0,0,0,0,0,69,69,58,,,,,,,,,,,,,,,,,,,,,,,12,70,1,337,2.301262134,-0.976827821,59,Experiment,,,,,,,,,147,48,11,11,,,,,,,,,,,,,,,615.5823317,616.078528,615.5823317,616.078528,85.03401361,1575400187,1575400189,2.083935976,1575400185,1575400187,,,S2,1,27,f,resident,2019_Dec_03_1300,AdjustEyeTrack,3.1.5,59.50416181
24,Stimuli/Morph24.JPG,Stimuli/Morph24.png,Stimuli/BlurLevel5/BlurEditedMorph24,Stimuli/BlurLevel5/BlurEditedMorph24.png,Stimuli/BlurLevel5/NumberedMorphs/BlurEditedMorph24.png,Stimuli/BlurLevel5/OriginalBlur/BlurEditedMorph24.png,Stimuli/BlurMorphTrio/EditedMorph24.png,010068right.gif,Stimuli/normal_thumbnails/24right.gif,,,,,0,0,0,0,0,70,70,23,,,,,,,,,,,,,,,,,,,,,,,79,71,1,147,-2.09667642,1.361597588,24,Experiment,,,,,,,,,104,24,0,0,,,,,,,,,,,,,,,620.3117455,620.8123011,620.3117455,620.8123011,100,1575400192,1575400196,3.767505884,1575400189,1575400192,,,S2,1,27,f,resident,2019_Dec_03_1300,AdjustEyeTrack,3.1.5,59.50416181
109,Stimuli/Morph109.JPG,Stimuli/Morph109.png,Stimuli/BlurLevel5/BlurEditedMorph109,Stimuli/BlurLevel5/BlurEditedMorph109.png,Stimuli/BlurLevel5/NumberedMorphs/BlurEditedMorph109.png,Stimuli/BlurLevel5/OriginalBlur/BlurEditedMorph109.png,Stimuli/BlurMorphTrio/EditedMorph109.png,None,None,,,,,0,0,0,0,0,71,71,108,,,,,,,,,,,,,,,,,,,,,,,14,72,1,99,-0.391086163,2.469220851,109,Experiment,,,,,,,,,10,115,-6,-6,,,,,,,,,,,,,,,626.8957009,627.3955142,626.8957009,627.3955142,91.83673469,1575400198,1575400202,3.133159876,1575400196,1575400198,,,S2,1,27,f,resident,2019_Dec_03_1300,AdjustEyeTrack,3.1.5,59.50416181
95,Stimuli/Morph95.JPG,Stimuli/Morph95.png,Stimuli/BlurLevel5/BlurEditedMorph95,Stimuli/BlurLevel5/BlurEditedMorph95.png,Stimuli/BlurLevel5/NumberedMorphs/BlurEditedMorph95.png,Stimuli/BlurLevel5/OriginalBlur/BlurEditedMorph95.png,Stimuli/BlurMorphTrio/EditedMorph95.png,020287right.gif,Stimuli/normal_thumbnails/95right.gif,,,,,0,0,0,0,0,72,72,94,,,,,,,,,,,,,,,,,,,,,,,57,73,1,33,2.09667642,1.361597588,95,Experiment,,,,,,,,,102,102,-7,-7,,,,,,,,,,,,,,,633.0469823,633.5475481,633.0469823,633.5475481,90.47619048,1575400205,1575400205,0.683743,1575400202,1575400205,,,S2,1,27,f,resident,2019_Dec_03_1300,AdjustEyeTrack,3.1.5,59.50416181
67,Stimuli/Morph67.JPG,Stimuli/Morph67.png,Stimuli/BlurLevel5/BlurEditedMorph67,Stimuli/BlurLevel5/BlurEditedMorph67.png,Stimuli/BlurLevel5/NumberedMorphs/BlurEditedMorph67.png,Stimuli/BlurLevel5/OriginalBlur/BlurEditedMorph67.png,Stimuli/BlurMorphTrio/EditedMorph67.png,020217right.gif,Stimuli/normal_thumbnails/67right.gif,,,,,0,0,0,0,0,73,73,66,,,,,,,,,,,,,,,,,,,,,,,59,74,1,296,1.095927867,-2.246985116,67,Experiment,,,,,,,,,46,64,3,3,,,,,,,,,,,,,,,636.1298074,636.6292151,636.1298074,636.6292151,95.91836735,1575400208,1575400212,4.54903388,1575400205,1575400208,,,S2,1,27,f,resident,2019_Dec_03_1300,AdjustEyeTrack,3.1.5,59.50416181
16,Stimuli/Morph16.JPG,Stimuli/Morph16.png,Stimuli/BlurLevel5/BlurEditedMorph16,Stimuli/BlurLevel5/BlurEditedMorph16.png,Stimuli/BlurLevel5/NumberedMorphs/BlurEditedMorph16.png,Stimuli/BlurLevel5/OriginalBlur/BlurEditedMorph16.png,Stimuli/BlurMorphTrio/EditedMorph16.png,010034right.gif,Stimuli/normal_thumbnails/16right.gif,,,,,0,0,0,0,0,74,74,15,,,,,,,,,,,,,,,,,,,,,,,43,75,1,15,2.414814566,0.647047613,16,Experiment,,,,,,,,,2,44,-28,-28,,,,,,,,,,,,,,,643.5137309,644.0112322,643.5137309,644.0112322,61.9047619,1575400215,1575400219,4.333857059,1575400212,1575400215,,,S2,1,27,f,resident,2019_Dec_03_1300,AdjustEyeTrack,3.1.5,59.50416181
107,Stimuli/Morph107.JPG,Stimuli/Morph107.png,Stimuli/BlurLevel5/BlurEditedMorph107,Stimuli/BlurLevel5/BlurEditedMorph107.png,Stimuli/BlurLevel5/NumberedMorphs/BlurEditedMorph107.png,Stimuli/BlurLevel5/OriginalBlur/BlurEditedMorph107.png,Stimuli/BlurMorphTrio/EditedMorph107.png,None,None,,,,,0,0,0,0,0,75,75,106,,,,,,,,,,,,,,,,,,,,,,,16,76,1,154,-2.246985116,1.095927867,107,Experiment,,,,,,,,,117,104,3,3,,,,,,,,,,,,,,,650.8133579,651.3143725,650.8133579,651.3143725,95.91836735,1575400222,1575400225,3.133383989,1575400220,1575400222,,,S2,1,27,f,resident,2019_Dec_03_1300,AdjustEyeTrack,3.1.5,59.50416181
139,Stimuli/Morph139.JPG,Stimuli/Morph139.png,Stimuli/BlurLevel5/BlurEditedMorph139,Stimuli/BlurLevel5/BlurEditedMorph139.png,Stimuli/BlurLevel5/NumberedMorphs/BlurEditedMorph139.png,Stimuli/BlurLevel5/OriginalBlur/BlurEditedMorph139.png,Stimuli/BlurMorphTrio/EditedMorph139.png,None,None,,,,,0,0,0,0,0,76,76,138,,,,,,,,,,,,,,,,,,,,,,,16,77,1,84,0.261321158,2.486304738,139,Experiment,,,,,,,,,91,91,48,48,,,,,,,,,,,,,,,656.4074526,657.063076,656.4074526,657.063076,34.69387755,1575400228,1575400230,1.550372839,1575400226,1575400228,,,S2,1,27,f,resident,2019_Dec_03_1300,AdjustEyeTrack,3.1.5,59.50416181
38,Stimuli/Morph38.JPG,Stimuli/Morph38.png,Stimuli/BlurLevel5/BlurEditedMorph38,Stimuli/BlurLevel5/BlurEditedMorph38.png,Stimuli/BlurLevel5/NumberedMorphs/BlurEditedMorph38.png,Stimuli/BlurLevel5/OriginalBlur/BlurEditedMorph38.png,Stimuli/BlurMorphTrio/EditedMorph38.png,010108right.gif,Stimuli/normal_thumbnails/38right.gif,,,,,0,0,0,0,0,77,77,37,,,,,,,,,,,,,,,,,,,,,,,42,78,1,283,0.562377636,-2.435925162,38,Experiment,,,,,,,,,127,52,-14,-14,,,,,,,,,,,,,,,661.431398,661.9281971,661.431398,661.9281971,80.95238095,1575400233,1575400235,2.45025897,1575400230,1575400233,,,S2,1,27,f,resident,2019_Dec_03_1300,AdjustEyeTrack,3.1.5,59.50416181
79,Stimuli/Morph79.JPG,Stimuli/Morph79.png,Stimuli/BlurLevel5/BlurEditedMorph79,Stimuli/BlurLevel5/BlurEditedMorph79.png,Stimuli/BlurLevel5/NumberedMorphs/BlurEditedMorph79.png,Stimuli/BlurLevel5/OriginalBlur/BlurEditedMorph79.png,Stimuli/BlurMorphTrio/EditedMorph79.png,020239right.gif,Stimuli/normal_thumbnails/79right.gif,,,,,0,0,0,0,0,78,78,78,,,,,,,,,,,,,,,,,,,,,,,81,79,1,105,-0.647047613,2.414814566,79,Experiment,,,,,,,,,94,94,-15,-15,,,,,,,,,,,,,,,666.4632634,666.9613154,666.4632634,666.9613154,79.59183673,1575400238,1575400242,3.750276089,1575400236,1575400238,,,S2,1,27,f,resident,2019_Dec_03_1300,AdjustEyeTrack,3.1.5,59.50416181
47,Stimuli/Morph47.JPG,Stimuli/Morph47.png,Stimuli/BlurLevel5/BlurEditedMorph47,Stimuli/BlurLevel5/BlurEditedMorph47.png,Stimuli/BlurLevel5/NumberedMorphs/BlurEditedMorph47.png,Stimuli/BlurLevel5/OriginalBlur/BlurEditedMorph47.png,Stimuli/BlurMorphTrio/EditedMorph47.png,010130right.gif,Stimuli/normal_thumbnails/47right.gif,,,,,0,0,0,0,0,79,79,46,,,,,,,,,,,,,,,,,,,,,,,5,80,1,14,2.425739316,0.604804739,47,Experiment,,,,,,,,,107,49,-2,-2,,,,,,,,,,,,,,,672.6301566,673.128046,672.6301566,673.128046,97.27891156,1575400244,1575400249,4.517163992,1575400242,1575400244,,,S2,1,27,f,resident,2019_Dec_03_1300,AdjustEyeTrack,3.1.5,59.50416181
131,Stimuli/Morph131.JPG,Stimuli/Morph131.png,Stimuli/BlurLevel5/BlurEditedMorph131,Stimuli/BlurLevel5/BlurEditedMorph131.png,Stimuli/BlurLevel5/NumberedMorphs/BlurEditedMorph131.png,Stimuli/BlurLevel5/OriginalBlur/BlurEditedMorph131.png,Stimuli/BlurMorphTrio/EditedMorph131.png,None,None,,,,,0,0,0,0,0,80,80,130,,,,,,,,,,,,,,,,,,,,,,,15,81,1,232,-1.539153688,-1.970026884,131,Experiment,,,,,,,,,145,119,12,12,,,,,,,,,,,,,,,679.5959614,680.0950839,679.5959614,680.0950839,83.67346939,1575400251,1575400255,3.498131037,1575400249,1575400251,,,S2,1,27,f,resident,2019_Dec_03_1300,AdjustEyeTrack,3.1.5,59.50416181
117,Stimuli/Morph117.JPG,Stimuli/Morph117.png,Stimuli/BlurLevel5/BlurEditedMorph117,Stimuli/BlurLevel5/BlurEditedMorph117.png,Stimuli/BlurLevel5/NumberedMorphs/BlurEditedMorph117.png,Stimuli/BlurLevel5/OriginalBlur/BlurEditedMorph117.png,Stimuli/BlurMorphTrio/EditedMorph117.png,None,None,,,,,0,0,0,0,0,81,81,116,,,,,,,,,,,,,,,,,,,,,,,55,82,1,52,1.539153688,1.970026884,117,Experiment,,,,,,,,,116,116,1,1,,,,,,,,,,,,,,,685.7645866,686.2612306,685.7645866,686.2612306,98.63945578,1575400257,1575400258,0.684363127,1575400255,1575400257,,,S2,1,27,f,resident,2019_Dec_03_1300,AdjustEyeTrack,3.1.5,59.50416181
63,Stimuli/Morph63.JPG,Stimuli/Morph63.png,Stimuli/BlurLevel5/BlurEditedMorph63,Stimuli/BlurLevel5/BlurEditedMorph63.png,Stimuli/BlurLevel5/NumberedMorphs/BlurEditedMorph63.png,Stimuli/BlurLevel5/OriginalBlur/BlurEditedMorph63.png,Stimuli/BlurMorphTrio/EditedMorph63.png,020206right.gif,Stimuli/normal_thumbnails/63right.gif,,,,,0,0,0,0,0,82,82,62,,,,,,,,,,,,,,,,,,,,,,,56,83,1,321,1.942864904,-1.573300978,63,Experiment,,,,,,,,,77,77,-14,-14,,,,,,,,,,,,,,,689.5460328,690.0449852,689.5460328,690.0449852,80.95238095,1575400261,1575400262,1.317424059,1575400258,1575400261,,,S2,1,27,f,resident,2019_Dec_03_1300,AdjustEyeTrack,3.1.5,59.50416181
89,Stimuli/Morph89.JPG,Stimuli/Morph89.png,Stimuli/BlurLevel5/BlurEditedMorph89,Stimuli/BlurLevel5/BlurEditedMorph89.png,Stimuli/BlurLevel5/NumberedMorphs/BlurEditedMorph89.png,Stimuli/BlurLevel5/OriginalBlur/BlurEditedMorph89.png,Stimuli/BlurMorphTrio/EditedMorph89.png,020273right.gif,Stimuli/normal_thumbnails/89right.gif,,,,,0,0,0,0,0,83,83,88,,,,,,,,,,,,,,,,,,,,,,,12,84,1,348,2.445369002,-0.519779227,89,Experiment,,,,,,,,,26,88,1,1,,,,,,,,,,,,,,,693.7677286,694.2610951,693.7677286,694.2610951,98.63945578,1575400265,1575400270,4.783696175,1575400263,1575400265,,,S2,1,27,f,resident,2019_Dec_03_1300,AdjustEyeTrack,3.1.5,59.50416181
100,Stimuli/Morph100.JPG,Stimuli/Morph100.png,Stimuli/BlurLevel5/BlurEditedMorph100,Stimuli/BlurLevel5/BlurEditedMorph100.png,Stimuli/BlurLevel5/NumberedMorphs/BlurEditedMorph100.png,Stimuli/BlurLevel5/OriginalBlur/BlurEditedMorph100.png,Stimuli/BlurMorphTrio/EditedMorph100.png,020297right.gif,Stimuli/normal_thumbnails/100right.gif,,,,,0,0,0,0,0,84,84,99,,,,,,,,,,,,,,,,,,,,,,,82,85,1,65,1.056545654,2.265769468,100,Experiment,,,,,,,,,10,93,7,7,,,,,,,,,,,,,,,701.5638704,702.0612443,701.5638704,702.0612443,90.47619048,1575400273,1575400276,3.416496992,1575400270,1575400273,,,S2,1,27,f,resident,2019_Dec_03_1300,AdjustEyeTrack,3.1.5,59.50416181
78,Stimuli/Morph78.JPG,Stimuli/Morph78.png,Stimuli/BlurLevel5/BlurEditedMorph78,Stimuli/BlurLevel5/BlurEditedMorph78.png,Stimuli/BlurLevel5/NumberedMorphs/BlurEditedMorph78.png,Stimuli/BlurLevel5/OriginalBlur/BlurEditedMorph78.png,Stimuli/BlurMorphTrio/EditedMorph78.png,020238right.gif,Stimuli/normal_thumbnails/78right.gif,,,,,1,0,1,0,0,0,0,77,,,,,,,,,,,,,,,,,,,,,,,92,1,2,135,-1.767766953,1.767766953,78,Experiment,,,,,,,,,111,81,-3,-3,,,,,,,,,,,,,,,731.8051501,732.3271699,731.8051501,732.3271699,95.91836735,1575400303,1575400307,3.284216881,1575400301,1575400303,space,23.50729832,S2,1,27,f,resident,2019_Dec_03_1300,AdjustEyeTrack,3.1.5,59.50416181
7,Stimuli/Morph7.JPG,Stimuli/Morph7.png,Stimuli/BlurLevel5/BlurEditedMorph7,Stimuli/BlurLevel5/BlurEditedMorph7.png,Stimuli/BlurLevel5/NumberedMorphs/BlurEditedMorph7.png,Stimuli/BlurLevel5/OriginalBlur/BlurEditedMorph7.png,Stimuli/BlurMorphTrio/EditedMorph7.png,010013right.gif,Stimuli/normal_thumbnails/7right.gif,,,,,1,0,1,0,0,1,1,6,,,,,,,,,,,,,,,,,,,,,,,90,2,2,330,2.165063509,-1.25,7,Experiment,,,,,,,,,32,15,-8,-8,,,,,,,,,,,,,,,737.7002268,738.1943834,737.7002268,738.1943834,89.11564626,1575400309,1575400312,2.93358016,1575400307,1575400309,,,S2,1,27,f,resident,2019_Dec_03_1300,AdjustEyeTrack,3.1.5,59.50416181
63,Stimuli/Morph63.JPG,Stimuli/Morph63.png,Stimuli/BlurLevel5/BlurEditedMorph63,Stimuli/BlurLevel5/BlurEditedMorph63.png,Stimuli/BlurLevel5/NumberedMorphs/BlurEditedMorph63.png,Stimuli/BlurLevel5/OriginalBlur/BlurEditedMorph63.png,Stimuli/BlurMorphTrio/EditedMorph63.png,020206right.gif,Stimuli/normal_thumbnails/63right.gif,,,,,1,0,1,0,0,2,2,62,,,,,,,,,,,,,,,,,,,,,,,76,3,2,110,-0.855050358,2.349231552,63,Experiment,,,,,,,,,31,129,-66,-66,,,,,,,,,,,,,,,742.87857,743.3763307,742.87857,743.3763307,10.20408163,1575400314,1575400319,4.599761963,1575400312,1575400314,,,S2,1,27,f,resident,2019_Dec_03_1300,AdjustEyeTrack,3.1.5,59.50416181
62,Stimuli/Morph62.JPG,Stimuli/Morph62.png,Stimuli/BlurLevel5/BlurEditedMorph62,Stimuli/BlurLevel5/BlurEditedMorph62.png,Stimuli/BlurLevel5/NumberedMorphs/BlurEditedMorph62.png,Stimuli/BlurLevel5/OriginalBlur/BlurEditedMorph62.png,Stimuli/BlurMorphTrio/EditedMorph62.png,020205right.gif,Stimuli/normal_thumbnails/62right.gif,,,,,1,0,1,0,0,3,3,61,,,,,,,,,,,,,,,,,,,,,,,24,4,2,217,-1.996588775,-1.504537558,62,Experiment,,,,,,,,,38,53,9,9,,,,,,,,,,,,,,,750.1605887,750.6607016,750.1605887,750.6607016,87.75510204,1575400322,1575400323,1.61679697,1575400319,1575400322,,,S2,1,27,f,resident,2019_Dec_03_1300,AdjustEyeTrack,3.1.5,59.50416181
94,Stimuli/Morph94.JPG,Stimuli/Morph94.png,Stimuli/BlurLevel5/BlurEditedMorph94,Stimuli/BlurLevel5/BlurEditedMorph94.png,Stimuli/BlurLevel5/NumberedMorphs/BlurEditedMorph94.png,Stimuli/BlurLevel5/OriginalBlur/BlurEditedMorph94.png,Stimuli/BlurMorphTrio/EditedMorph94.png,020286right.gif,Stimuli/normal_thumbnails/94right.gif,,,,,1,0,1,0,0,4,4,93,,,,,,,,,,,,,,,,,,,,,,,28,5,2,312,1.672826516,-1.857862064,94,Experiment,,,,,,,,,132,105,-11,-11,,,,,,,,,,,,,,,754.7876013,755.2948129,754.7876013,755.2948129,85.03401361,1575400326,1575400329,2.366583109,1575400324,1575400326,,,S2,1,27,f,resident,2019_Dec_03_1300,AdjustEyeTrack,3.1.5,59.50416181
90,Stimuli/Morph90.JPG,Stimuli/Morph90.png,Stimuli/BlurLevel5/BlurEditedMorph90,Stimuli/BlurLevel5/BlurEditedMorph90.png,Stimuli/BlurLevel5/NumberedMorphs/BlurEditedMorph90.png,Stimuli/BlurLevel5/OriginalBlur/BlurEditedMorph90.png,Stimuli/BlurMorphTrio/EditedMorph90.png,020275right.gif,Stimuli/normal_thumbnails/90right.gif,,,,,1,0,1,0,0,5,5,89,,,,,,,,,,,,,,,,,,,,,,,37,6,2,63,1.134976249,2.22751631,90,Experiment,,,,,,,,,141,95,-5,-5,,,,,,,,,,,,,,,759.7965457,760.2932193,759.7965457,760.2932193,93.19727891,1575400331,1575400334,2.633158207,1575400329,1575400331,,,S2,1,27,f,resident,2019_Dec_03_1300,AdjustEyeTrack,3.1.5,59.50416181
5,Stimuli/Morph5.JPG,Stimuli/Morph5.png,Stimuli/BlurLevel5/BlurEditedMorph5,Stimuli/BlurLevel5/BlurEditedMorph5.png,Stimuli/BlurLevel5/NumberedMorphs/BlurEditedMorph5.png,Stimuli/BlurLevel5/OriginalBlur/BlurEditedMorph5.png,Stimuli/BlurMorphTrio/EditedMorph5.png,010011right.gif,Stimuli/normal_thumbnails/5right.gif,,,,,1,0,1,0,0,6,6,4,,,,,,,,,,,,,,,,,,,,,,,18,7,2,235,-1.433941091,-2.047880111,5,Experiment,,,,,,,,,128,128,-123,24,,,,,,,,,,,,,,,764.7101029,765.2102223,764.7101029,765.2102223,67.34693878,1575400336,1575400339,2.833220959,1575400334,1575400336,,,S2,1,27,f,resident,2019_Dec_03_1300,AdjustEyeTrack,3.1.5,59.50416181
37,Stimuli/Morph37.JPG,Stimuli/Morph37.png,Stimuli/BlurLevel5/BlurEditedMorph37,Stimuli/BlurLevel5/BlurEditedMorph37.png,Stimuli/BlurLevel5/NumberedMorphs/BlurEditedMorph37.png,Stimuli/BlurLevel5/OriginalBlur/BlurEditedMorph37.png,Stimuli/BlurMorphTrio/EditedMorph37.png,010097right.gif,Stimuli/normal_thumbnails/37right.gif,,,,,1,0,1,0,0,7,7,36,,,,,,,,,,,,,,,,,,,,,,,49,8,2,19,2.363796439,0.813920386,37,Experiment,,,,,,,,,35,30,7,7,,,,,,,,,,,,,,,770.4512337,770.9596567,770.4512337,770.9596567,90.47619048,1575400342,1575400345,2.600749969,1575400339,1575400342,,,S2,1,27,f,resident,2019_Dec_03_1300,AdjustEyeTrack,3.1.5,59.50416181
47,Stimuli/Morph47.JPG,Stimuli/Morph47.png,Stimuli/BlurLevel5/BlurEditedMorph47,Stimuli/BlurLevel5/BlurEditedMorph47.png,Stimuli/BlurLevel5/NumberedMorphs/BlurEditedMorph47.png,Stimuli/BlurLevel5/OriginalBlur/BlurEditedMorph47.png,Stimuli/BlurMorphTrio/EditedMorph47.png,010130right.gif,Stimuli/normal_thumbnails/47right.gif,,,,,1,0,1,0,0,8,8,46,,,,,,,,,,,,,,,,,,,,,,,92,9,2,41,1.886773951,1.640147572,47,Experiment,,,,,,,,,82,54,-7,-7,,,,,,,,,,,,,,,776.3781158,776.8769042,776.3781158,776.8769042,90.47619048,1575400348,1575400350,1.782558203,1575400345,1575400348,,,S2,1,27,f,resident,2019_Dec_03_1300,AdjustEyeTrack,3.1.5,59.50416181
44,Stimuli/Morph44.JPG,Stimuli/Morph44.png,Stimuli/BlurLevel5/BlurEditedMorph44,Stimuli/BlurLevel5/BlurEditedMorph44.png,Stimuli/BlurLevel5/NumberedMorphs/BlurEditedMorph44.png,Stimuli/BlurLevel5/OriginalBlur/BlurEditedMorph44.png,Stimuli/BlurMorphTrio/EditedMorph44.png,010126right.gif,Stimuli/normal_thumbnails/44right.gif,,,,,1,0,1,0,0,9,9,43,,,,,,,,,,,,,,,,,,,,,,,39,10,2,318,1.857862064,-1.672826516,44,Experiment,,,,,,,,,103,46,-2,-2,,,,,,,,,,,,,,,781.0367252,781.5429426,781.0367252,781.5429426,97.27891156,1575400353,1575400356,3.01700592,1575400350,1575400353,,,S2,1,27,f,resident,2019_Dec_03_1300,AdjustEyeTrack,3.1.5,59.50416181
6,Stimuli/Morph6.JPG,Stimuli/Morph6.png,Stimuli/BlurLevel5/BlurEditedMorph6,Stimuli/BlurLevel5/BlurEditedMorph6.png,Stimuli/BlurLevel5/NumberedMorphs/BlurEditedMorph6.png,Stimuli/BlurLevel5/OriginalBlur/BlurEditedMorph6.png,Stimuli/BlurMorphTrio/EditedMorph6.png,010012right.gif,Stimuli/normal_thumbnails/6right.gif,,,,,1,0,1,0,0,10,10,5,,,,,,,,,,,,,,,,,,,,,,,69,11,2,355,2.490486745,-0.217889357,6,Experiment,,,,,,,,,106,139,-133,14,,,,,,,,,,,,,,,786.8792318,787.3764827,786.8792318,787.3764827,80.95238095,1575400358,1575400361,2.750645876,1575400356,1575400358,,,S2,1,27,f,resident,2019_Dec_03_1300,AdjustEyeTrack,3.1.5,59.50416181
9,Stimuli/Morph9.JPG,Stimuli/Morph9.png,Stimuli/BlurLevel5/BlurEditedMorph9,Stimuli/BlurLevel5/BlurEditedMorph9.png,Stimuli/BlurLevel5/NumberedMorphs/BlurEditedMorph9.png,Stimuli/BlurLevel5/OriginalBlur/BlurEditedMorph9.png,Stimuli/BlurMorphTrio/EditedMorph9.png,010015right.gif,Stimuli/normal_thumbnails/9right.gif,,,,,1,0,1,0,0,11,11,8,,,,,,,,,,,,,,,,,,,,,,,26,12,2,165,-2.414814566,0.647047613,9,Experiment,,,,,,,,,38,24,-15,-15,,,,,,,,,,,,,,,792.2019061,792.6923671,792.2019061,792.6923671,79.59183673,1575400364,1575400368,4.116492987,1575400361,1575400364,,,S2,1,27,f,resident,2019_Dec_03_1300,AdjustEyeTrack,3.1.5,59.50416181
107,Stimuli/Morph107.JPG,Stimuli/Morph107.png,Stimuli/BlurLevel5/BlurEditedMorph107,Stimuli/BlurLevel5/BlurEditedMorph107.png,Stimuli/BlurLevel5/NumberedMorphs/BlurEditedMorph107.png,Stimuli/BlurLevel5/OriginalBlur/BlurEditedMorph107.png,Stimuli/BlurMorphTrio/EditedMorph107.png,None,None,,,,,1,0,1,0,0,12,12,106,,,,,,,,,,,,,,,,,,,,,,,87,13,2,182,-2.498477068,-0.087248742,107,Experiment,,,,,,,,,49,96,11,11,,,,,,,,,,,,,,,799.0508141,799.5423577,799.0508141,799.5423577,85.03401361,1575400371,1575400373,2.749336004,1575400368,1575400371,,,S2,1,27,f,resident,2019_Dec_03_1300,AdjustEyeTrack,3.1.5,59.50416181
121,Stimuli/Morph121.JPG,Stimuli/Morph121.png,Stimuli/BlurLevel5/BlurEditedMorph121,Stimuli/BlurLevel5/BlurEditedMorph121.png,Stimuli/BlurLevel5/NumberedMorphs/BlurEditedMorph121.png,Stimuli/BlurLevel5/OriginalBlur/BlurEditedMorph121.png,Stimuli/BlurMorphTrio/EditedMorph121.png,None,None,,,,,1,0,1,0,0,13,13,120,,,,,,,,,,,,,,,,,,,,,,,97,14,2,87,0.130839891,2.496573837,121,Experiment,,,,,,,,,51,70,51,51,,,,,,,,,,,,,,,804.8158822,805.3094963,804.8158822,805.3094963,30.6122449,1575400376,1575400381,4.68404007,1575400374,1575400376,,,S2,1,27,f,resident,2019_Dec_03_1300,AdjustEyeTrack,3.1.5,59.50416181
65,Stimuli/Morph65.JPG,Stimuli/Morph65.png,Stimuli/BlurLevel5/BlurEditedMorph65,Stimuli/BlurLevel5/BlurEditedMorph65.png,Stimuli/BlurLevel5/NumberedMorphs/BlurEditedMorph65.png,Stimuli/BlurLevel5/OriginalBlur/BlurEditedMorph65.png,Stimuli/BlurMorphTrio/EditedMorph65.png,020209right.gif,Stimuli/normal_thumbnails/65right.gif,,,,,1,0,1,0,0,14,14,64,,,,,,,,,,,,,,,,,,,,,,,61,15,2,23,2.301262134,0.976827821,65,Experiment,,,,,,,,,63,63,2,2,,,,,,,,,,,,,,,812.5967448,813.0924808,812.5967448,813.0924808,97.27891156,1575400384,1575400385,1.150444031,1575400381,1575400384,,,S2,1,27,f,resident,2019_Dec_03_1300,AdjustEyeTrack,3.1.5,59.50416181
146,Stimuli/Morph146.JPG,Stimuli/Morph146.png,Stimuli/BlurLevel5/BlurEditedMorph146,Stimuli/BlurLevel5/BlurEditedMorph146.png,Stimuli/BlurLevel5/NumberedMorphs/BlurEditedMorph146.png,Stimuli/BlurLevel5/OriginalBlur/BlurEditedMorph146.png,Stimuli/BlurMorphTrio/EditedMorph146.png,None,None,,,,,1,0,1,0,0,15,15,145,,,,,,,,,,,,,,,,,,,,,,,85,16,2,174,-2.486304738,0.261321158,146,Experiment,,,,,,,,,88,117,29,29,,,,,,,,,,,,,,,816.5633241,817.0983168,816.5633241,817.0983168,60.54421769,1575400388,1575400391,2.63303113,1575400386,1575400388,,,S2,1,27,f,resident,2019_Dec_03_1300,AdjustEyeTrack,3.1.5,59.50416181
74,Stimuli/Morph74.JPG,Stimuli/Morph74.png,Stimuli/BlurLevel5/BlurEditedMorph74,Stimuli/BlurLevel5/BlurEditedMorph74.png,Stimuli/BlurLevel5/NumberedMorphs/BlurEditedMorph74.png,Stimuli/BlurLevel5/OriginalBlur/BlurEditedMorph74.png,Stimuli/BlurMorphTrio/EditedMorph74.png,020232right.gif,Stimuli/normal_thumbnails/74right.gif,,,,,1,0,1,0,0,16,16,73,,,,,,,,,,,,,,,,,,,,,,,99,17,2,68,0.936516484,2.317959636,74,Experiment,,,,,,,,,133,145,-71,-71,,,,,,,,,,,,,,,821.6841904,822.1927222,821.6841904,822.1927222,3.401360544,1575400393,1575400395,1.716516018,1575400391,1575400393,,,S2,1,27,f,resident,2019_Dec_03_1300,AdjustEyeTrack,3.1.5,59.50416181
33,Stimuli/Morph33.JPG,Stimuli/Morph33.png,Stimuli/BlurLevel5/BlurEditedMorph33,Stimuli/BlurLevel5/BlurEditedMorph33.png,Stimuli/BlurLevel5/NumberedMorphs/BlurEditedMorph33.png,Stimuli/BlurLevel5/OriginalBlur/BlurEditedMorph33.png,Stimuli/BlurMorphTrio/EditedMorph33.png,010089right.gif,Stimuli/normal_thumbnails/33right.gif,,,,,1,0,1,0,0,17,17,32,,,,,,,,,,,,,,,,,,,,,,,41,18,2,80,0.434120444,2.462019383,33,Experiment,,,,,,,,,46,13,20,20,,,,,,,,,,,,,,,826.343521,826.87643,826.343521,826.87643,72.78911565,1575400398,1575400400,2.401842833,1575400395,1575400398,,,S2,1,27,f,resident,2019_Dec_03_1300,AdjustEyeTrack,3.1.5,59.50416181
28,Stimuli/Morph28.JPG,Stimuli/Morph28.png,Stimuli/BlurLevel5/BlurEditedMorph28,Stimuli/BlurLevel5/BlurEditedMorph28.png,Stimuli/BlurLevel5/NumberedMorphs/BlurEditedMorph28.png,Stimuli/BlurLevel5/OriginalBlur/BlurEditedMorph28.png,Stimuli/BlurMorphTrio/EditedMorph28.png,010073right.gif,Stimuli/normal_thumbnails/28right.gif,,,,,1,0,1,0,0,18,18,27,,,,,,,,,,,,,,,,,,,,,,,92,19,2,76,0.604804739,2.425739316,28,Experiment,,,,,,,,,59,6,22,22,,,,,,,,,,,,,,,831.8437798,832.3427825,831.8437798,832.3427825,70.06802721,1575400403,1575400406,3.000593901,1575400401,1575400403,,,S2,1,27,f,resident,2019_Dec_03_1300,AdjustEyeTrack,3.1.5,59.50416181
53,Stimuli/Morph53.JPG,Stimuli/Morph53.png,Stimuli/BlurLevel5/BlurEditedMorph53,Stimuli/BlurLevel5/BlurEditedMorph53.png,Stimuli/BlurLevel5/NumberedMorphs/BlurEditedMorph53.png,Stimuli/BlurLevel5/OriginalBlur/BlurEditedMorph53.png,Stimuli/BlurMorphTrio/EditedMorph53.png,010149right.gif,Stimuli/normal_thumbnails/53right.gif,,,,,1,0,1,0,0,19,19,52,,,,,,,,,,,,,,,,,,,,,,,76,20,2,169,-2.454067959,0.477022488,53,Experiment,,,,,,,,,1,115,-62,-62,,,,,,,,,,,,,,,837.1925915,837.692633,837.1925915,837.692633,15.6462585,1575400409,1575400412,3.667732954,1575400407,1575400409,,,S2,1,27,f,resident,2019_Dec_03_1300,AdjustEyeTrack,3.1.5,59.50416181
41,Stimuli/Morph41.JPG,Stimuli/Morph41.png,Stimuli/BlurLevel5/BlurEditedMorph41,Stimuli/BlurLevel5/BlurEditedMorph41.png,Stimuli/BlurLevel5/NumberedMorphs/BlurEditedMorph41.png,Stimuli/BlurLevel5/OriginalBlur/BlurEditedMorph41.png,Stimuli/BlurMorphTrio/EditedMorph41.png,010112right.gif,Stimuli/normal_thumbnails/41right.gif,,,,,1,0,1,0,0,20,20,40,,,,,,,,,,,,,,,,,,,,,,,87,21,2,38,1.970026884,1.539153688,41,Experiment,,,,,,,,,96,96,-55,-55,,,,,,,,,,,,,,,843.7454363,844.2428204,843.7454363,844.2428204,25.17006803,1575400415,1575400416,1.23489213,1575400413,1575400415,,,S2,1,27,f,resident,2019_Dec_03_1300,AdjustEyeTrack,3.1.5,59.50416181
106,Stimuli/Morph106.JPG,Stimuli/Morph106.png,Stimuli/BlurLevel5/BlurEditedMorph106,Stimuli/BlurLevel5/BlurEditedMorph106.png,Stimuli/BlurLevel5/NumberedMorphs/BlurEditedMorph106.png,Stimuli/BlurLevel5/OriginalBlur/BlurEditedMorph106.png,Stimuli/BlurMorphTrio/EditedMorph106.png,None,None,,,,,1,0,1,0,0,21,21,105,,,,,,,,,,,,,,,,,,,,,,,47,22,2,114,-1.016841608,2.283863644,106,Experiment,,,,,,,,,138,108,-2,-2,,,,,,,,,,,,,,,847.9630389,848.4592914,847.9630389,848.4592914,97.27891156,1575400419,1575400422,2.701445103,1575400417,1575400419,,,S2,1,27,f,resident,2019_Dec_03_1300,AdjustEyeTrack,3.1.5,59.50416181
134,Stimuli/Morph134.JPG,Stimuli/Morph134.png,Stimuli/BlurLevel5/BlurEditedMorph134,Stimuli/BlurLevel5/BlurEditedMorph134.png,Stimuli/BlurLevel5/NumberedMorphs/BlurEditedMorph134.png,Stimuli/BlurLevel5/OriginalBlur/BlurEditedMorph134.png,Stimuli/BlurMorphTrio/EditedMorph134.png,None,None,,,,,1,0,1,0,0,22,22,133,,,,,,,,,,,,,,,,,,,,,,,30,23,2,147,-2.09667642,1.361597588,134,Experiment,,,,,,,,,118,118,16,16,,,,,,,,,,,,,,,853.3201774,853.8264802,853.3201774,853.8264802,78.23129252,1575400425,1575400426,0.968342066,1575400422,1575400425,,,S2,1,27,f,resident,2019_Dec_03_1300,AdjustEyeTrack,3.1.5,59.50416181
111,Stimuli/Morph111.JPG,Stimuli/Morph111.png,Stimuli/BlurLevel5/BlurEditedMorph111,Stimuli/BlurLevel5/BlurEditedMorph111.png,Stimuli/BlurLevel5/NumberedMorphs/BlurEditedMorph111.png,Stimuli/BlurLevel5/OriginalBlur/BlurEditedMorph111.png,Stimuli/BlurMorphTrio/EditedMorph111.png,None,None,,,,,1,0,1,0,0,23,23,110,,,,,,,,,,,,,,,,,,,,,,,78,24,2,55,1.433941091,2.047880111,111,Experiment,,,,,,,,,114,114,-3,-3,,,,,,,,,,,,,,,856.9918662,857.4925154,856.9918662,857.4925154,95.91836735,1575400429,1575400430,1.099561214,1575400426,1575400428,,,S2,1,27,f,resident,2019_Dec_03_1300,AdjustEyeTrack,3.1.5,59.50416181
125,Stimuli/Morph125.JPG,Stimuli/Morph125.png,Stimuli/BlurLevel5/BlurEditedMorph125,Stimuli/BlurLevel5/BlurEditedMorph125.png,Stimuli/BlurLevel5/NumberedMorphs/BlurEditedMorph125.png,Stimuli/BlurLevel5/OriginalBlur/BlurEditedMorph125.png,Stimuli/BlurMorphTrio/EditedMorph125.png,None,None,,,,,1,0,1,0,0,24,24,124,,,,,,,,,,,,,,,,,,,,,,,19,25,2,302,1.324798161,-2.12012024,125,Experiment,,,,,,,,,120,114,11,11,,,,,,,,,,,,,,,860.8985754,861.3929973,860.8985754,861.3929973,85.03401361,1575400432,1575400435,2.118724108,1575400430,1575400432,,,S2,1,27,f,resident,2019_Dec_03_1300,AdjustEyeTrack,3.1.5,59.50416181
100,Stimuli/Morph100.JPG,Stimuli/Morph100.png,Stimuli/BlurLevel5/BlurEditedMorph100,Stimuli/BlurLevel5/BlurEditedMorph100.png,Stimuli/BlurLevel5/NumberedMorphs/BlurEditedMorph100.png,Stimuli/BlurLevel5/OriginalBlur/BlurEditedMorph100.png,Stimuli/BlurMorphTrio/EditedMorph100.png,020297right.gif,Stimuli/normal_thumbnails/100right.gif,,,,,1,0,1,0,0,25,25,99,,,,,,,,,,,,,,,,,,,,,,,59,26,2,287,0.730929262,-2.39076189,100,Experiment,,,,,,,,,14,100,0,0,,,,,,,,,,,,,,,865.2944408,865.7917272,865.2944408,865.7917272,100,1575400437,1575400439,2.415845871,1575400435,1575400437,,,S2,1,27,f,resident,2019_Dec_03_1300,AdjustEyeTrack,3.1.5,59.50416181
73,Stimuli/Morph73.JPG,Stimuli/Morph73.png,Stimuli/BlurLevel5/BlurEditedMorph73,Stimuli/BlurLevel5/BlurEditedMorph73.png,Stimuli/BlurLevel5/NumberedMorphs/BlurEditedMorph73.png,Stimuli/BlurLevel5/OriginalBlur/BlurEditedMorph73.png,Stimuli/BlurMorphTrio/EditedMorph73.png,020230right.gif,Stimuli/normal_thumbnails/73right.gif,,,,,1,0,1,0,0,26,26,72,,,,,,,,,,,,,,,,,,,,,,,98,27,2,17,2.39076189,0.730929262,73,Experiment,,,,,,,,,124,81,-8,-8,,,,,,,,,,,,,,,870.7388876,871.2426107,870.7388876,871.2426107,89.11564626,1575400442,1575400446,4.116272211,1575400439,1575400442,,,S2,1,27,f,resident,2019_Dec_03_1300,AdjustEyeTrack,3.1.5,59.50416181
138,Stimuli/Morph138.JPG,Stimuli/Morph138.png,Stimuli/BlurLevel5/BlurEditedMorph138,Stimuli/BlurLevel5/BlurEditedMorph138.png,Stimuli/BlurLevel5/NumberedMorphs/BlurEditedMorph138.png,Stimuli/BlurLevel5/OriginalBlur/BlurEditedMorph138.png,Stimuli/BlurMorphTrio/EditedMorph138.png,None,None,,,,,1,0,1,0,0,27,27,137,,,,,,,,,,,,,,,,,,,,,,,5,28,2,83,0.304673359,2.481365379,138,Experiment,,,,,,,,,52,76,62,62,,,,,,,,,,,,,,,877.675926,878.1751864,877.675926,878.1751864,15.6462585,1575400449,1575400453,4.038160086,1575400447,1575400449,,,S2,1,27,f,resident,2019_Dec_03_1300,AdjustEyeTrack,3.1.5,59.50416181
104,Stimuli/Morph104.JPG,Stimuli/Morph104.png,Stimuli/BlurLevel5/BlurEditedMorph104,Stimuli/BlurLevel5/BlurEditedMorph104.png,Stimuli/BlurLevel5/NumberedMorphs/BlurEditedMorph104.png,Stimuli/BlurLevel5/OriginalBlur/BlurEditedMorph104.png,Stimuli/BlurMorphTrio/EditedMorph104.png,None,None,,,,,1,0,1,0,0,28,28,103,,,,,,,,,,,,,,,,,,,,,,,15,29,2,323,1.996588775,-1.504537558,104,Experiment,,,,,,,,,52,95,9,9,,,,,,,,,,,,,,,884.4454362,884.947943,884.4454362,884.947943,87.75510204,1575400456,1575400459,2.983979702,1575400453,1575400456,,,S2,1,27,f,resident,2019_Dec_03_1300,AdjustEyeTrack,3.1.5,59.50416181
105,Stimuli/Morph105.JPG,Stimuli/Morph105.png,Stimuli/BlurLevel5/BlurEditedMorph105,Stimuli/BlurLevel5/BlurEditedMorph105.png,Stimuli/BlurLevel5/NumberedMorphs/BlurEditedMorph105.png,Stimuli/BlurLevel5/OriginalBlur/BlurEditedMorph105.png,Stimuli/BlurMorphTrio/EditedMorph105.png,None,None,,,,,1,0,1,0,0,29,29,104,,,,,,,,,,,,,,,,,,,,,,,56,30,2,279,0.391086163,-2.469220851,105,Experiment,,,,,,,,,16,93,12,12,,,,,,,,,,,,,,,890.4606094,890.9583933,890.4606094,890.9583933,83.67346939,1575400462,1575400465,3.299273968,1575400459,1575400462,,,S2,1,27,f,resident,2019_Dec_03_1300,AdjustEyeTrack,3.1.5,59.50416181
81,Stimuli/Morph81.JPG,Stimuli/Morph81.png,Stimuli/BlurLevel5/BlurEditedMorph81,Stimuli/BlurLevel5/BlurEditedMorph81.png,Stimuli/BlurLevel5/NumberedMorphs/BlurEditedMorph81.png,Stimuli/BlurLevel5/OriginalBlur/BlurEditedMorph81.png,Stimuli/BlurMorphTrio/EditedMorph81.png,020245right.gif,Stimuli/normal_thumbnails/81right.gif,,,,,1,0,1,0,0,30,30,80,,,,,,,,,,,,,,,,,,,,,,,66,31,2,189,-2.469220851,-0.391086163,81,Experiment,,,,,,,,,108,108,-27,-27,,,,,,,,,,,,,,,896.3754885,896.8748295,896.3754885,896.8748295,63.26530612,1575400468,1575400469,1.213412762,1575400466,1575400468,,,S2,1,27,f,resident,2019_Dec_03_1300,AdjustEyeTrack,3.1.5,59.50416181
27,Stimuli/Morph27.JPG,Stimuli/Morph27.png,Stimuli/BlurLevel5/BlurEditedMorph27,Stimuli/BlurLevel5/BlurEditedMorph27.png,Stimuli/BlurLevel5/NumberedMorphs/BlurEditedMorph27.png,Stimuli/BlurLevel5/OriginalBlur/BlurEditedMorph27.png,Stimuli/BlurMorphTrio/EditedMorph27.png,010072right.gif,Stimuli/normal_thumbnails/27right.gif,,,,,1,0,1,0,0,31,31,26,,,,,,,,,,,,,,,,,,,,,,,67,32,2,9,2.469220851,0.391086163,27,Experiment,,,,,,,,,130,23,4,4,,,,,,,,,,,,,,,900.6292993,901.1243104,900.6292993,901.1243104,94.55782313,1575400472,1575400475,3.231961727,1575400469,1575400472,,,S2,1,27,f,resident,2019_Dec_03_1300,AdjustEyeTrack,3.1.5,59.50416181
108,Stimuli/Morph108.JPG,Stimuli/Morph108.png,Stimuli/BlurLevel5/BlurEditedMorph108,Stimuli/BlurLevel5/BlurEditedMorph108.png,Stimuli/BlurLevel5/NumberedMorphs/BlurEditedMorph108.png,Stimuli/BlurLevel5/OriginalBlur/BlurEditedMorph108.png,Stimuli/BlurMorphTrio/EditedMorph108.png,None,None,,,,,1,0,1,0,0,32,32,107,,,,,,,,,,,,,,,,,,,,,,,86,33,2,188,-2.475670172,-0.347932752,108,Experiment,,,,,,,,,92,92,16,16,,,,,,,,,,,,,,,906.4967854,907.2081656,906.4967854,907.2081656,78.23129252,1575400478,1575400479,1.082592249,1575400476,1575400478,,,S2,1,27,f,resident,2019_Dec_03_1300,AdjustEyeTrack,3.1.5,59.50416181
69,Stimuli/Morph69.JPG,Stimuli/Morph69.png,Stimuli/BlurLevel5/BlurEditedMorph69,Stimuli/BlurLevel5/BlurEditedMorph69.png,Stimuli/BlurLevel5/NumberedMorphs/BlurEditedMorph69.png,Stimuli/BlurLevel5/OriginalBlur/BlurEditedMorph69.png,Stimuli/BlurMorphTrio/EditedMorph69.png,020220right.gif,Stimuli/normal_thumbnails/69right.gif,,,,,1,0,1,0,0,33,33,68,,,,,,,,,,,,,,,,,,,,,,,62,34,2,40,1.915111108,1.606969024,69,Experiment,,,,,,,,,109,52,17,17,,,,,,,,,,,,,,,910.3584124,910.8579957,910.3584124,910.8579957,76.8707483,1575400482,1575400485,3.367003202,1575400480,1575400482,,,S2,1,27,f,resident,2019_Dec_03_1300,AdjustEyeTrack,3.1.5,59.50416181
57,Stimuli/Morph57.JPG,Stimuli/Morph57.png,Stimuli/BlurLevel5/BlurEditedMorph57,Stimuli/BlurLevel5/BlurEditedMorph57.png,Stimuli/BlurLevel5/NumberedMorphs/BlurEditedMorph57.png,Stimuli/BlurLevel5/OriginalBlur/BlurEditedMorph57.png,Stimuli/BlurMorphTrio/EditedMorph57.png,010158right.gif,Stimuli/normal_thumbnails/57right.gif,,,,,1,0,1,0,0,34,34,56,,,,,,,,,,,,,,,,,,,,,,,4,35,2,132,-1.672826516,1.857862064,57,Experiment,,,,,,,,,22,52,5,5,,,,,,,,,,,,,,,916.5717205,917.0747543,916.5717205,917.0747543,93.19727891,1575400488,1575400491,3.067798853,1575400486,1575400488,,,S2,1,27,f,resident,2019_Dec_03_1300,AdjustEyeTrack,3.1.5,59.50416181
132,Stimuli/Morph132.JPG,Stimuli/Morph132.png,Stimuli/BlurLevel5/BlurEditedMorph132,Stimuli/BlurLevel5/BlurEditedMorph132.png,Stimuli/BlurLevel5/NumberedMorphs/BlurEditedMorph132.png,Stimuli/BlurLevel5/OriginalBlur/BlurEditedMorph132.png,Stimuli/BlurMorphTrio/EditedMorph132.png,None,None,,,,,1,0,1,0,0,35,35,131,,,,,,,,,,,,,,,,,,,,,,,50,36,2,246,-1.016841608,-2.283863644,132,Experiment,,,,,,,,,20,124,8,8,,,,,,,,,,,,,,,922.5761098,923.0750762,922.5761098,923.0750762,89.11564626,1575400494,1575400498,3.639672995,1575400491,1575400494,,,S2,1,27,f,resident,2019_Dec_03_1300,AdjustEyeTrack,3.1.5,59.50416181
88,Stimuli/Morph88.JPG,Stimuli/Morph88.png,Stimuli/BlurLevel5/BlurEditedMorph88,Stimuli/BlurLevel5/BlurEditedMorph88.png,Stimuli/BlurLevel5/NumberedMorphs/BlurEditedMorph88.png,Stimuli/BlurLevel5/OriginalBlur/BlurEditedMorph88.png,Stimuli/BlurMorphTrio/EditedMorph88.png,020271right.gif,Stimuli/normal_thumbnails/88right.gif,,,,,1,0,1,0,0,36,36,87,,,,,,,,,,,,,,,,,,,,,,,51,37,2,332,2.207368982,-1.173678907,88,Experiment,,,,,,,,,134,96,-8,-8,,,,,,,,,,,,,,,929.2608726,929.7580289,929.2608726,929.7580289,89.11564626,1575400501,1575400505,4.166825056,1575400498,1575400501,,,S2,1,27,f,resident,2019_Dec_03_1300,AdjustEyeTrack,3.1.5,59.50416181
20,Stimuli/Morph20.JPG,Stimuli/Morph20.png,Stimuli/BlurLevel5/BlurEditedMorph20,Stimuli/BlurLevel5/BlurEditedMorph20.png,Stimuli/BlurLevel5/NumberedMorphs/BlurEditedMorph20.png,Stimuli/BlurLevel5/OriginalBlur/BlurEditedMorph20.png,Stimuli/BlurMorphTrio/EditedMorph20.png,010046right.gif,Stimuli/normal_thumbnails/20right.gif,,,,,1,0,1,0,0,37,37,19,,,,,,,,,,,,,,,,,,,,,,,56,38,2,234,-1.469463131,-2.022542486,20,Experiment,,,,,,,,,126,16,4,4,,,,,,,,,,,,,,,936.6427086,937.1404815,936.6427086,937.1404815,94.55782313,1575400508,1575400511,2.883890867,1575400505,1575400508,,,S2,1,27,f,resident,2019_Dec_03_1300,AdjustEyeTrack,3.1.5,59.50416181
147,Stimuli/Morph147.JPG,Stimuli/Morph147.png,Stimuli/BlurLevel5/BlurEditedMorph147,Stimuli/BlurLevel5/BlurEditedMorph147.png,Stimuli/BlurLevel5/NumberedMorphs/BlurEditedMorph147.png,Stimuli/BlurLevel5/OriginalBlur/BlurEditedMorph147.png,Stimuli/BlurMorphTrio/EditedMorph147.png,None,None,,,,,1,0,1,0,0,38,38,146,,,,,,,,,,,,,,,,,,,,,,,77,39,2,48,1.672826516,1.857862064,147,Experiment,,,,,,,,,11,139,8,8,,,,,,,,,,,,,,,942.3750199,942.8743655,942.3750199,942.8743655,89.11564626,1575400514,1575400516,2.21644783,1575400511,1575400514,,,S2,1,27,f,resident,2019_Dec_03_1300,AdjustEyeTrack,3.1.5,59.50416181
3,Stimuli/Morph3.JPG,Stimuli/Morph3.png,Stimuli/BlurLevel5/BlurEditedMorph3,Stimuli/BlurLevel5/BlurEditedMorph3.png,Stimuli/BlurLevel5/NumberedMorphs/BlurEditedMorph3.png,Stimuli/BlurLevel5/OriginalBlur/BlurEditedMorph3.png,Stimuli/BlurMorphTrio/EditedMorph3.png,010009right.gif,Stimuli/normal_thumbnails/3right.gif,,,,,1,0,1,0,0,39,39,2,,,,,,,,,,,,,,,,,,,,,,,39,40,2,312,1.672826516,-1.857862064,3,Experiment,,,,,,,,,12,127,-124,23,,,,,,,,,,,,,,,947.3799251,947.8745331,947.3799251,947.8745331,68.70748299,1575400519,1575400521,1.63302207,1575400516,1575400519,,,S2,1,27,f,resident,2019_Dec_03_1300,AdjustEyeTrack,3.1.5,59.50416181
40,Stimuli/Morph40.JPG,Stimuli/Morph40.png,Stimuli/BlurLevel5/BlurEditedMorph40,Stimuli/BlurLevel5/BlurEditedMorph40.png,Stimuli/BlurLevel5/NumberedMorphs/BlurEditedMorph40.png,Stimuli/BlurLevel5/OriginalBlur/BlurEditedMorph40.png,Stimuli/BlurMorphTrio/EditedMorph40.png,010110right.gif,Stimuli/normal_thumbnails/40right.gif,,,,,1,0,1,0,0,40,40,39,,,,,,,,,,,,,,,,,,,,,,,59,41,2,14,2.425739316,0.604804739,40,Experiment,,,,,,,,,96,135,-95,52,,,,,,,,,,,,,,,951.2677749,951.7570896,951.2677749,951.7570896,29.25170068,1575400523,1575400526,3.298942089,1575400521,1575400523,,,S2,1,27,f,resident,2019_Dec_03_1300,AdjustEyeTrack,3.1.5,59.50416181
79,Stimuli/Morph79.JPG,Stimuli/Morph79.png,Stimuli/BlurLevel5/BlurEditedMorph79,Stimuli/BlurLevel5/BlurEditedMorph79.png,Stimuli/BlurLevel5/NumberedMorphs/BlurEditedMorph79.png,Stimuli/BlurLevel5/OriginalBlur/BlurEditedMorph79.png,Stimuli/BlurMorphTrio/EditedMorph79.png,020239right.gif,Stimuli/normal_thumbnails/79right.gif,,,,,1,0,1,0,0,41,41,78,,,,,,,,,,,,,,,,,,,,,,,45,42,2,337,2.301262134,-0.976827821,79,Experiment,,,,,,,,,52,102,-23,-23,,,,,,,,,,,,,,,957.1626216,957.6567597,957.1626216,957.6567597,68.70748299,1575400529,1575400532,3.097939968,1575400526,1575400529,,,S2,1,27,f,resident,2019_Dec_03_1300,AdjustEyeTrack,3.1.5,59.50416181
66,Stimuli/Morph66.JPG,Stimuli/Morph66.png,Stimuli/BlurLevel5/BlurEditedMorph66,Stimuli/BlurLevel5/BlurEditedMorph66.png,Stimuli/BlurLevel5/NumberedMorphs/BlurEditedMorph66.png,Stimuli/BlurLevel5/OriginalBlur/BlurEditedMorph66.png,Stimuli/BlurMorphTrio/EditedMorph66.png,020212right.gif,Stimuli/normal_thumbnails/66right.gif,,,,,1,0,1,0,0,42,42,65,,,,,,,,,,,,,,,,,,,,,,,90,43,2,99,-0.391086163,2.469220851,66,Experiment,,,,,,,,,13,45,21,21,,,,,,,,,,,,,,,962.9783695,963.4738584,962.9783695,963.4738584,71.42857143,1575400534,1575400539,4.300296068,1575400532,1575400534,,,S2,1,27,f,resident,2019_Dec_03_1300,AdjustEyeTrack,3.1.5,59.50416181
143,Stimuli/Morph143.JPG,Stimuli/Morph143.png,Stimuli/BlurLevel5/BlurEditedMorph143,Stimuli/BlurLevel5/BlurEditedMorph143.png,Stimuli/BlurLevel5/NumberedMorphs/BlurEditedMorph143.png,Stimuli/BlurLevel5/OriginalBlur/BlurEditedMorph143.png,Stimuli/BlurMorphTrio/EditedMorph143.png,None,None,,,,,1,0,1,0,0,43,43,142,,,,,,,,,,,,,,,,,,,,,,,97,44,2,39,1.942864904,1.573300978,143,Experiment,,,,,,,,,40,138,5,5,,,,,,,,,,,,,,,969.8579787,970.357005,969.8579787,970.357005,93.19727891,1575400541,1575400544,2.949482918,1575400539,1575400541,,,S2,1,27,f,resident,2019_Dec_03_1300,AdjustEyeTrack,3.1.5,59.50416181
139,Stimuli/Morph139.JPG,Stimuli/Morph139.png,Stimuli/BlurLevel5/BlurEditedMorph139,Stimuli/BlurLevel5/BlurEditedMorph139.png,Stimuli/BlurLevel5/NumberedMorphs/BlurEditedMorph139.png,Stimuli/BlurLevel5/OriginalBlur/BlurEditedMorph139.png,Stimuli/BlurMorphTrio/EditedMorph139.png,None,None,,,,,1,0,1,0,0,44,44,138,,,,,,,,,,,,,,,,,,,,,,,39,45,2,283,0.562377636,-2.435925162,139,Experiment,,,,,,,,,106,116,23,23,,,,,,,,,,,,,,,975.2910555,975.7900582,975.2910555,975.7900582,68.70748299,1575400547,1575400550,3.482635736,1575400545,1575400547,,,S2,1,27,f,resident,2019_Dec_03_1300,AdjustEyeTrack,3.1.5,59.50416181
71,Stimuli/Morph71.JPG,Stimuli/Morph71.png,Stimuli/BlurLevel5/BlurEditedMorph71,Stimuli/BlurLevel5/BlurEditedMorph71.png,Stimuli/BlurLevel5/NumberedMorphs/BlurEditedMorph71.png,Stimuli/BlurLevel5/OriginalBlur/BlurEditedMorph71.png,Stimuli/BlurMorphTrio/EditedMorph71.png,020225right.gif,Stimuli/normal_thumbnails/71right.gif,,,,,1,0,1,0,0,45,45,70,,,,,,,,,,,,,,,,,,,,,,,64,46,2,334,2.246985116,-1.095927867,71,Experiment,,,,,,,,,9,126,-55,-55,,,,,,,,,,,,,,,981.279445,981.7732083,981.279445,981.7732083,25.17006803,1575400553,1575400558,4.866520882,1575400551,1575400553,,,S2,1,27,f,resident,2019_Dec_03_1300,AdjustEyeTrack,3.1.5,59.50416181
136,Stimuli/Morph136.JPG,Stimuli/Morph136.png,Stimuli/BlurLevel5/BlurEditedMorph136,Stimuli/BlurLevel5/BlurEditedMorph136.png,Stimuli/BlurLevel5/NumberedMorphs/BlurEditedMorph136.png,Stimuli/BlurLevel5/OriginalBlur/BlurEditedMorph136.png,Stimuli/BlurMorphTrio/EditedMorph136.png,None,None,,,,,1,0,1,0,0,46,46,135,,,,,,,,,,,,,,,,,,,,,,,65,47,2,288,0.772542486,-2.377641291,136,Experiment,,,,,,,,,5,118,18,18,,,,,,,,,,,,,,,989.0763551,989.5733188,989.0763551,989.5733188,75.51020408,1575400561,1575400563,2.832854033,1575400558,1575400561,,,S2,1,27,f,resident,2019_Dec_03_1300,AdjustEyeTrack,3.1.5,59.50416181
112,Stimuli/Morph112.JPG,Stimuli/Morph112.png,Stimuli/BlurLevel5/BlurEditedMorph112,Stimuli/BlurLevel5/BlurEditedMorph112.png,Stimuli/BlurLevel5/NumberedMorphs/BlurEditedMorph112.png,Stimuli/BlurLevel5/OriginalBlur/BlurEditedMorph112.png,Stimuli/BlurMorphTrio/EditedMorph112.png,None,None,,,,,1,0,1,0,0,47,47,111,,,,,,,,,,,,,,,,,,,,,,,82,48,2,218,-1.970026884,-1.539153688,112,Experiment,,,,,,,,,48,113,-1,-1,,,,,,,,,,,,,,,994.6486119,995.1569133,994.6486119,995.1569133,98.63945578,1575400566,1575400571,4.635164976,1575400564,1575400566,,,S2,1,27,f,resident,2019_Dec_03_1300,AdjustEyeTrack,3.1.5,59.50416181
99,Stimuli/Morph99.JPG,Stimuli/Morph99.png,Stimuli/BlurLevel5/BlurEditedMorph99,Stimuli/BlurLevel5/BlurEditedMorph99.png,Stimuli/BlurLevel5/NumberedMorphs/BlurEditedMorph99.png,Stimuli/BlurLevel5/OriginalBlur/BlurEditedMorph99.png,Stimuli/BlurMorphTrio/EditedMorph99.png,020299right.gif,Stimuli/normal_thumbnails/99right.gif,,,,,1,0,1,0,0,48,48,98,,,,,,,,,,,,,,,,,,,,,,,94,49,2,28,2.207368982,1.173678907,99,Experiment,,,,,,,,,89,106,-7,-7,,,,,,,,,,,,,,,1002.512203,1003.010244,1002.512203,1003.010244,90.47619048,1575400574,1575400577,2.834251165,1575400571,1575400574,,,S2,1,27,f,resident,2019_Dec_03_1300,AdjustEyeTrack,3.1.5,59.50416181
18,Stimuli/Morph18.JPG,Stimuli/Morph18.png,Stimuli/BlurLevel5/BlurEditedMorph18,Stimuli/BlurLevel5/BlurEditedMorph18.png,Stimuli/BlurLevel5/NumberedMorphs/BlurEditedMorph18.png,Stimuli/BlurLevel5/OriginalBlur/BlurEditedMorph18.png,Stimuli/BlurMorphTrio/EditedMorph18.png,010039right.gif,Stimuli/normal_thumbnails/18right.gif,,,,,1,0,1,0,0,49,49,17,,,,,,,,,,,,,,,,,,,,,,,49,50,2,119,-1.212024051,2.186549268,18,Experiment,,,,,,,,,106,28,-10,-10,,,,,,,,,,,,,,,1008.076751,1008.574201,1008.076751,1008.574201,86.39455782,1575400580,1575400582,2.033199072,1575400577,1575400580,,,S2,1,27,f,resident,2019_Dec_03_1300,AdjustEyeTrack,3.1.5,59.50416181
82,Stimuli/Morph82.JPG,Stimuli/Morph82.png,Stimuli/BlurLevel5/BlurEditedMorph82,Stimuli/BlurLevel5/BlurEditedMorph82.png,Stimuli/BlurLevel5/NumberedMorphs/BlurEditedMorph82.png,Stimuli/BlurLevel5/OriginalBlur/BlurEditedMorph82.png,Stimuli/BlurMorphTrio/EditedMorph82.png,020247right.gif,Stimuli/normal_thumbnails/82right.gif,,,,,1,0,1,0,0,50,50,81,,,,,,,,,,,,,,,,,,,,,,,68,51,2,244,-1.095927867,-2.246985116,82,Experiment,,,,,,,,,5,92,-10,-10,,,,,,,,,,,,,,,1013.092206,1013.589428,1013.092206,1013.589428,86.39455782,1575400585,1575400587,2.034111023,1575400582,1575400585,,,S2,1,27,f,resident,2019_Dec_03_1300,AdjustEyeTrack,3.1.5,59.50416181
14,Stimuli/Morph14.JPG,Stimuli/Morph14.png,Stimuli/BlurLevel5/BlurEditedMorph14,Stimuli/BlurLevel5/BlurEditedMorph14.png,Stimuli/BlurLevel5/NumberedMorphs/BlurEditedMorph14.png,Stimuli/BlurLevel5/OriginalBlur/BlurEditedMorph14.png,Stimuli/BlurMorphTrio/EditedMorph14.png,010030right.gif,Stimuli/normal_thumbnails/14right.gif,,,,,1,0,1,0,0,51,51,13,,,,,,,,,,,,,,,,,,,,,,,74,52,2,225,-1.767766953,-1.767766953,14,Experiment,,,,,,,,,99,2,12,12,,,,,,,,,,,,,,,1017.707322,1018.206599,1017.707322,1018.206599,83.67346939,1575400589,1575400591,2.134499073,1575400587,1575400589,,,S2,1,27,f,resident,2019_Dec_03_1300,AdjustEyeTrack,3.1.5,59.50416181
98,Stimuli/Morph98.JPG,Stimuli/Morph98.png,Stimuli/BlurLevel5/BlurEditedMorph98,Stimuli/BlurLevel5/BlurEditedMorph98.png,Stimuli/BlurLevel5/NumberedMorphs/BlurEditedMorph98.png,Stimuli/BlurLevel5/OriginalBlur/BlurEditedMorph98.png,Stimuli/BlurMorphTrio/EditedMorph98.png,020298right.gif,Stimuli/normal_thumbnails/98right.gif,,,,,1,0,1,0,0,52,52,97,,,,,,,,,,,,,,,,,,,,,,,36,53,2,325,2.047880111,-1.433941091,98,Experiment,,,,,,,,,90,108,-10,-10,,,,,,,,,,,,,,,1022.798001,1023.306783,1022.798001,1023.306783,86.39455782,1575400594,1575400597,2.615507841,1575400592,1575400594,,,S2,1,27,f,resident,2019_Dec_03_1300,AdjustEyeTrack,3.1.5,59.50416181
130,Stimuli/Morph130.JPG,Stimuli/Morph130.png,Stimuli/BlurLevel5/BlurEditedMorph130,Stimuli/BlurLevel5/BlurEditedMorph130.png,Stimuli/BlurLevel5/NumberedMorphs/BlurEditedMorph130.png,Stimuli/BlurLevel5/OriginalBlur/BlurEditedMorph130.png,Stimuli/BlurMorphTrio/EditedMorph130.png,None,None,,,,,1,0,1,0,0,53,53,129,,,,,,,,,,,,,,,,,,,,,,,5,54,2,245,-1.056545654,-2.265769468,130,Experiment,,,,,,,,,63,119,11,11,,,,,,,,,,,,,,,1027.966087,1028.456799,1027.966087,1028.456799,85.03401361,1575400599,1575400602,2.816319942,1575400597,1575400599,,,S2,1,27,f,resident,2019_Dec_03_1300,AdjustEyeTrack,3.1.5,59.50416181
48,Stimuli/Morph48.JPG,Stimuli/Morph48.png,Stimuli/BlurLevel5/BlurEditedMorph48,Stimuli/BlurLevel5/BlurEditedMorph48.png,Stimuli/BlurLevel5/NumberedMorphs/BlurEditedMorph48.png,Stimuli/BlurLevel5/OriginalBlur/BlurEditedMorph48.png,Stimuli/BlurMorphTrio/EditedMorph48.png,010131right.gif,Stimuli/normal_thumbnails/48right.gif,,,,,1,0,1,0,0,54,54,47,,,,,,,,,,,,,,,,,,,,,,,41,55,2,239,-1.287595187,-2.142918252,48,Experiment,,,,,,,,,129,87,-39,-39,,,,,,,,,,,,,,,1033.316222,1033.805885,1033.316222,1033.805885,46.93877551,1575400605,1575400609,4.049908876,1575400603,1575400605,,,S2,1,27,f,resident,2019_Dec_03_1300,AdjustEyeTrack,3.1.5,59.50416181
124,Stimuli/Morph124.JPG,Stimuli/Morph124.png,Stimuli/BlurLevel5/BlurEditedMorph124,Stimuli/BlurLevel5/BlurEditedMorph124.png,Stimuli/BlurLevel5/NumberedMorphs/BlurEditedMorph124.png,Stimuli/BlurLevel5/OriginalBlur/BlurEditedMorph124.png,Stimuli/BlurMorphTrio/EditedMorph124.png,None,None,,,,,1,0,1,0,0,55,55,123,,,,,,,,,,,,,,,,,,,,,,,74,56,2,211,-2.142918252,-1.287595187,124,Experiment,,,,,,,,,123,119,5,5,,,,,,,,,,,,,,,1039.880506,1040.389392,1039.880506,1040.389392,93.19727891,1575400611,1575400613,2.067676306,1575400609,1575400611,,,S2,1,27,f,resident,2019_Dec_03_1300,AdjustEyeTrack,3.1.5,59.50416181
113,Stimuli/Morph113.JPG,Stimuli/Morph113.png,Stimuli/BlurLevel5/BlurEditedMorph113,Stimuli/BlurLevel5/BlurEditedMorph113.png,Stimuli/BlurLevel5/NumberedMorphs/BlurEditedMorph113.png,Stimuli/BlurLevel5/OriginalBlur/BlurEditedMorph113.png,Stimuli/BlurMorphTrio/EditedMorph113.png,None,None,,,,,1,0,1,0,0,56,56,112,,,,,,,,,,,,,,,,,,,,,,,81,57,2,148,-2.12012024,1.324798161,113,Experiment,,,,,,,,,41,92,21,21,,,,,,,,,,,,,,,1044.442188,1044.956193,1044.442188,1044.956193,71.42857143,1575400616,1575400619,3.482756853,1575400614,1575400616,,,S2,1,27,f,resident,2019_Dec_03_1300,AdjustEyeTrack,3.1.5,59.50416181
32,Stimuli/Morph32.JPG,Stimuli/Morph32.png,Stimuli/BlurLevel5/BlurEditedMorph32,Stimuli/BlurLevel5/BlurEditedMorph32.png,Stimuli/BlurLevel5/NumberedMorphs/BlurEditedMorph32.png,Stimuli/BlurLevel5/OriginalBlur/BlurEditedMorph32.png,Stimuli/BlurMorphTrio/EditedMorph32.png,010080right.gif,Stimuli/normal_thumbnails/32right.gif,,,,,1,0,1,0,0,57,57,31,,,,,,,,,,,,,,,,,,,,,,,9,58,2,311,1.640147572,-1.886773951,32,Experiment,,,,,,,,,115,147,-115,32,,,,,,,,,,,,,,,1050.327796,1050.823262,1050.327796,1050.823262,56.46258503,1575400622,1575400626,4.449893236,1575400620,1575400622,,,S2,1,27,f,resident,2019_Dec_03_1300,AdjustEyeTrack,3.1.5,59.50416181
11,Stimuli/Morph11.JPG,Stimuli/Morph11.png,Stimuli/BlurLevel5/BlurEditedMorph11,Stimuli/BlurLevel5/BlurEditedMorph11.png,Stimuli/BlurLevel5/NumberedMorphs/BlurEditedMorph11.png,Stimuli/BlurLevel5/OriginalBlur/BlurEditedMorph11.png,Stimuli/BlurMorphTrio/EditedMorph11.png,010024right.gif,Stimuli/normal_thumbnails/11right.gif,,,,,1,0,1,0,0,58,58,10,,,,,,,,,,,,,,,,,,,,,,,75,59,2,151,-2.186549268,1.212024051,11,Experiment,,,,,,,,,41,5,6,6,,,,,,,,,,,,,,,1057.393678,1057.88967,1057.393678,1057.88967,91.83673469,1575400629,1575400631,2.236125231,1575400627,1575400629,,,S2,1,27,f,resident,2019_Dec_03_1300,AdjustEyeTrack,3.1.5,59.50416181
31,Stimuli/Morph31.JPG,Stimuli/Morph31.png,Stimuli/BlurLevel5/BlurEditedMorph31,Stimuli/BlurLevel5/BlurEditedMorph31.png,Stimuli/BlurLevel5/NumberedMorphs/BlurEditedMorph31.png,Stimuli/BlurLevel5/OriginalBlur/BlurEditedMorph31.png,Stimuli/BlurMorphTrio/EditedMorph31.png,010079right.gif,Stimuli/normal_thumbnails/31right.gif,,,,,1,0,1,0,0,59,59,30,,,,,,,,,,,,,,,,,,,,,,,71,60,2,164,-2.40315424,0.68909339,31,Experiment,,,,,,,,,41,15,16,16,,,,,,,,,,,,,,,1062.30847,1062.80604,1062.30847,1062.80604,78.23129252,1575400634,1575400635,1.632828712,1575400631,1575400634,,,S2,1,27,f,resident,2019_Dec_03_1300,AdjustEyeTrack,3.1.5,59.50416181
