stimulusID,stimulus_JPG,stimulusPath,stimulusPath2,stimulusPath3,stimulusPath4,stimulusPath5,stimulusPath6,xRayOriginal,xRayPath,Training.thisRepN,Training.thisTrialN,Training.thisN,Training.thisIndex,Blocks.thisRepN,Blocks.thisTrialN,Blocks.thisN,Blocks.thisIndex,Trials.thisRepN,Trials.thisTrialN,Trials.thisN,Trials.thisIndex,text_2.started,text_2.stopped,image.started,image.stopped,image_2.started,image_2.stopped,image_3.started,image_3.stopped,image_4.started,image_4.stopped,image_6.started,image_6.stopped,image_7.started,image_7.stopped,image_8.started,image_8.stopped,image_9.started,image_9.stopped,image_10.started,image_10.stopped,image_12.started,image_12.stopped,xrayID,trialNumber,blockNumber,stimLocationDeg,stimXCoord,stimYCoord,stimulusID,blockType,trainingXray.started,trainingXray.stopped,trainingTumors.started,trainingTumors.stopped,trainingScore%,startTrainingRespTime,endTrainingRespTime,trainingRT,morphTrack,morphID,errorRaw,errorCorrected,startTrainingStimTime,endTrainingStimTime,key_resp_3.keys,key_resp_3.rt,text.started,text.stopped,text_3.started,text_3.stopped,text_4.started,text_4.stopped,key_resp_5.keys,key_resp_5.rt,key_resp_5.started,key_resp_5.stopped,xray1.started,xray1.stopped,tumors.started,tumors.stopped,trialCorrect%,startRespTime,endRespTime,RT,startStimTime,endStimTime,key_resp.keys,key_resp.rt,participant,session,age,gender,status,date,expName,psychopyVersion,frameRate
45,Stimuli/Morph45.JPG,Stimuli/Morph45.png,Stimuli/BlurLevel5/BlurEditedMorph45,Stimuli/BlurLevel5/BlurEditedMorph45.png,Stimuli/BlurLevel5/NumberedMorphs/BlurEditedMorph45.png,Stimuli/BlurLevel5/OriginalBlur/BlurEditedMorph45.png,Stimuli/BlurMorphTrio/EditedMorph45.png,010127right.gif,Stimuli/normal_thumbnails/45right.gif,0,0,0,44,,,,,,,,,53.64719729,None,53.64719729,None,53.64719729,None,53.64719729,None,53.64719729,None,53.64719729,None,53.64719729,None,53.64719729,None,53.64719729,None,53.64719729,None,53.64719729,None,5,-100,-100,134,-1.736645926,1.798349501,45,training,97.27130708,97.77978347,97.27130708,97.77978347,90.47619048,1575402999,1575403008,9.150023937,99,52,-7,-7,1575402997,1575402999,space,8.610257931,,,,,,,,,,,,,,,,,,,,,,,S3,1,72,f,Expert Radiologist,2019_Dec_03_1355,AdjustEyeTrack,3.1.5,60.0628096
97,Stimuli/Morph97.JPG,Stimuli/Morph97.png,Stimuli/BlurLevel5/BlurEditedMorph97,Stimuli/BlurLevel5/BlurEditedMorph97.png,Stimuli/BlurLevel5/NumberedMorphs/BlurEditedMorph97.png,Stimuli/BlurLevel5/OriginalBlur/BlurEditedMorph97.png,Stimuli/BlurMorphTrio/EditedMorph97.png,020294right.gif,Stimuli/normal_thumbnails/97right.gif,0,1,1,96,,,,,,,,,,,,,,,,,,,,,,,,,,,,,,,25,-100,-100,236,-1.397982259,-2.072593931,97,training,117.2957771,117.795412,117.2957771,117.795412,93.19727891,1575403019,1575403023,3.967223883,81,102,-5,-5,1575403017,1575403019,space,4.472382609,,,,,,,,,,,,,,,,,,,,,,,S3,1,72,f,Expert Radiologist,2019_Dec_03_1355,AdjustEyeTrack,3.1.5,60.0628096
3,Stimuli/Morph3.JPG,Stimuli/Morph3.png,Stimuli/BlurLevel5/BlurEditedMorph3,Stimuli/BlurLevel5/BlurEditedMorph3.png,Stimuli/BlurLevel5/NumberedMorphs/BlurEditedMorph3.png,Stimuli/BlurLevel5/OriginalBlur/BlurEditedMorph3.png,Stimuli/BlurMorphTrio/EditedMorph3.png,010009right.gif,Stimuli/normal_thumbnails/3right.gif,0,2,2,2,,,,,,,,,,,,,,,,,,,,,,,,,,,,,,,41,-100,-100,267,-0.130839891,-2.496573837,3,training,128.1887481,128.6790782,128.1887481,128.6790782,10.20408163,1575403030,1575403032,2.38610816,69,69,-66,-66,1575403028,1575403030,space,10.83257673,,,,,,,,,,,,,,,,,,,,,,,S3,1,72,f,Expert Radiologist,2019_Dec_03_1355,AdjustEyeTrack,3.1.5,60.0628096
28,Stimuli/Morph28.JPG,Stimuli/Morph28.png,Stimuli/BlurLevel5/BlurEditedMorph28,Stimuli/BlurLevel5/BlurEditedMorph28.png,Stimuli/BlurLevel5/NumberedMorphs/BlurEditedMorph28.png,Stimuli/BlurLevel5/OriginalBlur/BlurEditedMorph28.png,Stimuli/BlurMorphTrio/EditedMorph28.png,010073right.gif,Stimuli/normal_thumbnails/28right.gif,0,3,3,27,,,,,,,,,,,,,,,,,,,,,,,,,,,,,,,45,-100,-100,91,-0.043631016,2.499619238,28,training,143.6834192,144.1955166,143.6834192,144.1955166,19.72789116,1575403045,1575403061,15.63281775,105,87,-59,-59,1575403043,1575403045,space,3.653438472,,,,,,,,,,,,,,,,,,,,,,,S3,1,72,f,Expert Radiologist,2019_Dec_03_1355,AdjustEyeTrack,3.1.5,60.0628096
142,Stimuli/Morph142.JPG,Stimuli/Morph142.png,Stimuli/BlurLevel5/BlurEditedMorph142,Stimuli/BlurLevel5/BlurEditedMorph142.png,Stimuli/BlurLevel5/NumberedMorphs/BlurEditedMorph142.png,Stimuli/BlurLevel5/OriginalBlur/BlurEditedMorph142.png,Stimuli/BlurMorphTrio/EditedMorph142.png,None,None,0,4,4,141,,,,,,,,,,,,,,,,,,,,,,,,,,,,,,,29,-100,-100,189,-2.469220851,-0.391086163,142,training,165.7839013,166.2948991,165.7839013,166.2948991,87.75510204,1575403068,1575403084,16.2327528,106,133,9,9,1575403065,1575403068,space,4.862491544,,,,,,,,,,,,,,,,,,,,,,,S3,1,72,f,Expert Radiologist,2019_Dec_03_1355,AdjustEyeTrack,3.1.5,60.0628096
125,Stimuli/Morph125.JPG,Stimuli/Morph125.png,Stimuli/BlurLevel5/BlurEditedMorph125,Stimuli/BlurLevel5/BlurEditedMorph125.png,Stimuli/BlurLevel5/NumberedMorphs/BlurEditedMorph125.png,Stimuli/BlurLevel5/OriginalBlur/BlurEditedMorph125.png,Stimuli/BlurMorphTrio/EditedMorph125.png,None,None,0,5,5,124,,,,,,,,,,,,,,,,,,,,,,,,,,,,,,,49,-100,-100,297,1.134976249,-2.22751631,125,training,189.5114352,190.0111881,189.5114352,190.0111881,19.72789116,1575403091,1575403096,4.948944092,37,37,88,-59,1575403089,1575403091,space,4.898807065,,,,,,,,,,,,,,,,,,,,,,,S3,1,72,f,Expert Radiologist,2019_Dec_03_1355,AdjustEyeTrack,3.1.5,60.0628096
145,Stimuli/Morph145.JPG,Stimuli/Morph145.png,Stimuli/BlurLevel5/BlurEditedMorph145,Stimuli/BlurLevel5/BlurEditedMorph145.png,Stimuli/BlurLevel5/NumberedMorphs/BlurEditedMorph145.png,Stimuli/BlurLevel5/OriginalBlur/BlurEditedMorph145.png,Stimuli/BlurMorphTrio/EditedMorph145.png,None,None,0,6,6,144,,,,,,,,,,,,,,,,,,,,,,,,,,,,,,,6,-100,-100,298,1.173678907,-2.207368982,145,training,202.0796571,202.5785304,202.0796571,202.5785304,95.91836735,1575403104,1575403107,2.783336878,1,1,144,-3,1575403101,1575403104,space,3.755422837,,,,,,,,,,,,,,,,,,,,,,,S3,1,72,f,Expert Radiologist,2019_Dec_03_1355,AdjustEyeTrack,3.1.5,60.0628096
123,Stimuli/Morph123.JPG,Stimuli/Morph123.png,Stimuli/BlurLevel5/BlurEditedMorph123,Stimuli/BlurLevel5/BlurEditedMorph123.png,Stimuli/BlurLevel5/NumberedMorphs/BlurEditedMorph123.png,Stimuli/BlurLevel5/OriginalBlur/BlurEditedMorph123.png,Stimuli/BlurMorphTrio/EditedMorph123.png,None,None,0,7,7,122,,,,,,,,,,,,,,,,,,,,,,,,,,,,,,,7,-100,-100,72,0.772542486,2.377641291,123,training,210.8804274,211.3776007,210.8804274,211.3776007,78.23129252,1575403113,1575403121,8.116518736,67,139,-16,-16,1575403110,1575403113,space,2.687967675,,,,,,,,,,,,,,,,,,,,,,,S3,1,72,f,Expert Radiologist,2019_Dec_03_1355,AdjustEyeTrack,3.1.5,60.0628096
4,Stimuli/Morph4.JPG,Stimuli/Morph4.png,Stimuli/BlurLevel5/BlurEditedMorph4,Stimuli/BlurLevel5/BlurEditedMorph4.png,Stimuli/BlurLevel5/NumberedMorphs/BlurEditedMorph4.png,Stimuli/BlurLevel5/OriginalBlur/BlurEditedMorph4.png,Stimuli/BlurMorphTrio/EditedMorph4.png,010010right.gif,Stimuli/normal_thumbnails/4right.gif,0,8,8,3,,,,,,,,,,,,,,,,,,,,,,,,,,,,,,,3,-100,-100,125,-1.433941091,2.047880111,4,training,224.2438396,224.7444277,224.2438396,224.7444277,94.55782313,1575403126,1575403132,6.169329882,25,147,-143,4,1575403124,1575403126,space,3.191025766,,,,,,,,,,,,,,,,,,,,,,,S3,1,72,f,Expert Radiologist,2019_Dec_03_1355,AdjustEyeTrack,3.1.5,60.0628096
9,Stimuli/Morph9.JPG,Stimuli/Morph9.png,Stimuli/BlurLevel5/BlurEditedMorph9,Stimuli/BlurLevel5/BlurEditedMorph9.png,Stimuli/BlurLevel5/NumberedMorphs/BlurEditedMorph9.png,Stimuli/BlurLevel5/OriginalBlur/BlurEditedMorph9.png,Stimuli/BlurMorphTrio/EditedMorph9.png,010015right.gif,Stimuli/normal_thumbnails/9right.gif,0,9,9,8,,,,,,,,,,,,,,,,,,,,,,,,,,,,,,,53,-100,-100,47,1.7049959,1.828384254,9,training,236.5183118,237.0278962,236.5183118,237.0278962,74.14965986,1575403138,1575403145,6.947761059,87,137,-128,19,1575403136,1575403138,space,4.059825389,,,,,,,,,,,,,,,,,,,,,,,S3,1,72,f,Expert Radiologist,2019_Dec_03_1355,AdjustEyeTrack,3.1.5,60.0628096
,,,,,,,,,,,,,,,,,,,,,,,,,,,,,,,,,,,,,,,,,,,,,-100,-100,,,,,training,,,,,,,,,,,,,,,,,249.2273022,None,249.2273022,None,249.2273022,None,space,74.28310428,249.2273022,None,,,,,,,,,,,,,S3,1,72,f,Expert Radiologist,2019_Dec_03_1355,AdjustEyeTrack,3.1.5,60.0628096
98,Stimuli/Morph98.JPG,Stimuli/Morph98.png,Stimuli/BlurLevel5/BlurEditedMorph98,Stimuli/BlurLevel5/BlurEditedMorph98.png,Stimuli/BlurLevel5/NumberedMorphs/BlurEditedMorph98.png,Stimuli/BlurLevel5/OriginalBlur/BlurEditedMorph98.png,Stimuli/BlurMorphTrio/EditedMorph98.png,020298right.gif,Stimuli/normal_thumbnails/98right.gif,,,,,0,0,0,0,0,0,0,97,,,,,,,,,,,,,,,,,,,,,,,69,1,1,281,0.477022488,-2.454067959,98,Experiment,,,,,,,,,28,10,88,-59,,,,,,,,,,,,,,,325.3302832,325.8257202,325.3302832,325.8257202,19.72789116,1575403227,1575403247,20.15085292,1575403224,1575403227,,,S3,1,72,f,Expert Radiologist,2019_Dec_03_1355,AdjustEyeTrack,3.1.5,60.0628096
124,Stimuli/Morph124.JPG,Stimuli/Morph124.png,Stimuli/BlurLevel5/BlurEditedMorph124,Stimuli/BlurLevel5/BlurEditedMorph124.png,Stimuli/BlurLevel5/NumberedMorphs/BlurEditedMorph124.png,Stimuli/BlurLevel5/OriginalBlur/BlurEditedMorph124.png,Stimuli/BlurMorphTrio/EditedMorph124.png,None,None,,,,,0,0,0,0,0,1,1,123,,,,,,,,,,,,,,,,,,,,,,,97,2,1,102,-0.519779227,2.445369002,124,Experiment,,,,,,,,,72,141,-17,-17,,,,,,,,,,,,,,,348.5611881,349.0601707,348.5611881,349.0601707,76.8707483,1575403250,1575403258,7.650500059,1575403248,1575403250,,,S3,1,72,f,Expert Radiologist,2019_Dec_03_1355,AdjustEyeTrack,3.1.5,60.0628096
54,Stimuli/Morph54.JPG,Stimuli/Morph54.png,Stimuli/BlurLevel5/BlurEditedMorph54,Stimuli/BlurLevel5/BlurEditedMorph54.png,Stimuli/BlurLevel5/NumberedMorphs/BlurEditedMorph54.png,Stimuli/BlurLevel5/OriginalBlur/BlurEditedMorph54.png,Stimuli/BlurMorphTrio/EditedMorph54.png,010150right.gif,Stimuli/normal_thumbnails/54right.gif,,,,,0,0,0,0,0,2,2,53,,,,,,,,,,,,,,,,,,,,,,,12,3,1,237,-1.361597588,-2.09667642,54,Experiment,,,,,,,,,48,48,6,6,,,,,,,,,,,,,,,359.466807,359.9591519,359.466807,359.9591519,91.83673469,1575403261,1575403263,1.534734011,1575403258,1575403261,,,S3,1,72,f,Expert Radiologist,2019_Dec_03_1355,AdjustEyeTrack,3.1.5,60.0628096
22,Stimuli/Morph22.JPG,Stimuli/Morph22.png,Stimuli/BlurLevel5/BlurEditedMorph22,Stimuli/BlurLevel5/BlurEditedMorph22.png,Stimuli/BlurLevel5/NumberedMorphs/BlurEditedMorph22.png,Stimuli/BlurLevel5/OriginalBlur/BlurEditedMorph22.png,Stimuli/BlurMorphTrio/EditedMorph22.png,010055right.gif,Stimuli/normal_thumbnails/22right.gif,,,,,0,0,0,0,0,3,3,21,,,,,,,,,,,,,,,,,,,,,,,72,4,1,358,2.498477068,-0.087248742,22,Experiment,,,,,,,,,57,17,5,5,,,,,,,,,,,,,,,363.6175608,364.1420291,363.6175608,364.1420291,93.19727891,1575403265,1575403274,8.434113979,1575403263,1575403265,,,S3,1,72,f,Expert Radiologist,2019_Dec_03_1355,AdjustEyeTrack,3.1.5,60.0628096
97,Stimuli/Morph97.JPG,Stimuli/Morph97.png,Stimuli/BlurLevel5/BlurEditedMorph97,Stimuli/BlurLevel5/BlurEditedMorph97.png,Stimuli/BlurLevel5/NumberedMorphs/BlurEditedMorph97.png,Stimuli/BlurLevel5/OriginalBlur/BlurEditedMorph97.png,Stimuli/BlurMorphTrio/EditedMorph97.png,020294right.gif,Stimuli/normal_thumbnails/97right.gif,,,,,0,0,0,0,0,4,4,96,,,,,,,,,,,,,,,,,,,,,,,81,5,1,106,-0.68909339,2.40315424,97,Experiment,,,,,,,,,95,104,-7,-7,,,,,,,,,,,,,,,374.6950826,375.193598,374.6950826,375.193598,90.47619048,1575403276,1575403285,8.965801001,1575403274,1575403276,,,S3,1,72,f,Expert Radiologist,2019_Dec_03_1355,AdjustEyeTrack,3.1.5,60.0628096
73,Stimuli/Morph73.JPG,Stimuli/Morph73.png,Stimuli/BlurLevel5/BlurEditedMorph73,Stimuli/BlurLevel5/BlurEditedMorph73.png,Stimuli/BlurLevel5/NumberedMorphs/BlurEditedMorph73.png,Stimuli/BlurLevel5/OriginalBlur/BlurEditedMorph73.png,Stimuli/BlurMorphTrio/EditedMorph73.png,020230right.gif,Stimuli/normal_thumbnails/73right.gif,,,,,0,0,0,0,0,5,5,72,,,,,,,,,,,,,,,,,,,,,,,97,6,1,33,2.09667642,1.361597588,73,Experiment,,,,,,,,,23,106,-33,-33,,,,,,,,,,,,,,,386.2889855,386.7921168,386.2889855,386.7921168,55.10204082,1575403288,1575403300,12.33266401,1575403286,1575403288,,,S3,1,72,f,Expert Radiologist,2019_Dec_03_1355,AdjustEyeTrack,3.1.5,60.0628096
19,Stimuli/Morph19.JPG,Stimuli/Morph19.png,Stimuli/BlurLevel5/BlurEditedMorph19,Stimuli/BlurLevel5/BlurEditedMorph19.png,Stimuli/BlurLevel5/NumberedMorphs/BlurEditedMorph19.png,Stimuli/BlurLevel5/OriginalBlur/BlurEditedMorph19.png,Stimuli/BlurMorphTrio/EditedMorph19.png,010045right.gif,Stimuli/normal_thumbnails/19right.gif,,,,,0,0,0,0,0,6,6,18,,,,,,,,,,,,,,,,,,,,,,,81,7,1,232,-1.539153688,-1.970026884,19,Experiment,,,,,,,,,115,19,0,0,,,,,,,,,,,,,,,400.8651498,401.3580283,400.8651498,401.3580283,100,1575403303,1575403309,5.883143902,1575403301,1575403303,,,S3,1,72,f,Expert Radiologist,2019_Dec_03_1355,AdjustEyeTrack,3.1.5,60.0628096
113,Stimuli/Morph113.JPG,Stimuli/Morph113.png,Stimuli/BlurLevel5/BlurEditedMorph113,Stimuli/BlurLevel5/BlurEditedMorph113.png,Stimuli/BlurLevel5/NumberedMorphs/BlurEditedMorph113.png,Stimuli/BlurLevel5/OriginalBlur/BlurEditedMorph113.png,Stimuli/BlurMorphTrio/EditedMorph113.png,None,None,,,,,0,0,0,0,0,7,7,112,,,,,,,,,,,,,,,,,,,,,,,96,8,1,255,-0.647047613,-2.414814566,113,Experiment,,,,,,,,,118,118,-5,-5,,,,,,,,,,,,,,,410.2071135,410.707868,410.2071135,410.707868,93.19727891,1575403312,1575403315,2.617584944,1575403309,1575403312,,,S3,1,72,f,Expert Radiologist,2019_Dec_03_1355,AdjustEyeTrack,3.1.5,60.0628096
144,Stimuli/Morph144.JPG,Stimuli/Morph144.png,Stimuli/BlurLevel5/BlurEditedMorph144,Stimuli/BlurLevel5/BlurEditedMorph144.png,Stimuli/BlurLevel5/NumberedMorphs/BlurEditedMorph144.png,Stimuli/BlurLevel5/OriginalBlur/BlurEditedMorph144.png,Stimuli/BlurMorphTrio/EditedMorph144.png,None,None,,,,,0,0,0,0,0,8,8,143,,,,,,,,,,,,,,,,,,,,,,,2,9,1,326,2.072593931,-1.397982259,144,Experiment,,,,,,,,,100,141,3,3,,,,,,,,,,,,,,,415.4321227,415.924837,415.4321227,415.924837,95.91836735,1575403317,1575403322,4.980408192,1575403315,1575403317,,,S3,1,72,f,Expert Radiologist,2019_Dec_03_1355,AdjustEyeTrack,3.1.5,60.0628096
49,Stimuli/Morph49.JPG,Stimuli/Morph49.png,Stimuli/BlurLevel5/BlurEditedMorph49,Stimuli/BlurLevel5/BlurEditedMorph49.png,Stimuli/BlurLevel5/NumberedMorphs/BlurEditedMorph49.png,Stimuli/BlurLevel5/OriginalBlur/BlurEditedMorph49.png,Stimuli/BlurMorphTrio/EditedMorph49.png,010135right.gif,Stimuli/normal_thumbnails/49right.gif,,,,,0,0,0,0,0,9,9,48,,,,,,,,,,,,,,,,,,,,,,,82,10,1,235,-1.433941091,-2.047880111,49,Experiment,,,,,,,,,145,50,-1,-1,,,,,,,,,,,,,,,423.1756617,423.675031,423.1756617,423.675031,98.63945578,1575403325,1575403331,6.402853012,1575403322,1575403325,,,S3,1,72,f,Expert Radiologist,2019_Dec_03_1355,AdjustEyeTrack,3.1.5,60.0628096
50,Stimuli/Morph50.JPG,Stimuli/Morph50.png,Stimuli/BlurLevel5/BlurEditedMorph50,Stimuli/BlurLevel5/BlurEditedMorph50.png,Stimuli/BlurLevel5/NumberedMorphs/BlurEditedMorph50.png,Stimuli/BlurLevel5/OriginalBlur/BlurEditedMorph50.png,Stimuli/BlurMorphTrio/EditedMorph50.png,010142right.gif,Stimuli/normal_thumbnails/50right.gif,,,,,0,0,0,0,0,10,10,49,,,,,,,,,,,,,,,,,,,,,,,76,11,1,114,-1.016841608,2.283863644,50,Experiment,,,,,,,,,37,37,13,13,,,,,,,,,,,,,,,431.780028,432.2917789,431.780028,432.2917789,82.31292517,1575403334,1575403335,1.082783937,1575403332,1575403334,,,S3,1,72,f,Expert Radiologist,2019_Dec_03_1355,AdjustEyeTrack,3.1.5,60.0628096
62,Stimuli/Morph62.JPG,Stimuli/Morph62.png,Stimuli/BlurLevel5/BlurEditedMorph62,Stimuli/BlurLevel5/BlurEditedMorph62.png,Stimuli/BlurLevel5/NumberedMorphs/BlurEditedMorph62.png,Stimuli/BlurLevel5/OriginalBlur/BlurEditedMorph62.png,Stimuli/BlurMorphTrio/EditedMorph62.png,020205right.gif,Stimuli/normal_thumbnails/62right.gif,,,,,0,0,0,0,0,11,11,61,,,,,,,,,,,,,,,,,,,,,,,54,12,1,90,1.53E-16,2.5,62,Experiment,,,,,,,,,72,57,5,5,,,,,,,,,,,,,,,435.3254449,435.824054,435.3254449,435.824054,93.19727891,1575403337,1575403344,7.333853006,1575403335,1575403337,,,S3,1,72,f,Expert Radiologist,2019_Dec_03_1355,AdjustEyeTrack,3.1.5,60.0628096
106,Stimuli/Morph106.JPG,Stimuli/Morph106.png,Stimuli/BlurLevel5/BlurEditedMorph106,Stimuli/BlurLevel5/BlurEditedMorph106.png,Stimuli/BlurLevel5/NumberedMorphs/BlurEditedMorph106.png,Stimuli/BlurLevel5/OriginalBlur/BlurEditedMorph106.png,Stimuli/BlurMorphTrio/EditedMorph106.png,None,None,,,,,0,0,0,0,0,12,12,105,,,,,,,,,,,,,,,,,,,,,,,28,13,1,3,2.496573837,0.130839891,106,Experiment,,,,,,,,,26,96,10,10,,,,,,,,,,,,,,,445.577834,446.0751973,445.577834,446.0751973,86.39455782,1575403347,1575403352,4.582386017,1575403345,1575403347,,,S3,1,72,f,Expert Radiologist,2019_Dec_03_1355,AdjustEyeTrack,3.1.5,60.0628096
128,Stimuli/Morph128.JPG,Stimuli/Morph128.png,Stimuli/BlurLevel5/BlurEditedMorph128,Stimuli/BlurLevel5/BlurEditedMorph128.png,Stimuli/BlurLevel5/NumberedMorphs/BlurEditedMorph128.png,Stimuli/BlurLevel5/OriginalBlur/BlurEditedMorph128.png,Stimuli/BlurMorphTrio/EditedMorph128.png,None,None,,,,,0,0,0,0,0,13,13,127,,,,,,,,,,,,,,,,,,,,,,,40,14,1,202,-2.317959636,-0.936516484,128,Experiment,,,,,,,,,98,145,-17,-17,,,,,,,,,,,,,,,453.0419814,453.5426984,453.0419814,453.5426984,76.8707483,1575403355,1575403361,5.933133841,1575403352,1575403355,,,S3,1,72,f,Expert Radiologist,2019_Dec_03_1355,AdjustEyeTrack,3.1.5,60.0628096
85,Stimuli/Morph85.JPG,Stimuli/Morph85.png,Stimuli/BlurLevel5/BlurEditedMorph85,Stimuli/BlurLevel5/BlurEditedMorph85.png,Stimuli/BlurLevel5/NumberedMorphs/BlurEditedMorph85.png,Stimuli/BlurLevel5/OriginalBlur/BlurEditedMorph85.png,Stimuli/BlurMorphTrio/EditedMorph85.png,020264right.gif,Stimuli/normal_thumbnails/85right.gif,,,,,0,0,0,0,0,14,14,84,,,,,,,,,,,,,,,,,,,,,,,90,15,1,14,2.425739316,0.604804739,85,Experiment,,,,,,,,,59,94,-9,-9,,,,,,,,,,,,,,,461.3085109,461.807832,461.3085109,461.807832,87.75510204,1575403363,1575403366,2.819470882,1575403361,1575403363,,,S3,1,72,f,Expert Radiologist,2019_Dec_03_1355,AdjustEyeTrack,3.1.5,60.0628096
135,Stimuli/Morph135.JPG,Stimuli/Morph135.png,Stimuli/BlurLevel5/BlurEditedMorph135,Stimuli/BlurLevel5/BlurEditedMorph135.png,Stimuli/BlurLevel5/NumberedMorphs/BlurEditedMorph135.png,Stimuli/BlurLevel5/OriginalBlur/BlurEditedMorph135.png,Stimuli/BlurMorphTrio/EditedMorph135.png,None,None,,,,,0,0,0,0,0,15,15,134,,,,,,,,,,,,,,,,,,,,,,,10,16,1,20,2.349231552,0.855050358,135,Experiment,,,,,,,,,94,61,74,-73,,,,,,,,,,,,,,,466.5418662,467.0400973,466.5418662,467.0400973,0.680272109,1575403368,1575403376,8.116642952,1575403366,1575403368,,,S3,1,72,f,Expert Radiologist,2019_Dec_03_1355,AdjustEyeTrack,3.1.5,60.0628096
136,Stimuli/Morph136.JPG,Stimuli/Morph136.png,Stimuli/BlurLevel5/BlurEditedMorph136,Stimuli/BlurLevel5/BlurEditedMorph136.png,Stimuli/BlurLevel5/NumberedMorphs/BlurEditedMorph136.png,Stimuli/BlurLevel5/OriginalBlur/BlurEditedMorph136.png,Stimuli/BlurMorphTrio/EditedMorph136.png,None,None,,,,,0,0,0,0,0,16,16,135,,,,,,,,,,,,,,,,,,,,,,,11,17,1,45,1.767766953,1.767766953,136,Experiment,,,,,,,,,130,147,-11,-11,,,,,,,,,,,,,,,478.0000852,478.4906024,478.0000852,478.4906024,85.03401361,1575403380,1575403383,2.765799046,1575403377,1575403380,,,S3,1,72,f,Expert Radiologist,2019_Dec_03_1355,AdjustEyeTrack,3.1.5,60.0628096
58,Stimuli/Morph58.JPG,Stimuli/Morph58.png,Stimuli/BlurLevel5/BlurEditedMorph58,Stimuli/BlurLevel5/BlurEditedMorph58.png,Stimuli/BlurLevel5/NumberedMorphs/BlurEditedMorph58.png,Stimuli/BlurLevel5/OriginalBlur/BlurEditedMorph58.png,Stimuli/BlurMorphTrio/EditedMorph58.png,010159right.gif,Stimuli/normal_thumbnails/58right.gif,,,,,0,0,0,0,0,17,17,57,,,,,,,,,,,,,,,,,,,,,,,60,18,1,134,-1.736645926,1.798349501,58,Experiment,,,,,,,,,116,53,5,5,,,,,,,,,,,,,,,483.7999873,484.290663,483.7999873,484.290663,93.19727891,1575403386,1575403389,3.833810806,1575403383,1575403386,,,S3,1,72,f,Expert Radiologist,2019_Dec_03_1355,AdjustEyeTrack,3.1.5,60.0628096
33,Stimuli/Morph33.JPG,Stimuli/Morph33.png,Stimuli/BlurLevel5/BlurEditedMorph33,Stimuli/BlurLevel5/BlurEditedMorph33.png,Stimuli/BlurLevel5/NumberedMorphs/BlurEditedMorph33.png,Stimuli/BlurLevel5/OriginalBlur/BlurEditedMorph33.png,Stimuli/BlurMorphTrio/EditedMorph33.png,010089right.gif,Stimuli/normal_thumbnails/33right.gif,,,,,0,0,0,0,0,18,18,32,,,,,,,,,,,,,,,,,,,,,,,79,19,1,161,-2.363796439,0.813920386,33,Experiment,,,,,,,,,8,71,-38,-38,,,,,,,,,,,,,,,490.4256996,490.9242986,490.4256996,490.9242986,48.29931973,1575403392,1575403399,6.883448124,1575403390,1575403392,,,S3,1,72,f,Expert Radiologist,2019_Dec_03_1355,AdjustEyeTrack,3.1.5,60.0628096
56,Stimuli/Morph56.JPG,Stimuli/Morph56.png,Stimuli/BlurLevel5/BlurEditedMorph56,Stimuli/BlurLevel5/BlurEditedMorph56.png,Stimuli/BlurLevel5/NumberedMorphs/BlurEditedMorph56.png,Stimuli/BlurLevel5/OriginalBlur/BlurEditedMorph56.png,Stimuli/BlurMorphTrio/EditedMorph56.png,010157right.gif,Stimuli/normal_thumbnails/56right.gif,,,,,0,0,0,0,0,19,19,55,,,,,,,,,,,,,,,,,,,,,,,55,20,1,190,-2.462019383,-0.434120444,56,Experiment,,,,,,,,,147,52,4,4,,,,,,,,,,,,,,,500.0002077,500.490917,500.0002077,500.490917,94.55782313,1575403402,1575403409,7.166296721,1575403399,1575403402,,,S3,1,72,f,Expert Radiologist,2019_Dec_03_1355,AdjustEyeTrack,3.1.5,60.0628096
112,Stimuli/Morph112.JPG,Stimuli/Morph112.png,Stimuli/BlurLevel5/BlurEditedMorph112,Stimuli/BlurLevel5/BlurEditedMorph112.png,Stimuli/BlurLevel5/NumberedMorphs/BlurEditedMorph112.png,Stimuli/BlurLevel5/OriginalBlur/BlurEditedMorph112.png,Stimuli/BlurMorphTrio/EditedMorph112.png,None,None,,,,,0,0,0,0,0,20,20,111,,,,,,,,,,,,,,,,,,,,,,,70,21,1,354,2.486304738,-0.261321158,112,Experiment,,,,,,,,,139,46,66,66,,,,,,,,,,,,,,,509.723581,510.224724,509.723581,510.224724,10.20408163,1575403412,1575403416,4.033502102,1575403409,1575403411,,,S3,1,72,f,Expert Radiologist,2019_Dec_03_1355,AdjustEyeTrack,3.1.5,60.0628096
3,Stimuli/Morph3.JPG,Stimuli/Morph3.png,Stimuli/BlurLevel5/BlurEditedMorph3,Stimuli/BlurLevel5/BlurEditedMorph3.png,Stimuli/BlurLevel5/NumberedMorphs/BlurEditedMorph3.png,Stimuli/BlurLevel5/OriginalBlur/BlurEditedMorph3.png,Stimuli/BlurMorphTrio/EditedMorph3.png,010009right.gif,Stimuli/normal_thumbnails/3right.gif,,,,,0,0,0,0,0,21,21,2,,,,,,,,,,,,,,,,,,,,,,,39,22,1,352,2.475670172,-0.347932752,3,Experiment,,,,,,,,,57,142,-139,8,,,,,,,,,,,,,,,516.6352285,517.139808,516.6352285,517.139808,89.11564626,1575403418,1575403430,11.11633396,1575403416,1575403418,,,S3,1,72,f,Expert Radiologist,2019_Dec_03_1355,AdjustEyeTrack,3.1.5,60.0628096
9,Stimuli/Morph9.JPG,Stimuli/Morph9.png,Stimuli/BlurLevel5/BlurEditedMorph9,Stimuli/BlurLevel5/BlurEditedMorph9.png,Stimuli/BlurLevel5/NumberedMorphs/BlurEditedMorph9.png,Stimuli/BlurLevel5/OriginalBlur/BlurEditedMorph9.png,Stimuli/BlurMorphTrio/EditedMorph9.png,010015right.gif,Stimuli/normal_thumbnails/9right.gif,,,,,0,0,0,0,0,22,22,8,,,,,,,,,,,,,,,,,,,,,,,13,23,1,257,-0.562377636,-2.435925162,9,Experiment,,,,,,,,,11,11,-2,-2,,,,,,,,,,,,,,,530.340761,530.8416657,530.340761,530.8416657,97.27891156,1575403432,1575403433,1.050533772,1575403430,1575403432,,,S3,1,72,f,Expert Radiologist,2019_Dec_03_1355,AdjustEyeTrack,3.1.5,60.0628096
95,Stimuli/Morph95.JPG,Stimuli/Morph95.png,Stimuli/BlurLevel5/BlurEditedMorph95,Stimuli/BlurLevel5/BlurEditedMorph95.png,Stimuli/BlurLevel5/NumberedMorphs/BlurEditedMorph95.png,Stimuli/BlurLevel5/OriginalBlur/BlurEditedMorph95.png,Stimuli/BlurMorphTrio/EditedMorph95.png,020287right.gif,Stimuli/normal_thumbnails/95right.gif,,,,,0,0,0,0,0,23,23,94,,,,,,,,,,,,,,,,,,,,,,,90,24,1,173,-2.481365379,0.304673359,95,Experiment,,,,,,,,,51,103,-8,-8,,,,,,,,,,,,,,,533.7825669,534.2735984,533.7825669,534.2735984,89.11564626,1575403436,1575403438,2.903023243,1575403433,1575403436,,,S3,1,72,f,Expert Radiologist,2019_Dec_03_1355,AdjustEyeTrack,3.1.5,60.0628096
26,Stimuli/Morph26.JPG,Stimuli/Morph26.png,Stimuli/BlurLevel5/BlurEditedMorph26,Stimuli/BlurLevel5/BlurEditedMorph26.png,Stimuli/BlurLevel5/NumberedMorphs/BlurEditedMorph26.png,Stimuli/BlurLevel5/OriginalBlur/BlurEditedMorph26.png,Stimuli/BlurMorphTrio/EditedMorph26.png,010070right.gif,Stimuli/normal_thumbnails/26right.gif,,,,,0,0,0,0,0,24,24,25,,,,,,,,,,,,,,,,,,,,,,,28,25,1,54,1.469463131,2.022542486,26,Experiment,,,,,,,,,105,3,23,23,,,,,,,,,,,,,,,539.40121,539.9058597,539.40121,539.9058597,68.70748299,1575403441,1575403448,7.26702404,1575403439,1575403441,,,S3,1,72,f,Expert Radiologist,2019_Dec_03_1355,AdjustEyeTrack,3.1.5,60.0628096
32,Stimuli/Morph32.JPG,Stimuli/Morph32.png,Stimuli/BlurLevel5/BlurEditedMorph32,Stimuli/BlurLevel5/BlurEditedMorph32.png,Stimuli/BlurLevel5/NumberedMorphs/BlurEditedMorph32.png,Stimuli/BlurLevel5/OriginalBlur/BlurEditedMorph32.png,Stimuli/BlurMorphTrio/EditedMorph32.png,010080right.gif,Stimuli/normal_thumbnails/32right.gif,,,,,0,0,0,0,0,25,25,31,,,,,,,,,,,,,,,,,,,,,,,29,26,1,73,0.730929262,2.39076189,32,Experiment,,,,,,,,,32,32,0,0,,,,,,,,,,,,,,,549.9083883,550.4058983,549.9083883,550.4058983,100,1575403452,1575403453,1.148738146,1575403449,1575403452,,,S3,1,72,f,Expert Radiologist,2019_Dec_03_1355,AdjustEyeTrack,3.1.5,60.0628096
21,Stimuli/Morph21.JPG,Stimuli/Morph21.png,Stimuli/BlurLevel5/BlurEditedMorph21,Stimuli/BlurLevel5/BlurEditedMorph21.png,Stimuli/BlurLevel5/NumberedMorphs/BlurEditedMorph21.png,Stimuli/BlurLevel5/OriginalBlur/BlurEditedMorph21.png,Stimuli/BlurMorphTrio/EditedMorph21.png,010049right.gif,Stimuli/normal_thumbnails/21right.gif,,,,,0,0,0,0,0,26,26,20,,,,,,,,,,,,,,,,,,,,,,,58,27,1,89,0.043631016,2.499619238,21,Experiment,,,,,,,,,126,4,17,17,,,,,,,,,,,,,,,553.6651136,554.1561502,553.6651136,554.1561502,76.8707483,1575403455,1575403463,7.249805927,1575403453,1575403455,,,S3,1,72,f,Expert Radiologist,2019_Dec_03_1355,AdjustEyeTrack,3.1.5,60.0628096
75,Stimuli/Morph75.JPG,Stimuli/Morph75.png,Stimuli/BlurLevel5/BlurEditedMorph75,Stimuli/BlurLevel5/BlurEditedMorph75.png,Stimuli/BlurLevel5/NumberedMorphs/BlurEditedMorph75.png,Stimuli/BlurLevel5/OriginalBlur/BlurEditedMorph75.png,Stimuli/BlurMorphTrio/EditedMorph75.png,020233right.gif,Stimuli/normal_thumbnails/75right.gif,,,,,0,0,0,0,0,27,27,74,,,,,,,,,,,,,,,,,,,,,,,27,28,1,273,0.130839891,-2.496573837,75,Experiment,,,,,,,,,96,96,-21,-21,,,,,,,,,,,,,,,563.8610204,564.3578068,563.8610204,564.3578068,71.42857143,1575403466,1575403469,3.080808163,1575403463,1575403466,,,S3,1,72,f,Expert Radiologist,2019_Dec_03_1355,AdjustEyeTrack,3.1.5,60.0628096
143,Stimuli/Morph143.JPG,Stimuli/Morph143.png,Stimuli/BlurLevel5/BlurEditedMorph143,Stimuli/BlurLevel5/BlurEditedMorph143.png,Stimuli/BlurLevel5/NumberedMorphs/BlurEditedMorph143.png,Stimuli/BlurLevel5/OriginalBlur/BlurEditedMorph143.png,Stimuli/BlurMorphTrio/EditedMorph143.png,None,None,,,,,0,0,0,0,0,28,28,142,,,,,,,,,,,,,,,,,,,,,,,15,29,1,203,-2.301262134,-0.976827821,143,Experiment,,,,,,,,,56,146,-3,-3,,,,,,,,,,,,,,,569.597145,570.0909743,569.597145,570.0909743,95.91836735,1575403471,1575403477,5.734173298,1575403469,1575403471,,,S3,1,72,f,Expert Radiologist,2019_Dec_03_1355,AdjustEyeTrack,3.1.5,60.0628096
24,Stimuli/Morph24.JPG,Stimuli/Morph24.png,Stimuli/BlurLevel5/BlurEditedMorph24,Stimuli/BlurLevel5/BlurEditedMorph24.png,Stimuli/BlurLevel5/NumberedMorphs/BlurEditedMorph24.png,Stimuli/BlurLevel5/OriginalBlur/BlurEditedMorph24.png,Stimuli/BlurMorphTrio/EditedMorph24.png,010068right.gif,Stimuli/normal_thumbnails/24right.gif,,,,,0,0,0,0,0,29,29,23,,,,,,,,,,,,,,,,,,,,,,,15,30,1,46,1.736645926,1.798349501,24,Experiment,,,,,,,,,62,12,12,12,,,,,,,,,,,,,,,577.5482106,578.0572334,577.5482106,578.0572334,83.67346939,1575403479,1575403486,6.349945784,1575403477,1575403479,,,S3,1,72,f,Expert Radiologist,2019_Dec_03_1355,AdjustEyeTrack,3.1.5,60.0628096
6,Stimuli/Morph6.JPG,Stimuli/Morph6.png,Stimuli/BlurLevel5/BlurEditedMorph6,Stimuli/BlurLevel5/BlurEditedMorph6.png,Stimuli/BlurLevel5/NumberedMorphs/BlurEditedMorph6.png,Stimuli/BlurLevel5/OriginalBlur/BlurEditedMorph6.png,Stimuli/BlurMorphTrio/EditedMorph6.png,010012right.gif,Stimuli/normal_thumbnails/6right.gif,,,,,0,0,0,0,0,30,30,5,,,,,,,,,,,,,,,,,,,,,,,60,31,1,281,0.477022488,-2.454067959,6,Experiment,,,,,,,,,104,5,1,1,,,,,,,,,,,,,,,586.5951934,587.0891614,586.5951934,587.0891614,98.63945578,1575403488,1575403497,8.267546892,1575403486,1575403488,,,S3,1,72,f,Expert Radiologist,2019_Dec_03_1355,AdjustEyeTrack,3.1.5,60.0628096
116,Stimuli/Morph116.JPG,Stimuli/Morph116.png,Stimuli/BlurLevel5/BlurEditedMorph116,Stimuli/BlurLevel5/BlurEditedMorph116.png,Stimuli/BlurLevel5/NumberedMorphs/BlurEditedMorph116.png,Stimuli/BlurLevel5/OriginalBlur/BlurEditedMorph116.png,Stimuli/BlurMorphTrio/EditedMorph116.png,None,None,,,,,0,0,0,0,0,31,31,115,,,,,,,,,,,,,,,,,,,,,,,66,32,1,9,2.469220851,0.391086163,116,Experiment,,,,,,,,,113,113,3,3,,,,,,,,,,,,,,,597.3784929,597.8728648,597.3784929,597.8728648,95.91836735,1575403499,1575403500,0.916012049,1575403497,1575403499,,,S3,1,72,f,Expert Radiologist,2019_Dec_03_1355,AdjustEyeTrack,3.1.5,60.0628096
1,Stimuli/Morph1.JPG,Stimuli/Morph1.png,Stimuli/BlurLevel5/BlurEditedMorph1,Stimuli/BlurLevel5/BlurEditedMorph1.png,Stimuli/BlurLevel5/NumberedMorphs/BlurEditedMorph1.png,Stimuli/BlurLevel5/OriginalBlur/BlurEditedMorph1.png,Stimuli/BlurMorphTrio/EditedMorph1.png,010003right.gif,Stimuli/normal_thumbnails/1right.gif,,,,,0,0,0,0,0,32,32,0,,,,,,,,,,,,,,,,,,,,,,,22,33,1,197,-2.39076189,-0.730929262,1,Experiment,,,,,,,,,124,146,-145,2,,,,,,,,,,,,,,,601.112822,601.6222608,601.112822,601.6222608,97.27891156,1575403503,1575403512,9.233846903,1575403500,1575403503,,,S3,1,72,f,Expert Radiologist,2019_Dec_03_1355,AdjustEyeTrack,3.1.5,60.0628096
86,Stimuli/Morph86.JPG,Stimuli/Morph86.png,Stimuli/BlurLevel5/BlurEditedMorph86,Stimuli/BlurLevel5/BlurEditedMorph86.png,Stimuli/BlurLevel5/NumberedMorphs/BlurEditedMorph86.png,Stimuli/BlurLevel5/OriginalBlur/BlurEditedMorph86.png,Stimuli/BlurMorphTrio/EditedMorph86.png,020266right.gif,Stimuli/normal_thumbnails/86right.gif,,,,,0,0,0,0,0,33,33,85,,,,,,,,,,,,,,,,,,,,,,,42,34,1,87,0.130839891,2.496573837,86,Experiment,,,,,,,,,2,2,84,-63,,,,,,,,,,,,,,,613.4480945,613.9386853,613.4480945,613.9386853,14.28571429,1575403515,1575403518,2.352076054,1575403512,1575403515,,,S3,1,72,f,Expert Radiologist,2019_Dec_03_1355,AdjustEyeTrack,3.1.5,60.0628096
130,Stimuli/Morph130.JPG,Stimuli/Morph130.png,Stimuli/BlurLevel5/BlurEditedMorph130,Stimuli/BlurLevel5/BlurEditedMorph130.png,Stimuli/BlurLevel5/NumberedMorphs/BlurEditedMorph130.png,Stimuli/BlurLevel5/OriginalBlur/BlurEditedMorph130.png,Stimuli/BlurMorphTrio/EditedMorph130.png,None,None,,,,,0,0,0,0,0,34,34,129,,,,,,,,,,,,,,,,,,,,,,,81,35,1,14,2.425739316,0.604804739,130,Experiment,,,,,,,,,94,12,118,-29,,,,,,,,,,,,,,,618.349353,618.8402178,618.349353,618.8402178,60.54421769,1575403520,1575403526,6.217074871,1575403518,1575403520,,,S3,1,72,f,Expert Radiologist,2019_Dec_03_1355,AdjustEyeTrack,3.1.5,60.0628096
115,Stimuli/Morph115.JPG,Stimuli/Morph115.png,Stimuli/BlurLevel5/BlurEditedMorph115,Stimuli/BlurLevel5/BlurEditedMorph115.png,Stimuli/BlurLevel5/NumberedMorphs/BlurEditedMorph115.png,Stimuli/BlurLevel5/OriginalBlur/BlurEditedMorph115.png,Stimuli/BlurMorphTrio/EditedMorph115.png,None,None,,,,,0,0,0,0,0,35,35,114,,,,,,,,,,,,,,,,,,,,,,,8,36,1,114,-1.016841608,2.283863644,115,Experiment,,,,,,,,,108,108,7,7,,,,,,,,,,,,,,,627.3722932,627.8715689,627.3722932,627.8715689,90.47619048,1575403529,1575403530,0.832452297,1575403527,1575403529,,,S3,1,72,f,Expert Radiologist,2019_Dec_03_1355,AdjustEyeTrack,3.1.5,60.0628096
96,Stimuli/Morph96.JPG,Stimuli/Morph96.png,Stimuli/BlurLevel5/BlurEditedMorph96,Stimuli/BlurLevel5/BlurEditedMorph96.png,Stimuli/BlurLevel5/NumberedMorphs/BlurEditedMorph96.png,Stimuli/BlurLevel5/OriginalBlur/BlurEditedMorph96.png,Stimuli/BlurMorphTrio/EditedMorph96.png,020292right.gif,Stimuli/normal_thumbnails/96right.gif,,,,,0,0,0,0,0,36,36,95,,,,,,,,,,,,,,,,,,,,,,,17,37,1,241,-1.212024051,-2.186549268,96,Experiment,,,,,,,,,53,53,43,43,,,,,,,,,,,,,,,631.2557604,631.7568604,631.2557604,631.7568604,41.49659864,1575403533,1575403533,0.382838011,1575403530,1575403533,,,S3,1,72,f,Expert Radiologist,2019_Dec_03_1355,AdjustEyeTrack,3.1.5,60.0628096
118,Stimuli/Morph118.JPG,Stimuli/Morph118.png,Stimuli/BlurLevel5/BlurEditedMorph118,Stimuli/BlurLevel5/BlurEditedMorph118.png,Stimuli/BlurLevel5/NumberedMorphs/BlurEditedMorph118.png,Stimuli/BlurLevel5/OriginalBlur/BlurEditedMorph118.png,Stimuli/BlurMorphTrio/EditedMorph118.png,None,None,,,,,0,0,0,0,0,37,37,117,,,,,,,,,,,,,,,,,,,,,,,16,38,1,80,0.434120444,2.462019383,118,Experiment,,,,,,,,,92,92,26,26,,,,,,,,,,,,,,,634.4265199,634.9565122,634.4265199,634.9565122,64.62585034,1575403536,1575403542,5.383301735,1575403534,1575403536,,,S3,1,72,f,Expert Radiologist,2019_Dec_03_1355,AdjustEyeTrack,3.1.5,60.0628096
146,Stimuli/Morph146.JPG,Stimuli/Morph146.png,Stimuli/BlurLevel5/BlurEditedMorph146,Stimuli/BlurLevel5/BlurEditedMorph146.png,Stimuli/BlurLevel5/NumberedMorphs/BlurEditedMorph146.png,Stimuli/BlurLevel5/OriginalBlur/BlurEditedMorph146.png,Stimuli/BlurMorphTrio/EditedMorph146.png,None,None,,,,,0,0,0,0,0,38,38,145,,,,,,,,,,,,,,,,,,,,,,,41,39,1,312,1.672826516,-1.857862064,146,Experiment,,,,,,,,,26,142,4,4,,,,,,,,,,,,,,,642.2771856,642.7716051,642.2771856,642.7716051,94.55782313,1575403544,1575403547,3.249923229,1575403542,1575403544,,,S3,1,72,f,Expert Radiologist,2019_Dec_03_1355,AdjustEyeTrack,3.1.5,60.0628096
45,Stimuli/Morph45.JPG,Stimuli/Morph45.png,Stimuli/BlurLevel5/BlurEditedMorph45,Stimuli/BlurLevel5/BlurEditedMorph45.png,Stimuli/BlurLevel5/NumberedMorphs/BlurEditedMorph45.png,Stimuli/BlurLevel5/OriginalBlur/BlurEditedMorph45.png,Stimuli/BlurMorphTrio/EditedMorph45.png,010127right.gif,Stimuli/normal_thumbnails/45right.gif,,,,,0,0,0,0,0,39,39,44,,,,,,,,,,,,,,,,,,,,,,,84,40,1,26,2.246985116,1.095927867,45,Experiment,,,,,,,,,47,28,17,17,,,,,,,,,,,,,,,647.9068152,648.4069619,647.9068152,648.4069619,76.8707483,1575403550,1575403561,11.13259006,1575403548,1575403550,,,S3,1,72,f,Expert Radiologist,2019_Dec_03_1355,AdjustEyeTrack,3.1.5,60.0628096
121,Stimuli/Morph121.JPG,Stimuli/Morph121.png,Stimuli/BlurLevel5/BlurEditedMorph121,Stimuli/BlurLevel5/BlurEditedMorph121.png,Stimuli/BlurLevel5/NumberedMorphs/BlurEditedMorph121.png,Stimuli/BlurLevel5/OriginalBlur/BlurEditedMorph121.png,Stimuli/BlurMorphTrio/EditedMorph121.png,None,None,,,,,0,0,0,0,0,40,40,120,,,,,,,,,,,,,,,,,,,,,,,87,41,1,229,-1.640147572,-1.886773951,121,Experiment,,,,,,,,,101,101,20,20,,,,,,,,,,,,,,,661.7409066,662.2394399,661.7409066,662.2394399,72.78911565,1575403564,1575403564,0.850911856,1575403561,1575403564,,,S3,1,72,f,Expert Radiologist,2019_Dec_03_1355,AdjustEyeTrack,3.1.5,60.0628096
79,Stimuli/Morph79.JPG,Stimuli/Morph79.png,Stimuli/BlurLevel5/BlurEditedMorph79,Stimuli/BlurLevel5/BlurEditedMorph79.png,Stimuli/BlurLevel5/NumberedMorphs/BlurEditedMorph79.png,Stimuli/BlurLevel5/OriginalBlur/BlurEditedMorph79.png,Stimuli/BlurMorphTrio/EditedMorph79.png,020239right.gif,Stimuli/normal_thumbnails/79right.gif,,,,,0,0,0,0,0,41,41,78,,,,,,,,,,,,,,,,,,,,,,,6,42,1,309,1.573300978,-1.942864904,79,Experiment,,,,,,,,,51,110,-31,-31,,,,,,,,,,,,,,,665.6898645,666.204847,665.6898645,666.204847,57.82312925,1575403567,1575403572,4.104074001,1575403565,1575403567,,,S3,1,72,f,Expert Radiologist,2019_Dec_03_1355,AdjustEyeTrack,3.1.5,60.0628096
92,Stimuli/Morph92.JPG,Stimuli/Morph92.png,Stimuli/BlurLevel5/BlurEditedMorph92,Stimuli/BlurLevel5/BlurEditedMorph92.png,Stimuli/BlurLevel5/NumberedMorphs/BlurEditedMorph92.png,Stimuli/BlurLevel5/OriginalBlur/BlurEditedMorph92.png,Stimuli/BlurMorphTrio/EditedMorph92.png,020277right.gif,Stimuli/normal_thumbnails/92right.gif,,,,,0,0,0,0,0,42,42,91,,,,,,,,,,,,,,,,,,,,,,,84,43,1,222,-1.857862064,-1.672826516,92,Experiment,,,,,,,,,49,101,-9,-9,,,,,,,,,,,,,,,672.1412609,672.6379575,672.1412609,672.6379575,87.75510204,1575403574,1575403577,3.481725931,1575403572,1575403574,,,S3,1,72,f,Expert Radiologist,2019_Dec_03_1355,AdjustEyeTrack,3.1.5,60.0628096
35,Stimuli/Morph35.JPG,Stimuli/Morph35.png,Stimuli/BlurLevel5/BlurEditedMorph35,Stimuli/BlurLevel5/BlurEditedMorph35.png,Stimuli/BlurLevel5/NumberedMorphs/BlurEditedMorph35.png,Stimuli/BlurLevel5/OriginalBlur/BlurEditedMorph35.png,Stimuli/BlurMorphTrio/EditedMorph35.png,010094right.gif,Stimuli/normal_thumbnails/35right.gif,,,,,0,0,0,0,0,43,43,34,,,,,,,,,,,,,,,,,,,,,,,34,44,1,281,0.477022488,-2.454067959,35,Experiment,,,,,,,,,85,57,-22,-22,,,,,,,,,,,,,,,678.6526795,679.1547259,678.6526795,679.1547259,70.06802721,1575403580,1575403584,3.885731697,1575403578,1575403580,,,S3,1,72,f,Expert Radiologist,2019_Dec_03_1355,AdjustEyeTrack,3.1.5,60.0628096
65,Stimuli/Morph65.JPG,Stimuli/Morph65.png,Stimuli/BlurLevel5/BlurEditedMorph65,Stimuli/BlurLevel5/BlurEditedMorph65.png,Stimuli/BlurLevel5/NumberedMorphs/BlurEditedMorph65.png,Stimuli/BlurLevel5/OriginalBlur/BlurEditedMorph65.png,Stimuli/BlurMorphTrio/EditedMorph65.png,020209right.gif,Stimuli/normal_thumbnails/65right.gif,,,,,0,0,0,0,0,44,44,64,,,,,,,,,,,,,,,,,,,,,,,81,45,1,85,0.217889357,2.490486745,65,Experiment,,,,,,,,,55,55,10,10,,,,,,,,,,,,,,,685.2155261,685.705054,685.2155261,685.705054,86.39455782,1575403587,1575403588,1.01564908,1575403585,1575403587,,,S3,1,72,f,Expert Radiologist,2019_Dec_03_1355,AdjustEyeTrack,3.1.5,60.0628096
72,Stimuli/Morph72.JPG,Stimuli/Morph72.png,Stimuli/BlurLevel5/BlurEditedMorph72,Stimuli/BlurLevel5/BlurEditedMorph72.png,Stimuli/BlurLevel5/NumberedMorphs/BlurEditedMorph72.png,Stimuli/BlurLevel5/OriginalBlur/BlurEditedMorph72.png,Stimuli/BlurMorphTrio/EditedMorph72.png,020227right.gif,Stimuli/normal_thumbnails/72right.gif,,,,,0,0,0,0,0,45,45,71,,,,,,,,,,,,,,,,,,,,,,,89,46,1,138,-1.857862064,1.672826516,72,Experiment,,,,,,,,,143,50,22,22,,,,,,,,,,,,,,,689.1600732,689.6550063,689.1600732,689.6550063,70.06802721,1575403591,1575403594,3.43292594,1575403588,1575403591,,,S3,1,72,f,Expert Radiologist,2019_Dec_03_1355,AdjustEyeTrack,3.1.5,60.0628096
12,Stimuli/Morph12.JPG,Stimuli/Morph12.png,Stimuli/BlurLevel5/BlurEditedMorph12,Stimuli/BlurLevel5/BlurEditedMorph12.png,Stimuli/BlurLevel5/NumberedMorphs/BlurEditedMorph12.png,Stimuli/BlurLevel5/OriginalBlur/BlurEditedMorph12.png,Stimuli/BlurMorphTrio/EditedMorph12.png,010026right.gif,Stimuli/normal_thumbnails/12right.gif,,,,,0,0,0,0,0,46,46,11,,,,,,,,,,,,,,,,,,,,,,,41,47,1,279,0.391086163,-2.469220851,12,Experiment,,,,,,,,,114,10,2,2,,,,,,,,,,,,,,,695.4386156,695.9727369,695.4386156,695.9727369,97.27891156,1575403597,1575403603,5.633778334,1575403595,1575403597,,,S3,1,72,f,Expert Radiologist,2019_Dec_03_1355,AdjustEyeTrack,3.1.5,60.0628096
102,Stimuli/Morph102.JPG,Stimuli/Morph102.png,Stimuli/BlurLevel5/BlurEditedMorph102,Stimuli/BlurLevel5/BlurEditedMorph102.png,Stimuli/BlurLevel5/NumberedMorphs/BlurEditedMorph102.png,Stimuli/BlurLevel5/OriginalBlur/BlurEditedMorph102.png,Stimuli/BlurMorphTrio/EditedMorph102.png,None,None,,,,,0,0,0,0,0,47,47,101,,,,,,,,,,,,,,,,,,,,,,,73,48,1,290,0.855050358,-2.349231552,102,Experiment,,,,,,,,,143,112,-10,-10,,,,,,,,,,,,,,,703.4580864,703.9541703,703.4580864,703.9541703,86.39455782,1575403605,1575403613,7.266346931,1575403603,1575403605,,,S3,1,72,f,Expert Radiologist,2019_Dec_03_1355,AdjustEyeTrack,3.1.5,60.0628096
101,Stimuli/Morph101.JPG,Stimuli/Morph101.png,Stimuli/BlurLevel5/BlurEditedMorph101,Stimuli/BlurLevel5/BlurEditedMorph101.png,Stimuli/BlurLevel5/NumberedMorphs/BlurEditedMorph101.png,Stimuli/BlurLevel5/OriginalBlur/BlurEditedMorph101.png,Stimuli/BlurMorphTrio/EditedMorph101.png,None,None,,,,,0,0,0,0,0,48,48,100,,,,,,,,,,,,,,,,,,,,,,,23,49,1,245,-1.056545654,-2.265769468,101,Experiment,,,,,,,,,124,104,-3,-3,,,,,,,,,,,,,,,713.1415141,713.6372564,713.1415141,713.6372564,95.91836735,1575403615,1575403619,3.732897758,1575403613,1575403615,,,S3,1,72,f,Expert Radiologist,2019_Dec_03_1355,AdjustEyeTrack,3.1.5,60.0628096
67,Stimuli/Morph67.JPG,Stimuli/Morph67.png,Stimuli/BlurLevel5/BlurEditedMorph67,Stimuli/BlurLevel5/BlurEditedMorph67.png,Stimuli/BlurLevel5/NumberedMorphs/BlurEditedMorph67.png,Stimuli/BlurLevel5/OriginalBlur/BlurEditedMorph67.png,Stimuli/BlurMorphTrio/EditedMorph67.png,020217right.gif,Stimuli/normal_thumbnails/67right.gif,,,,,0,0,0,0,0,49,49,66,,,,,,,,,,,,,,,,,,,,,,,81,50,1,169,-2.454067959,0.477022488,67,Experiment,,,,,,,,,86,54,13,13,,,,,,,,,,,,,,,719.1404322,719.6394645,719.1404322,719.6394645,82.31292517,1575403621,1575403628,7.317604065,1575403619,1575403621,,,S3,1,72,f,Expert Radiologist,2019_Dec_03_1355,AdjustEyeTrack,3.1.5,60.0628096
122,Stimuli/Morph122.JPG,Stimuli/Morph122.png,Stimuli/BlurLevel5/BlurEditedMorph122,Stimuli/BlurLevel5/BlurEditedMorph122.png,Stimuli/BlurLevel5/NumberedMorphs/BlurEditedMorph122.png,Stimuli/BlurLevel5/OriginalBlur/BlurEditedMorph122.png,Stimuli/BlurMorphTrio/EditedMorph122.png,None,None,,,,,0,0,0,0,0,50,50,121,,,,,,,,,,,,,,,,,,,,,,,37,51,1,86,0.174391184,2.493910126,122,Experiment,,,,,,,,,140,112,10,10,,,,,,,,,,,,,,,729.2318437,729.7375852,729.2318437,729.7375852,86.39455782,1575403631,1575403636,5.033216953,1575403629,1575403631,,,S3,1,72,f,Expert Radiologist,2019_Dec_03_1355,AdjustEyeTrack,3.1.5,60.0628096
126,Stimuli/Morph126.JPG,Stimuli/Morph126.png,Stimuli/BlurLevel5/BlurEditedMorph126,Stimuli/BlurLevel5/BlurEditedMorph126.png,Stimuli/BlurLevel5/NumberedMorphs/BlurEditedMorph126.png,Stimuli/BlurLevel5/OriginalBlur/BlurEditedMorph126.png,Stimuli/BlurMorphTrio/EditedMorph126.png,None,None,,,,,0,0,0,0,0,51,51,125,,,,,,,,,,,,,,,,,,,,,,,20,52,1,204,-2.283863644,-1.016841608,126,Experiment,,,,,,,,,50,124,2,2,,,,,,,,,,,,,,,736.9932333,737.4869748,736.9932333,737.4869748,97.27891156,1575403639,1575403642,3.183779001,1575403636,1575403639,,,S3,1,72,f,Expert Radiologist,2019_Dec_03_1355,AdjustEyeTrack,3.1.5,60.0628096
127,Stimuli/Morph127.JPG,Stimuli/Morph127.png,Stimuli/BlurLevel5/BlurEditedMorph127,Stimuli/BlurLevel5/BlurEditedMorph127.png,Stimuli/BlurLevel5/NumberedMorphs/BlurEditedMorph127.png,Stimuli/BlurLevel5/OriginalBlur/BlurEditedMorph127.png,Stimuli/BlurMorphTrio/EditedMorph127.png,None,None,,,,,0,0,0,0,0,52,52,126,,,,,,,,,,,,,,,,,,,,,,,54,53,1,319,1.886773951,-1.640147572,127,Experiment,,,,,,,,,115,115,12,12,,,,,,,,,,,,,,,742.8171412,743.3199185,742.8171412,743.3199185,83.67346939,1575403645,1575403646,1.78607893,1575403642,1575403645,,,S3,1,72,f,Expert Radiologist,2019_Dec_03_1355,AdjustEyeTrack,3.1.5,60.0628096
4,Stimuli/Morph4.JPG,Stimuli/Morph4.png,Stimuli/BlurLevel5/BlurEditedMorph4,Stimuli/BlurLevel5/BlurEditedMorph4.png,Stimuli/BlurLevel5/NumberedMorphs/BlurEditedMorph4.png,Stimuli/BlurLevel5/OriginalBlur/BlurEditedMorph4.png,Stimuli/BlurMorphTrio/EditedMorph4.png,010010right.gif,Stimuli/normal_thumbnails/4right.gif,,,,,0,0,0,0,0,53,53,3,,,,,,,,,,,,,,,,,,,,,,,29,54,1,236,-1.397982259,-2.072593931,4,Experiment,,,,,,,,,12,145,-141,6,,,,,,,,,,,,,,,747.768963,748.2713714,747.768963,748.2713714,91.83673469,1575403650,1575403653,3.017105103,1575403647,1575403650,,,S3,1,72,f,Expert Radiologist,2019_Dec_03_1355,AdjustEyeTrack,3.1.5,60.0628096
31,Stimuli/Morph31.JPG,Stimuli/Morph31.png,Stimuli/BlurLevel5/BlurEditedMorph31,Stimuli/BlurLevel5/BlurEditedMorph31.png,Stimuli/BlurLevel5/NumberedMorphs/BlurEditedMorph31.png,Stimuli/BlurLevel5/OriginalBlur/BlurEditedMorph31.png,Stimuli/BlurMorphTrio/EditedMorph31.png,010079right.gif,Stimuli/normal_thumbnails/31right.gif,,,,,0,0,0,0,0,54,54,30,,,,,,,,,,,,,,,,,,,,,,,14,55,1,278,0.347932752,-2.475670172,31,Experiment,,,,,,,,,133,42,-11,-11,,,,,,,,,,,,,,,753.3940301,753.9031752,753.3940301,753.9031752,85.03401361,1575403655,1575403663,7.433247089,1575403653,1575403655,,,S3,1,72,f,Expert Radiologist,2019_Dec_03_1355,AdjustEyeTrack,3.1.5,60.0628096
110,Stimuli/Morph110.JPG,Stimuli/Morph110.png,Stimuli/BlurLevel5/BlurEditedMorph110,Stimuli/BlurLevel5/BlurEditedMorph110.png,Stimuli/BlurLevel5/NumberedMorphs/BlurEditedMorph110.png,Stimuli/BlurLevel5/OriginalBlur/BlurEditedMorph110.png,Stimuli/BlurMorphTrio/EditedMorph110.png,None,None,,,,,0,0,0,0,0,55,55,109,,,,,,,,,,,,,,,,,,,,,,,91,56,1,98,-0.347932752,2.475670172,110,Experiment,,,,,,,,,17,121,-11,-11,,,,,,,,,,,,,,,763.3253845,763.8199434,763.3253845,763.8199434,85.03401361,1575403665,1575403670,5.232707024,1575403663,1575403665,,,S3,1,72,f,Expert Radiologist,2019_Dec_03_1355,AdjustEyeTrack,3.1.5,60.0628096
69,Stimuli/Morph69.JPG,Stimuli/Morph69.png,Stimuli/BlurLevel5/BlurEditedMorph69,Stimuli/BlurLevel5/BlurEditedMorph69.png,Stimuli/BlurLevel5/NumberedMorphs/BlurEditedMorph69.png,Stimuli/BlurLevel5/OriginalBlur/BlurEditedMorph69.png,Stimuli/BlurMorphTrio/EditedMorph69.png,020220right.gif,Stimuli/normal_thumbnails/69right.gif,,,,,0,0,0,0,0,56,56,68,,,,,,,,,,,,,,,,,,,,,,,90,57,1,273,0.130839891,-2.496573837,69,Experiment,,,,,,,,,40,131,-62,-62,,,,,,,,,,,,,,,771.1117777,771.6031514,771.1117777,771.6031514,15.6462585,1575403673,1575403687,13.88465309,1575403671,1575403673,,,S3,1,72,f,Expert Radiologist,2019_Dec_03_1355,AdjustEyeTrack,3.1.5,60.0628096
61,Stimuli/Morph61.JPG,Stimuli/Morph61.png,Stimuli/BlurLevel5/BlurEditedMorph61,Stimuli/BlurLevel5/BlurEditedMorph61.png,Stimuli/BlurLevel5/NumberedMorphs/BlurEditedMorph61.png,Stimuli/BlurLevel5/OriginalBlur/BlurEditedMorph61.png,Stimuli/BlurMorphTrio/EditedMorph61.png,020201right.gif,Stimuli/normal_thumbnails/61right.gif,,,,,0,0,0,0,0,57,57,60,,,,,,,,,,,,,,,,,,,,,,,84,58,1,193,-2.435925162,-0.562377636,61,Experiment,,,,,,,,,140,58,3,3,,,,,,,,,,,,,,,787.6057872,788.103625,787.6057872,788.103625,95.91836735,1575403689,1575403694,4.718822956,1575403687,1575403689,,,S3,1,72,f,Expert Radiologist,2019_Dec_03_1355,AdjustEyeTrack,3.1.5,60.0628096
133,Stimuli/Morph133.JPG,Stimuli/Morph133.png,Stimuli/BlurLevel5/BlurEditedMorph133,Stimuli/BlurLevel5/BlurEditedMorph133.png,Stimuli/BlurLevel5/NumberedMorphs/BlurEditedMorph133.png,Stimuli/BlurLevel5/OriginalBlur/BlurEditedMorph133.png,Stimuli/BlurMorphTrio/EditedMorph133.png,None,None,,,,,0,0,0,0,0,58,58,132,,,,,,,,,,,,,,,,,,,,,,,30,59,1,17,2.39076189,0.730929262,133,Experiment,,,,,,,,,120,145,-12,-12,,,,,,,,,,,,,,,795.1867802,795.6863872,795.1867802,795.6863872,83.67346939,1575403697,1575403706,8.782720089,1575403694,1575403697,,,S3,1,72,f,Expert Radiologist,2019_Dec_03_1355,AdjustEyeTrack,3.1.5,60.0628096
68,Stimuli/Morph68.JPG,Stimuli/Morph68.png,Stimuli/BlurLevel5/BlurEditedMorph68,Stimuli/BlurLevel5/BlurEditedMorph68.png,Stimuli/BlurLevel5/NumberedMorphs/BlurEditedMorph68.png,Stimuli/BlurLevel5/OriginalBlur/BlurEditedMorph68.png,Stimuli/BlurMorphTrio/EditedMorph68.png,020218right.gif,Stimuli/normal_thumbnails/68right.gif,,,,,0,0,0,0,0,59,59,67,,,,,,,,,,,,,,,,,,,,,,,96,60,1,273,0.130839891,-2.496573837,68,Experiment,,,,,,,,,89,65,3,3,,,,,,,,,,,,,,,807.5220824,808.0199366,807.5220824,808.0199366,95.91836735,1575403709,1575403713,3.783426046,1575403706,1575403709,,,S3,1,72,f,Expert Radiologist,2019_Dec_03_1355,AdjustEyeTrack,3.1.5,60.0628096
125,Stimuli/Morph125.JPG,Stimuli/Morph125.png,Stimuli/BlurLevel5/BlurEditedMorph125,Stimuli/BlurLevel5/BlurEditedMorph125.png,Stimuli/BlurLevel5/NumberedMorphs/BlurEditedMorph125.png,Stimuli/BlurLevel5/OriginalBlur/BlurEditedMorph125.png,Stimuli/BlurMorphTrio/EditedMorph125.png,None,None,,,,,0,0,0,0,0,60,60,124,,,,,,,,,,,,,,,,,,,,,,,65,61,1,198,-2.377641291,-0.772542486,125,Experiment,,,,,,,,,119,119,6,6,,,,,,,,,,,,,,,814.2281293,814.7194766,814.2281293,814.7194766,91.83673469,1575403716,1575403717,1.116467953,1575403713,1575403716,,,S3,1,72,f,Expert Radiologist,2019_Dec_03_1355,AdjustEyeTrack,3.1.5,60.0628096
129,Stimuli/Morph129.JPG,Stimuli/Morph129.png,Stimuli/BlurLevel5/BlurEditedMorph129,Stimuli/BlurLevel5/BlurEditedMorph129.png,Stimuli/BlurLevel5/NumberedMorphs/BlurEditedMorph129.png,Stimuli/BlurLevel5/OriginalBlur/BlurEditedMorph129.png,Stimuli/BlurMorphTrio/EditedMorph129.png,None,None,,,,,0,0,0,0,0,61,61,128,,,,,,,,,,,,,,,,,,,,,,,61,62,1,9,2.469220851,0.391086163,129,Experiment,,,,,,,,,129,129,0,0,,,,,,,,,,,,,,,818.3794064,818.8860415,818.3794064,818.8860415,100,1575403720,1575403721,0.933303833,1575403717,1575403720,,,S3,1,72,f,Expert Radiologist,2019_Dec_03_1355,AdjustEyeTrack,3.1.5,60.0628096
132,Stimuli/Morph132.JPG,Stimuli/Morph132.png,Stimuli/BlurLevel5/BlurEditedMorph132,Stimuli/BlurLevel5/BlurEditedMorph132.png,Stimuli/BlurLevel5/NumberedMorphs/BlurEditedMorph132.png,Stimuli/BlurLevel5/OriginalBlur/BlurEditedMorph132.png,Stimuli/BlurMorphTrio/EditedMorph132.png,None,None,,,,,0,0,0,0,0,62,62,131,,,,,,,,,,,,,,,,,,,,,,,18,63,1,209,-2.186549268,-1.212024051,132,Experiment,,,,,,,,,29,112,20,20,,,,,,,,,,,,,,,821.8700354,822.3688582,821.8700354,822.3688582,72.78911565,1575403724,1575403728,4.016465187,1575403722,1575403724,,,S3,1,72,f,Expert Radiologist,2019_Dec_03_1355,AdjustEyeTrack,3.1.5,60.0628096
23,Stimuli/Morph23.JPG,Stimuli/Morph23.png,Stimuli/BlurLevel5/BlurEditedMorph23,Stimuli/BlurLevel5/BlurEditedMorph23.png,Stimuli/BlurLevel5/NumberedMorphs/BlurEditedMorph23.png,Stimuli/BlurLevel5/OriginalBlur/BlurEditedMorph23.png,Stimuli/BlurMorphTrio/EditedMorph23.png,010063right.gif,Stimuli/normal_thumbnails/23right.gif,,,,,0,0,0,0,0,63,63,22,,,,,,,,,,,,,,,,,,,,,,,71,64,1,241,-1.212024051,-2.186549268,23,Experiment,,,,,,,,,2,146,-123,24,,,,,,,,,,,,,,,828.2528275,828.7539541,828.2528275,828.7539541,67.34693878,1575403730,1575403736,5.482240915,1575403728,1575403730,,,S3,1,72,f,Expert Radiologist,2019_Dec_03_1355,AdjustEyeTrack,3.1.5,60.0628096
138,Stimuli/Morph138.JPG,Stimuli/Morph138.png,Stimuli/BlurLevel5/BlurEditedMorph138,Stimuli/BlurLevel5/BlurEditedMorph138.png,Stimuli/BlurLevel5/NumberedMorphs/BlurEditedMorph138.png,Stimuli/BlurLevel5/OriginalBlur/BlurEditedMorph138.png,Stimuli/BlurMorphTrio/EditedMorph138.png,None,None,,,,,0,0,0,0,0,64,64,137,,,,,,,,,,,,,,,,,,,,,,,35,65,1,307,1.504537558,-1.996588775,138,Experiment,,,,,,,,,52,139,-1,-1,,,,,,,,,,,,,,,836.3372203,836.8362493,836.3372203,836.8362493,98.63945578,1575403738,1575403742,3.834094286,1575403736,1575403738,,,S3,1,72,f,Expert Radiologist,2019_Dec_03_1355,AdjustEyeTrack,3.1.5,60.0628096
7,Stimuli/Morph7.JPG,Stimuli/Morph7.png,Stimuli/BlurLevel5/BlurEditedMorph7,Stimuli/BlurLevel5/BlurEditedMorph7.png,Stimuli/BlurLevel5/NumberedMorphs/BlurEditedMorph7.png,Stimuli/BlurLevel5/OriginalBlur/BlurEditedMorph7.png,Stimuli/BlurMorphTrio/EditedMorph7.png,010013right.gif,Stimuli/normal_thumbnails/7right.gif,,,,,0,0,0,0,0,65,65,6,,,,,,,,,,,,,,,,,,,,,,,56,66,1,129,-1.573300978,1.942864904,7,Experiment,,,,,,,,,126,126,-119,28,,,,,,,,,,,,,,,843.239995,843.7369597,843.239995,843.7369597,61.9047619,1575403745,1575403747,1.916553974,1575403742,1575403745,,,S3,1,72,f,Expert Radiologist,2019_Dec_03_1355,AdjustEyeTrack,3.1.5,60.0628096
60,Stimuli/Morph60.JPG,Stimuli/Morph60.png,Stimuli/BlurLevel5/BlurEditedMorph60,Stimuli/BlurLevel5/BlurEditedMorph60.png,Stimuli/BlurLevel5/NumberedMorphs/BlurEditedMorph60.png,Stimuli/BlurLevel5/OriginalBlur/BlurEditedMorph60.png,Stimuli/BlurMorphTrio/EditedMorph60.png,020200right.gif,Stimuli/normal_thumbnails/60right.gif,,,,,0,0,0,0,0,66,66,59,,,,,,,,,,,,,,,,,,,,,,,57,67,1,160,-2.349231552,0.855050358,60,Experiment,,,,,,,,,59,59,1,1,,,,,,,,,,,,,,,848.0701876,848.5691053,848.0701876,848.5691053,98.63945578,1575403750,1575403751,1.11668992,1575403747,1575403750,,,S3,1,72,f,Expert Radiologist,2019_Dec_03_1355,AdjustEyeTrack,3.1.5,60.0628096
134,Stimuli/Morph134.JPG,Stimuli/Morph134.png,Stimuli/BlurLevel5/BlurEditedMorph134,Stimuli/BlurLevel5/BlurEditedMorph134.png,Stimuli/BlurLevel5/NumberedMorphs/BlurEditedMorph134.png,Stimuli/BlurLevel5/OriginalBlur/BlurEditedMorph134.png,Stimuli/BlurMorphTrio/EditedMorph134.png,None,None,,,,,0,0,0,0,0,67,67,133,,,,,,,,,,,,,,,,,,,,,,,83,68,1,178,-2.498477068,0.087248742,134,Experiment,,,,,,,,,60,118,16,16,,,,,,,,,,,,,,,851.8317408,852.3361073,851.8317408,852.3361073,78.23129252,1575403754,1575403761,7.617196798,1575403751,1575403754,,,S3,1,72,f,Expert Radiologist,2019_Dec_03_1355,AdjustEyeTrack,3.1.5,60.0628096
91,Stimuli/Morph91.JPG,Stimuli/Morph91.png,Stimuli/BlurLevel5/BlurEditedMorph91,Stimuli/BlurLevel5/BlurEditedMorph91.png,Stimuli/BlurLevel5/NumberedMorphs/BlurEditedMorph91.png,Stimuli/BlurLevel5/OriginalBlur/BlurEditedMorph91.png,Stimuli/BlurMorphTrio/EditedMorph91.png,020276right.gif,Stimuli/normal_thumbnails/91right.gif,,,,,0,0,0,0,0,68,68,90,,,,,,,,,,,,,,,,,,,,,,,92,69,1,3,2.496573837,0.130839891,91,Experiment,,,,,,,,,13,128,-37,-37,,,,,,,,,,,,,,,862.9057446,863.4023897,862.9057446,863.4023897,49.65986395,1575403765,1575403770,5.600956917,1575403762,1575403765,,,S3,1,72,f,Expert Radiologist,2019_Dec_03_1355,AdjustEyeTrack,3.1.5,60.0628096
137,Stimuli/Morph137.JPG,Stimuli/Morph137.png,Stimuli/BlurLevel5/BlurEditedMorph137,Stimuli/BlurLevel5/BlurEditedMorph137.png,Stimuli/BlurLevel5/NumberedMorphs/BlurEditedMorph137.png,Stimuli/BlurLevel5/OriginalBlur/BlurEditedMorph137.png,Stimuli/BlurMorphTrio/EditedMorph137.png,None,None,,,,,0,0,0,0,0,69,69,136,,,,,,,,,,,,,,,,,,,,,,,22,70,1,303,1.361597588,-2.09667642,137,Experiment,,,,,,,,,8,133,4,4,,,,,,,,,,,,,,,871.2068698,871.702159,871.2068698,871.702159,94.55782313,1575403773,1575403780,6.532691002,1575403771,1575403773,,,S3,1,72,f,Expert Radiologist,2019_Dec_03_1355,AdjustEyeTrack,3.1.5,60.0628096
14,Stimuli/Morph14.JPG,Stimuli/Morph14.png,Stimuli/BlurLevel5/BlurEditedMorph14,Stimuli/BlurLevel5/BlurEditedMorph14.png,Stimuli/BlurLevel5/NumberedMorphs/BlurEditedMorph14.png,Stimuli/BlurLevel5/OriginalBlur/BlurEditedMorph14.png,Stimuli/BlurMorphTrio/EditedMorph14.png,010030right.gif,Stimuli/normal_thumbnails/14right.gif,,,,,0,0,0,0,0,70,70,13,,,,,,,,,,,,,,,,,,,,,,,34,71,1,195,-2.414814566,-0.647047613,14,Experiment,,,,,,,,,77,134,-120,27,,,,,,,,,,,,,,,880.4495644,880.951331,880.4495644,880.951331,63.26530612,1575403782,1575403792,9.800364256,1575403780,1575403782,,,S3,1,72,f,Expert Radiologist,2019_Dec_03_1355,AdjustEyeTrack,3.1.5,60.0628096
5,Stimuli/Morph5.JPG,Stimuli/Morph5.png,Stimuli/BlurLevel5/BlurEditedMorph5,Stimuli/BlurLevel5/BlurEditedMorph5.png,Stimuli/BlurLevel5/NumberedMorphs/BlurEditedMorph5.png,Stimuli/BlurLevel5/OriginalBlur/BlurEditedMorph5.png,Stimuli/BlurMorphTrio/EditedMorph5.png,010011right.gif,Stimuli/normal_thumbnails/5right.gif,,,,,0,0,0,0,0,71,71,4,,,,,,,,,,,,,,,,,,,,,,,75,72,1,302,1.324798161,-2.12012024,5,Experiment,,,,,,,,,145,14,-9,-9,,,,,,,,,,,,,,,892.568718,893.0677648,892.568718,893.0677648,87.75510204,1575403794,1575403802,7.300297022,1575403792,1575403794,,,S3,1,72,f,Expert Radiologist,2019_Dec_03_1355,AdjustEyeTrack,3.1.5,60.0628096
145,Stimuli/Morph145.JPG,Stimuli/Morph145.png,Stimuli/BlurLevel5/BlurEditedMorph145,Stimuli/BlurLevel5/BlurEditedMorph145.png,Stimuli/BlurLevel5/NumberedMorphs/BlurEditedMorph145.png,Stimuli/BlurLevel5/OriginalBlur/BlurEditedMorph145.png,Stimuli/BlurMorphTrio/EditedMorph145.png,None,None,,,,,0,0,0,0,0,72,72,144,,,,,,,,,,,,,,,,,,,,,,,25,73,1,241,-1.212024051,-2.186549268,145,Experiment,,,,,,,,,69,5,140,-7,,,,,,,,,,,,,,,902.4697422,902.9679643,902.4697422,902.9679643,90.47619048,1575403804,1575403810,5.602774143,1575403802,1575403804,,,S3,1,72,f,Expert Radiologist,2019_Dec_03_1355,AdjustEyeTrack,3.1.5,60.0628096
81,Stimuli/Morph81.JPG,Stimuli/Morph81.png,Stimuli/BlurLevel5/BlurEditedMorph81,Stimuli/BlurLevel5/BlurEditedMorph81.png,Stimuli/BlurLevel5/NumberedMorphs/BlurEditedMorph81.png,Stimuli/BlurLevel5/OriginalBlur/BlurEditedMorph81.png,Stimuli/BlurMorphTrio/EditedMorph81.png,020245right.gif,Stimuli/normal_thumbnails/81right.gif,,,,,0,0,0,0,0,73,73,80,,,,,,,,,,,,,,,,,,,,,,,58,74,1,181,-2.499619238,-0.043631016,81,Experiment,,,,,,,,,23,111,-30,-30,,,,,,,,,,,,,,,910.7623824,911.251272,910.7623824,911.251272,59.18367347,1575403813,1575403819,6.468590021,1575403810,1575403813,,,S3,1,72,f,Expert Radiologist,2019_Dec_03_1355,AdjustEyeTrack,3.1.5,60.0628096
27,Stimuli/Morph27.JPG,Stimuli/Morph27.png,Stimuli/BlurLevel5/BlurEditedMorph27,Stimuli/BlurLevel5/BlurEditedMorph27.png,Stimuli/BlurLevel5/NumberedMorphs/BlurEditedMorph27.png,Stimuli/BlurLevel5/OriginalBlur/BlurEditedMorph27.png,Stimuli/BlurMorphTrio/EditedMorph27.png,010072right.gif,Stimuli/normal_thumbnails/27right.gif,,,,,0,0,0,0,0,74,74,26,,,,,,,,,,,,,,,,,,,,,,,3,75,1,12,2.445369002,0.519779227,27,Experiment,,,,,,,,,107,9,18,18,,,,,,,,,,,,,,,920.0866717,920.5850257,920.0866717,920.5850257,75.51020408,1575403822,1575403829,7.416445017,1575403819,1575403822,,,S3,1,72,f,Expert Radiologist,2019_Dec_03_1355,AdjustEyeTrack,3.1.5,60.0628096
53,Stimuli/Morph53.JPG,Stimuli/Morph53.png,Stimuli/BlurLevel5/BlurEditedMorph53,Stimuli/BlurLevel5/BlurEditedMorph53.png,Stimuli/BlurLevel5/NumberedMorphs/BlurEditedMorph53.png,Stimuli/BlurLevel5/OriginalBlur/BlurEditedMorph53.png,Stimuli/BlurMorphTrio/EditedMorph53.png,010149right.gif,Stimuli/normal_thumbnails/53right.gif,,,,,0,0,0,0,0,75,75,52,,,,,,,,,,,,,,,,,,,,,,,73,76,1,68,0.936516484,2.317959636,53,Experiment,,,,,,,,,86,120,-67,-67,,,,,,,,,,,,,,,930.2364322,930.7343745,930.2364322,930.7343745,8.843537415,1575403832,1575403841,8.666651011,1575403830,1575403832,,,S3,1,72,f,Expert Radiologist,2019_Dec_03_1355,AdjustEyeTrack,3.1.5,60.0628096
41,Stimuli/Morph41.JPG,Stimuli/Morph41.png,Stimuli/BlurLevel5/BlurEditedMorph41,Stimuli/BlurLevel5/BlurEditedMorph41.png,Stimuli/BlurLevel5/NumberedMorphs/BlurEditedMorph41.png,Stimuli/BlurLevel5/OriginalBlur/BlurEditedMorph41.png,Stimuli/BlurMorphTrio/EditedMorph41.png,010112right.gif,Stimuli/normal_thumbnails/41right.gif,,,,,0,0,0,0,0,76,76,40,,,,,,,,,,,,,,,,,,,,,,,12,77,1,55,1.433941091,2.047880111,41,Experiment,,,,,,,,,68,44,-3,-3,,,,,,,,,,,,,,,941.4929392,941.9839853,941.4929392,941.9839853,95.91836735,1575403843,1575403849,5.315296888,1575403841,1575403843,,,S3,1,72,f,Expert Radiologist,2019_Dec_03_1355,AdjustEyeTrack,3.1.5,60.0628096
140,Stimuli/Morph140.JPG,Stimuli/Morph140.png,Stimuli/BlurLevel5/BlurEditedMorph140,Stimuli/BlurLevel5/BlurEditedMorph140.png,Stimuli/BlurLevel5/NumberedMorphs/BlurEditedMorph140.png,Stimuli/BlurLevel5/OriginalBlur/BlurEditedMorph140.png,Stimuli/BlurMorphTrio/EditedMorph140.png,None,None,,,,,0,0,0,0,0,77,77,139,,,,,,,,,,,,,,,,,,,,,,,96,78,1,224,-1.798349501,-1.736645926,140,Experiment,,,,,,,,,75,4,136,-11,,,,,,,,,,,,,,,949.9703486,950.4689076,949.9703486,950.4689076,85.03401361,1575403852,1575403862,9.916415215,1575403849,1575403852,,,S3,1,72,f,Expert Radiologist,2019_Dec_03_1355,AdjustEyeTrack,3.1.5,60.0628096
99,Stimuli/Morph99.JPG,Stimuli/Morph99.png,Stimuli/BlurLevel5/BlurEditedMorph99,Stimuli/BlurLevel5/BlurEditedMorph99.png,Stimuli/BlurLevel5/NumberedMorphs/BlurEditedMorph99.png,Stimuli/BlurLevel5/OriginalBlur/BlurEditedMorph99.png,Stimuli/BlurMorphTrio/EditedMorph99.png,020299right.gif,Stimuli/normal_thumbnails/99right.gif,,,,,0,0,0,0,0,78,78,98,,,,,,,,,,,,,,,,,,,,,,,63,79,1,119,-1.212024051,2.186549268,99,Experiment,,,,,,,,,132,108,-9,-9,,,,,,,,,,,,,,,962.669969,963.1681119,962.669969,963.1681119,87.75510204,1575403864,1575403868,3.51584506,1575403862,1575403864,,,S3,1,72,f,Expert Radiologist,2019_Dec_03_1355,AdjustEyeTrack,3.1.5,60.0628096
83,Stimuli/Morph83.JPG,Stimuli/Morph83.png,Stimuli/BlurLevel5/BlurEditedMorph83,Stimuli/BlurLevel5/BlurEditedMorph83.png,Stimuli/BlurLevel5/NumberedMorphs/BlurEditedMorph83.png,Stimuli/BlurLevel5/OriginalBlur/BlurEditedMorph83.png,Stimuli/BlurMorphTrio/EditedMorph83.png,020259right.gif,Stimuli/normal_thumbnails/83right.gif,,,,,0,0,0,0,0,79,79,82,,,,,,,,,,,,,,,,,,,,,,,95,80,1,348,2.445369002,-0.519779227,83,Experiment,,,,,,,,,85,91,-8,-8,,,,,,,,,,,,,,,969.4341394,969.9685674,969.4341394,969.9685674,89.11564626,1575403871,1575403875,3.683992147,1575403868,1575403871,,,S3,1,72,f,Expert Radiologist,2019_Dec_03_1355,AdjustEyeTrack,3.1.5,60.0628096
109,Stimuli/Morph109.JPG,Stimuli/Morph109.png,Stimuli/BlurLevel5/BlurEditedMorph109,Stimuli/BlurLevel5/BlurEditedMorph109.png,Stimuli/BlurLevel5/NumberedMorphs/BlurEditedMorph109.png,Stimuli/BlurLevel5/OriginalBlur/BlurEditedMorph109.png,Stimuli/BlurMorphTrio/EditedMorph109.png,None,None,,,,,0,0,0,0,0,80,80,108,,,,,,,,,,,,,,,,,,,,,,,93,81,1,354,2.486304738,-0.261321158,109,Experiment,,,,,,,,,95,95,14,14,,,,,,,,,,,,,,,977.0204748,977.5200896,977.0204748,977.5200896,80.95238095,1575403879,1575403880,1.017045975,1575403875,1575403879,,,S3,1,72,f,Expert Radiologist,2019_Dec_03_1355,AdjustEyeTrack,3.1.5,60.0628096
59,Stimuli/Morph59.JPG,Stimuli/Morph59.png,Stimuli/BlurLevel5/BlurEditedMorph59,Stimuli/BlurLevel5/BlurEditedMorph59.png,Stimuli/BlurLevel5/NumberedMorphs/BlurEditedMorph59.png,Stimuli/BlurLevel5/OriginalBlur/BlurEditedMorph59.png,Stimuli/BlurMorphTrio/EditedMorph59.png,010160right.gif,Stimuli/normal_thumbnails/59right.gif,,,,,0,0,0,0,0,81,81,58,,,,,,,,,,,,,,,,,,,,,,,89,82,1,357,2.496573837,-0.130839891,59,Experiment,,,,,,,,,74,60,-1,-1,,,,,,,,,,,,,,,980.7882084,981.2841007,980.7882084,981.2841007,98.63945578,1575403883,1575403886,3.883875847,1575403880,1575403883,,,S3,1,72,f,Expert Radiologist,2019_Dec_03_1355,AdjustEyeTrack,3.1.5,60.0628096
63,Stimuli/Morph63.JPG,Stimuli/Morph63.png,Stimuli/BlurLevel5/BlurEditedMorph63,Stimuli/BlurLevel5/BlurEditedMorph63.png,Stimuli/BlurLevel5/NumberedMorphs/BlurEditedMorph63.png,Stimuli/BlurLevel5/OriginalBlur/BlurEditedMorph63.png,Stimuli/BlurMorphTrio/EditedMorph63.png,020206right.gif,Stimuli/normal_thumbnails/63right.gif,,,,,0,0,0,0,0,82,82,62,,,,,,,,,,,,,,,,,,,,,,,64,83,1,316,1.798349501,-1.736645926,63,Experiment,,,,,,,,,25,53,10,10,,,,,,,,,,,,,,,987.1172393,987.6173493,987.1172393,987.6173493,86.39455782,1575403889,1575403896,6.850047112,1575403887,1575403889,,,S3,1,72,f,Expert Radiologist,2019_Dec_03_1355,AdjustEyeTrack,3.1.5,60.0628096
46,Stimuli/Morph46.JPG,Stimuli/Morph46.png,Stimuli/BlurLevel5/BlurEditedMorph46,Stimuli/BlurLevel5/BlurEditedMorph46.png,Stimuli/BlurLevel5/NumberedMorphs/BlurEditedMorph46.png,Stimuli/BlurLevel5/OriginalBlur/BlurEditedMorph46.png,Stimuli/BlurMorphTrio/EditedMorph46.png,010128right.gif,Stimuli/normal_thumbnails/46right.gif,,,,,0,0,0,0,0,83,83,45,,,,,,,,,,,,,,,,,,,,,,,68,84,1,203,-2.301262134,-0.976827821,46,Experiment,,,,,,,,,142,101,-55,-55,,,,,,,,,,,,,,,996.7961156,997.3003784,996.7961156,997.3003784,25.17006803,1575403899,1575403910,11.6845789,1575403896,1575403899,,,S3,1,72,f,Expert Radiologist,2019_Dec_03_1355,AdjustEyeTrack,3.1.5,60.0628096
34,Stimuli/Morph34.JPG,Stimuli/Morph34.png,Stimuli/BlurLevel5/BlurEditedMorph34,Stimuli/BlurLevel5/BlurEditedMorph34.png,Stimuli/BlurLevel5/NumberedMorphs/BlurEditedMorph34.png,Stimuli/BlurLevel5/OriginalBlur/BlurEditedMorph34.png,Stimuli/BlurMorphTrio/EditedMorph34.png,010090right.gif,Stimuli/normal_thumbnails/34right.gif,,,,,0,0,0,0,0,84,84,33,,,,,,,,,,,,,,,,,,,,,,,42,85,1,80,0.434120444,2.462019383,34,Experiment,,,,,,,,,35,35,-1,-1,,,,,,,,,,,,,,,1011.219834,1011.733261,1011.219834,1011.733261,98.63945578,1575403913,1575403915,1.899935007,1575403911,1575403913,,,S3,1,72,f,Expert Radiologist,2019_Dec_03_1355,AdjustEyeTrack,3.1.5,60.0628096
4,Stimuli/Morph4.JPG,Stimuli/Morph4.png,Stimuli/BlurLevel5/BlurEditedMorph4,Stimuli/BlurLevel5/BlurEditedMorph4.png,Stimuli/BlurLevel5/NumberedMorphs/BlurEditedMorph4.png,Stimuli/BlurLevel5/OriginalBlur/BlurEditedMorph4.png,Stimuli/BlurMorphTrio/EditedMorph4.png,010010right.gif,Stimuli/normal_thumbnails/4right.gif,,,,,1,0,1,0,0,0,0,3,,,,,,,,,,,,,,,,,,,,,,,69,1,2,27,2.22751631,1.134976249,4,Experiment,,,,,,,,,125,128,-124,23,,,,,,,,,,,,,,,1028.135636,1028.633887,1028.135636,1028.633887,68.70748299,1575403930,1575403934,3.816382885,1575403927,1575403930,space,11.29767331,S3,1,72,f,Expert Radiologist,2019_Dec_03_1355,AdjustEyeTrack,3.1.5,60.0628096
112,Stimuli/Morph112.JPG,Stimuli/Morph112.png,Stimuli/BlurLevel5/BlurEditedMorph112,Stimuli/BlurLevel5/BlurEditedMorph112.png,Stimuli/BlurLevel5/NumberedMorphs/BlurEditedMorph112.png,Stimuli/BlurLevel5/OriginalBlur/BlurEditedMorph112.png,Stimuli/BlurMorphTrio/EditedMorph112.png,None,None,,,,,1,0,1,0,0,1,1,111,,,,,,,,,,,,,,,,,,,,,,,98,2,2,122,-1.324798161,2.12012024,112,Experiment,,,,,,,,,103,103,9,9,,,,,,,,,,,,,,,1034.550375,1035.049719,1034.550375,1035.049719,87.75510204,1575403936,1575403937,1.000446796,1575403934,1575403936,,,S3,1,72,f,Expert Radiologist,2019_Dec_03_1355,AdjustEyeTrack,3.1.5,60.0628096
70,Stimuli/Morph70.JPG,Stimuli/Morph70.png,Stimuli/BlurLevel5/BlurEditedMorph70,Stimuli/BlurLevel5/BlurEditedMorph70.png,Stimuli/BlurLevel5/NumberedMorphs/BlurEditedMorph70.png,Stimuli/BlurLevel5/OriginalBlur/BlurEditedMorph70.png,Stimuli/BlurMorphTrio/EditedMorph70.png,020221right.gif,Stimuli/normal_thumbnails/70right.gif,,,,,1,0,1,0,0,2,2,69,,,,,,,,,,,,,,,,,,,,,,,31,3,2,144,-2.022542486,1.469463131,70,Experiment,,,,,,,,,104,94,-24,-24,,,,,,,,,,,,,,,1038.573528,1039.067781,1038.573528,1039.067781,67.34693878,1575403940,1575403953,12.71604395,1575403938,1575403940,,,S3,1,72,f,Expert Radiologist,2019_Dec_03_1355,AdjustEyeTrack,3.1.5,60.0628096
30,Stimuli/Morph30.JPG,Stimuli/Morph30.png,Stimuli/BlurLevel5/BlurEditedMorph30,Stimuli/BlurLevel5/BlurEditedMorph30.png,Stimuli/BlurLevel5/NumberedMorphs/BlurEditedMorph30.png,Stimuli/BlurLevel5/OriginalBlur/BlurEditedMorph30.png,Stimuli/BlurMorphTrio/EditedMorph30.png,010076right.gif,Stimuli/normal_thumbnails/30right.gif,,,,,1,0,1,0,0,3,3,29,,,,,,,,,,,,,,,,,,,,,,,92,4,2,252,-0.772542486,-2.377641291,30,Experiment,,,,,,,,,1,44,-14,-14,,,,,,,,,,,,,,,1054.55149,1055.048872,1054.55149,1055.048872,80.95238095,1575403956,1575403966,9.982805967,1575403953,1575403956,,,S3,1,72,f,Expert Radiologist,2019_Dec_03_1355,AdjustEyeTrack,3.1.5,60.0628096
89,Stimuli/Morph89.JPG,Stimuli/Morph89.png,Stimuli/BlurLevel5/BlurEditedMorph89,Stimuli/BlurLevel5/BlurEditedMorph89.png,Stimuli/BlurLevel5/NumberedMorphs/BlurEditedMorph89.png,Stimuli/BlurLevel5/OriginalBlur/BlurEditedMorph89.png,Stimuli/BlurMorphTrio/EditedMorph89.png,020273right.gif,Stimuli/normal_thumbnails/89right.gif,,,,,1,0,1,0,0,4,4,88,,,,,,,,,,,,,,,,,,,,,,,8,5,2,167,-2.435925162,0.562377636,89,Experiment,,,,,,,,,45,87,2,2,,,,,,,,,,,,,,,1067.020903,1067.516632,1067.020903,1067.516632,97.27891156,1575403969,1575403971,2.24975276,1575403967,1575403969,,,S3,1,72,f,Expert Radiologist,2019_Dec_03_1355,AdjustEyeTrack,3.1.5,60.0628096
76,Stimuli/Morph76.JPG,Stimuli/Morph76.png,Stimuli/BlurLevel5/BlurEditedMorph76,Stimuli/BlurLevel5/BlurEditedMorph76.png,Stimuli/BlurLevel5/NumberedMorphs/BlurEditedMorph76.png,Stimuli/BlurLevel5/OriginalBlur/BlurEditedMorph76.png,Stimuli/BlurMorphTrio/EditedMorph76.png,020234right.gif,Stimuli/normal_thumbnails/76right.gif,,,,,1,0,1,0,0,5,5,75,,,,,,,,,,,,,,,,,,,,,,,12,6,2,2,2.498477068,0.087248742,76,Experiment,,,,,,,,,64,92,-16,-16,,,,,,,,,,,,,,,1072.135712,1072.632253,1072.135712,1072.632253,78.23129252,1575403974,1575403978,4.43422699,1575403971,1575403974,,,S3,1,72,f,Expert Radiologist,2019_Dec_03_1355,AdjustEyeTrack,3.1.5,60.0628096
81,Stimuli/Morph81.JPG,Stimuli/Morph81.png,Stimuli/BlurLevel5/BlurEditedMorph81,Stimuli/BlurLevel5/BlurEditedMorph81.png,Stimuli/BlurLevel5/NumberedMorphs/BlurEditedMorph81.png,Stimuli/BlurLevel5/OriginalBlur/BlurEditedMorph81.png,Stimuli/BlurMorphTrio/EditedMorph81.png,020245right.gif,Stimuli/normal_thumbnails/81right.gif,,,,,1,0,1,0,0,6,6,80,,,,,,,,,,,,,,,,,,,,,,,86,7,2,302,1.324798161,-2.12012024,81,Experiment,,,,,,,,,54,93,-12,-12,,,,,,,,,,,,,,,1079.442398,1079.933937,1079.442398,1079.933937,83.67346939,1575403981,1575403983,1.991755962,1575403979,1575403981,,,S3,1,72,f,Expert Radiologist,2019_Dec_03_1355,AdjustEyeTrack,3.1.5,60.0628096
109,Stimuli/Morph109.JPG,Stimuli/Morph109.png,Stimuli/BlurLevel5/BlurEditedMorph109,Stimuli/BlurLevel5/BlurEditedMorph109.png,Stimuli/BlurLevel5/NumberedMorphs/BlurEditedMorph109.png,Stimuli/BlurLevel5/OriginalBlur/BlurEditedMorph109.png,Stimuli/BlurMorphTrio/EditedMorph109.png,None,None,,,,,1,0,1,0,0,7,7,108,,,,,,,,,,,,,,,,,,,,,,,54,8,2,96,-0.261321158,2.486304738,109,Experiment,,,,,,,,,24,79,30,30,,,,,,,,,,,,,,,1083.975912,1084.467026,1083.975912,1084.467026,59.18367347,1575403986,1575403993,6.91728282,1575403984,1575403986,,,S3,1,72,f,Expert Radiologist,2019_Dec_03_1355,AdjustEyeTrack,3.1.5,60.0628096
105,Stimuli/Morph105.JPG,Stimuli/Morph105.png,Stimuli/BlurLevel5/BlurEditedMorph105,Stimuli/BlurLevel5/BlurEditedMorph105.png,Stimuli/BlurLevel5/NumberedMorphs/BlurEditedMorph105.png,Stimuli/BlurLevel5/OriginalBlur/BlurEditedMorph105.png,Stimuli/BlurMorphTrio/EditedMorph105.png,None,None,,,,,1,0,1,0,0,8,8,104,,,,,,,,,,,,,,,,,,,,,,,9,9,2,58,1.324798161,2.12012024,105,Experiment,,,,,,,,,94,94,11,11,,,,,,,,,,,,,,,1093.282325,1093.782355,1093.282325,1093.782355,85.03401361,1575403995,1575403996,0.933035135,1575403993,1575403995,,,S3,1,72,f,Expert Radiologist,2019_Dec_03_1355,AdjustEyeTrack,3.1.5,60.0628096
22,Stimuli/Morph22.JPG,Stimuli/Morph22.png,Stimuli/BlurLevel5/BlurEditedMorph22,Stimuli/BlurLevel5/BlurEditedMorph22.png,Stimuli/BlurLevel5/NumberedMorphs/BlurEditedMorph22.png,Stimuli/BlurLevel5/OriginalBlur/BlurEditedMorph22.png,Stimuli/BlurMorphTrio/EditedMorph22.png,010055right.gif,Stimuli/normal_thumbnails/22right.gif,,,,,1,0,1,0,0,9,9,21,,,,,,,,,,,,,,,,,,,,,,,22,10,2,105,-0.647047613,2.414814566,22,Experiment,,,,,,,,,71,23,-1,-1,,,,,,,,,,,,,,,1097.002693,1097.500276,1097.002693,1097.500276,98.63945578,1575403999,1575404004,4.700505733,1575403996,1575403999,,,S3,1,72,f,Expert Radiologist,2019_Dec_03_1355,AdjustEyeTrack,3.1.5,60.0628096
127,Stimuli/Morph127.JPG,Stimuli/Morph127.png,Stimuli/BlurLevel5/BlurEditedMorph127,Stimuli/BlurLevel5/BlurEditedMorph127.png,Stimuli/BlurLevel5/NumberedMorphs/BlurEditedMorph127.png,Stimuli/BlurLevel5/OriginalBlur/BlurEditedMorph127.png,Stimuli/BlurMorphTrio/EditedMorph127.png,None,None,,,,,1,0,1,0,0,10,10,126,,,,,,,,,,,,,,,,,,,,,,,4,11,2,29,2.186549268,1.212024051,127,Experiment,,,,,,,,,77,131,-4,-4,,,,,,,,,,,,,,,1104.756583,1105.250352,1104.756583,1105.250352,94.55782313,1575404007,1575404010,3.282169104,1575404004,1575404007,,,S3,1,72,f,Expert Radiologist,2019_Dec_03_1355,AdjustEyeTrack,3.1.5,60.0628096
104,Stimuli/Morph104.JPG,Stimuli/Morph104.png,Stimuli/BlurLevel5/BlurEditedMorph104,Stimuli/BlurLevel5/BlurEditedMorph104.png,Stimuli/BlurLevel5/NumberedMorphs/BlurEditedMorph104.png,Stimuli/BlurLevel5/OriginalBlur/BlurEditedMorph104.png,Stimuli/BlurMorphTrio/EditedMorph104.png,None,None,,,,,1,0,1,0,0,11,11,103,,,,,,,,,,,,,,,,,,,,,,,50,12,2,45,1.767766953,1.767766953,104,Experiment,,,,,,,,,64,97,7,7,,,,,,,,,,,,,,,1110.817449,1111.315822,1110.817449,1111.315822,90.47619048,1575404013,1575404015,2.349437952,1575404010,1575404013,,,S3,1,72,f,Expert Radiologist,2019_Dec_03_1355,AdjustEyeTrack,3.1.5,60.0628096
34,Stimuli/Morph34.JPG,Stimuli/Morph34.png,Stimuli/BlurLevel5/BlurEditedMorph34,Stimuli/BlurLevel5/BlurEditedMorph34.png,Stimuli/BlurLevel5/NumberedMorphs/BlurEditedMorph34.png,Stimuli/BlurLevel5/OriginalBlur/BlurEditedMorph34.png,Stimuli/BlurMorphTrio/EditedMorph34.png,010090right.gif,Stimuli/normal_thumbnails/34right.gif,,,,,1,0,1,0,0,12,12,33,,,,,,,,,,,,,,,,,,,,,,,16,13,2,323,1.996588775,-1.504537558,34,Experiment,,,,,,,,,59,10,24,24,,,,,,,,,,,,,,,1116.082517,1116.598551,1116.082517,1116.598551,67.34693878,1575404018,1575404038,19.79961705,1575404015,1575404018,,,S3,1,72,f,Expert Radiologist,2019_Dec_03_1355,AdjustEyeTrack,3.1.5,60.0628096
82,Stimuli/Morph82.JPG,Stimuli/Morph82.png,Stimuli/BlurLevel5/BlurEditedMorph82,Stimuli/BlurLevel5/BlurEditedMorph82.png,Stimuli/BlurLevel5/NumberedMorphs/BlurEditedMorph82.png,Stimuli/BlurLevel5/OriginalBlur/BlurEditedMorph82.png,Stimuli/BlurMorphTrio/EditedMorph82.png,020247right.gif,Stimuli/normal_thumbnails/82right.gif,,,,,1,0,1,0,0,13,13,81,,,,,,,,,,,,,,,,,,,,,,,72,14,2,168,-2.445369002,0.519779227,82,Experiment,,,,,,,,,141,3,79,-68,,,,,,,,,,,,,,,1138.317669,1138.81556,1138.317669,1138.81556,7.482993197,1575404040,1575404049,9.139590979,1575404038,1575404040,,,S3,1,72,f,Expert Radiologist,2019_Dec_03_1355,AdjustEyeTrack,3.1.5,60.0628096
78,Stimuli/Morph78.JPG,Stimuli/Morph78.png,Stimuli/BlurLevel5/BlurEditedMorph78,Stimuli/BlurLevel5/BlurEditedMorph78.png,Stimuli/BlurLevel5/NumberedMorphs/BlurEditedMorph78.png,Stimuli/BlurLevel5/OriginalBlur/BlurEditedMorph78.png,Stimuli/BlurMorphTrio/EditedMorph78.png,020238right.gif,Stimuli/normal_thumbnails/78right.gif,,,,,1,0,1,0,0,14,14,77,,,,,,,,,,,,,,,,,,,,,,,93,15,2,191,-2.454067959,-0.477022488,78,Experiment,,,,,,,,,66,77,1,1,,,,,,,,,,,,,,,1150.807661,1151.299391,1150.807661,1151.299391,98.63945578,1575404053,1575404060,7.832509041,1575404050,1575404053,,,S3,1,72,f,Expert Radiologist,2019_Dec_03_1355,AdjustEyeTrack,3.1.5,60.0628096
143,Stimuli/Morph143.JPG,Stimuli/Morph143.png,Stimuli/BlurLevel5/BlurEditedMorph143,Stimuli/BlurLevel5/BlurEditedMorph143.png,Stimuli/BlurLevel5/NumberedMorphs/BlurEditedMorph143.png,Stimuli/BlurLevel5/OriginalBlur/BlurEditedMorph143.png,Stimuli/BlurMorphTrio/EditedMorph143.png,None,None,,,,,1,0,1,0,0,15,15,142,,,,,,,,,,,,,,,,,,,,,,,93,16,2,173,-2.481365379,0.304673359,143,Experiment,,,,,,,,,93,145,-2,-2,,,,,,,,,,,,,,,1161.437981,1161.931434,1161.437981,1161.931434,97.27891156,1575404063,1575404067,3.800225973,1575404061,1575404063,,,S3,1,72,f,Expert Radiologist,2019_Dec_03_1355,AdjustEyeTrack,3.1.5,60.0628096
123,Stimuli/Morph123.JPG,Stimuli/Morph123.png,Stimuli/BlurLevel5/BlurEditedMorph123,Stimuli/BlurLevel5/BlurEditedMorph123.png,Stimuli/BlurLevel5/NumberedMorphs/BlurEditedMorph123.png,Stimuli/BlurLevel5/OriginalBlur/BlurEditedMorph123.png,Stimuli/BlurMorphTrio/EditedMorph123.png,None,None,,,,,1,0,1,0,0,16,16,122,,,,,,,,,,,,,,,,,,,,,,,65,17,2,101,-0.477022488,2.454067959,123,Experiment,,,,,,,,,37,135,-12,-12,,,,,,,,,,,,,,,1168.041118,1168.53119,1168.041118,1168.53119,83.67346939,1575404070,1575404077,6.866883993,1575404067,1575404070,,,S3,1,72,f,Expert Radiologist,2019_Dec_03_1355,AdjustEyeTrack,3.1.5,60.0628096
135,Stimuli/Morph135.JPG,Stimuli/Morph135.png,Stimuli/BlurLevel5/BlurEditedMorph135,Stimuli/BlurLevel5/BlurEditedMorph135.png,Stimuli/BlurLevel5/NumberedMorphs/BlurEditedMorph135.png,Stimuli/BlurLevel5/OriginalBlur/BlurEditedMorph135.png,Stimuli/BlurMorphTrio/EditedMorph135.png,None,None,,,,,1,0,1,0,0,17,17,134,,,,,,,,,,,,,,,,,,,,,,,65,18,2,47,1.7049959,1.828384254,135,Experiment,,,,,,,,,64,140,-5,-5,,,,,,,,,,,,,,,1177.249254,1177.747269,1177.249254,1177.747269,93.19727891,1575404079,1575404084,5.267200708,1575404077,1575404079,,,S3,1,72,f,Expert Radiologist,2019_Dec_03_1355,AdjustEyeTrack,3.1.5,60.0628096
3,Stimuli/Morph3.JPG,Stimuli/Morph3.png,Stimuli/BlurLevel5/BlurEditedMorph3,Stimuli/BlurLevel5/BlurEditedMorph3.png,Stimuli/BlurLevel5/NumberedMorphs/BlurEditedMorph3.png,Stimuli/BlurLevel5/OriginalBlur/BlurEditedMorph3.png,Stimuli/BlurMorphTrio/EditedMorph3.png,010009right.gif,Stimuli/normal_thumbnails/3right.gif,,,,,1,0,1,0,0,18,18,2,,,,,,,,,,,,,,,,,,,,,,,77,19,2,71,0.813920386,2.363796439,3,Experiment,,,,,,,,,23,142,-139,8,,,,,,,,,,,,,,,1184.940993,1185.432413,1184.940993,1185.432413,89.11564626,1575404087,1575404094,7.450812101,1575404085,1575404087,,,S3,1,72,f,Expert Radiologist,2019_Dec_03_1355,AdjustEyeTrack,3.1.5,60.0628096
134,Stimuli/Morph134.JPG,Stimuli/Morph134.png,Stimuli/BlurLevel5/BlurEditedMorph134,Stimuli/BlurLevel5/BlurEditedMorph134.png,Stimuli/BlurLevel5/NumberedMorphs/BlurEditedMorph134.png,Stimuli/BlurLevel5/OriginalBlur/BlurEditedMorph134.png,Stimuli/BlurMorphTrio/EditedMorph134.png,None,None,,,,,1,0,1,0,0,19,19,133,,,,,,,,,,,,,,,,,,,,,,,55,20,2,91,-0.043631016,2.499619238,134,Experiment,,,,,,,,,125,125,9,9,,,,,,,,,,,,,,,1194.782003,1195.281348,1194.782003,1195.281348,87.75510204,1575404097,1575404099,1.966556072,1575404094,1575404097,,,S3,1,72,f,Expert Radiologist,2019_Dec_03_1355,AdjustEyeTrack,3.1.5,60.0628096
13,Stimuli/Morph13.JPG,Stimuli/Morph13.png,Stimuli/BlurLevel5/BlurEditedMorph13,Stimuli/BlurLevel5/BlurEditedMorph13.png,Stimuli/BlurLevel5/NumberedMorphs/BlurEditedMorph13.png,Stimuli/BlurLevel5/OriginalBlur/BlurEditedMorph13.png,Stimuli/BlurMorphTrio/EditedMorph13.png,010027right.gif,Stimuli/normal_thumbnails/13right.gif,,,,,1,0,1,0,0,20,20,12,,,,,,,,,,,,,,,,,,,,,,,81,21,2,14,2.425739316,0.604804739,13,Experiment,,,,,,,,,53,10,3,3,,,,,,,,,,,,,,,1199.285719,1199.780307,1199.285719,1199.780307,95.91836735,1575404101,1575404112,10.88306832,1575404099,1575404101,,,S3,1,72,f,Expert Radiologist,2019_Dec_03_1355,AdjustEyeTrack,3.1.5,60.0628096
103,Stimuli/Morph103.JPG,Stimuli/Morph103.png,Stimuli/BlurLevel5/BlurEditedMorph103,Stimuli/BlurLevel5/BlurEditedMorph103.png,Stimuli/BlurLevel5/NumberedMorphs/BlurEditedMorph103.png,Stimuli/BlurLevel5/OriginalBlur/BlurEditedMorph103.png,Stimuli/BlurMorphTrio/EditedMorph103.png,None,None,,,,,1,0,1,0,0,21,21,102,,,,,,,,,,,,,,,,,,,,,,,50,22,2,232,-1.539153688,-1.970026884,103,Experiment,,,,,,,,,126,126,-23,-23,,,,,,,,,,,,,,,1212.981709,1213.482268,1212.981709,1213.482268,68.70748299,1575404115,1575404121,6.115190029,1575404112,1575404115,,,S3,1,72,f,Expert Radiologist,2019_Dec_03_1355,AdjustEyeTrack,3.1.5,60.0628096
94,Stimuli/Morph94.JPG,Stimuli/Morph94.png,Stimuli/BlurLevel5/BlurEditedMorph94,Stimuli/BlurLevel5/BlurEditedMorph94.png,Stimuli/BlurLevel5/NumberedMorphs/BlurEditedMorph94.png,Stimuli/BlurLevel5/OriginalBlur/BlurEditedMorph94.png,Stimuli/BlurMorphTrio/EditedMorph94.png,020286right.gif,Stimuli/normal_thumbnails/94right.gif,,,,,1,0,1,0,0,22,22,93,,,,,,,,,,,,,,,,,,,,,,,91,23,2,27,2.22751631,1.134976249,94,Experiment,,,,,,,,,71,110,-16,-16,,,,,,,,,,,,,,,1221.918448,1222.416132,1221.918448,1222.416132,78.23129252,1575404124,1575404127,2.817038774,1575404121,1575404124,,,S3,1,72,f,Expert Radiologist,2019_Dec_03_1355,AdjustEyeTrack,3.1.5,60.0628096
51,Stimuli/Morph51.JPG,Stimuli/Morph51.png,Stimuli/BlurLevel5/BlurEditedMorph51,Stimuli/BlurLevel5/BlurEditedMorph51.png,Stimuli/BlurLevel5/NumberedMorphs/BlurEditedMorph51.png,Stimuli/BlurLevel5/OriginalBlur/BlurEditedMorph51.png,Stimuli/BlurMorphTrio/EditedMorph51.png,010146right.gif,Stimuli/normal_thumbnails/51right.gif,,,,,1,0,1,0,0,23,23,50,,,,,,,,,,,,,,,,,,,,,,,33,24,2,300,1.25,-2.165063509,51,Experiment,,,,,,,,,145,53,-2,-2,,,,,,,,,,,,,,,1227.516766,1228.01329,1227.516766,1228.01329,97.27891156,1575404129,1575404135,5.849178076,1575404127,1575404129,,,S3,1,72,f,Expert Radiologist,2019_Dec_03_1355,AdjustEyeTrack,3.1.5,60.0628096
68,Stimuli/Morph68.JPG,Stimuli/Morph68.png,Stimuli/BlurLevel5/BlurEditedMorph68,Stimuli/BlurLevel5/BlurEditedMorph68.png,Stimuli/BlurLevel5/NumberedMorphs/BlurEditedMorph68.png,Stimuli/BlurLevel5/OriginalBlur/BlurEditedMorph68.png,Stimuli/BlurMorphTrio/EditedMorph68.png,020218right.gif,Stimuli/normal_thumbnails/68right.gif,,,,,1,0,1,0,0,24,24,67,,,,,,,,,,,,,,,,,,,,,,,76,25,2,60,1.25,2.165063509,68,Experiment,,,,,,,,,103,81,-13,-13,,,,,,,,,,,,,,,1235.548072,1236.047283,1235.548072,1236.047283,82.31292517,1575404137,1575404146,8.216446877,1575404135,1575404137,,,S3,1,72,f,Expert Radiologist,2019_Dec_03_1355,AdjustEyeTrack,3.1.5,60.0628096
92,Stimuli/Morph92.JPG,Stimuli/Morph92.png,Stimuli/BlurLevel5/BlurEditedMorph92,Stimuli/BlurLevel5/BlurEditedMorph92.png,Stimuli/BlurLevel5/NumberedMorphs/BlurEditedMorph92.png,Stimuli/BlurLevel5/OriginalBlur/BlurEditedMorph92.png,Stimuli/BlurMorphTrio/EditedMorph92.png,020277right.gif,Stimuli/normal_thumbnails/92right.gif,,,,,1,0,1,0,0,25,25,91,,,,,,,,,,,,,,,,,,,,,,,89,26,2,107,-0.730929262,2.39076189,92,Experiment,,,,,,,,,135,95,-3,-3,,,,,,,,,,,,,,,1246.199864,1246.697404,1246.199864,1246.697404,95.91836735,1575404148,1575404151,2.999692917,1575404146,1575404148,,,S3,1,72,f,Expert Radiologist,2019_Dec_03_1355,AdjustEyeTrack,3.1.5,60.0628096
119,Stimuli/Morph119.JPG,Stimuli/Morph119.png,Stimuli/BlurLevel5/BlurEditedMorph119,Stimuli/BlurLevel5/BlurEditedMorph119.png,Stimuli/BlurLevel5/NumberedMorphs/BlurEditedMorph119.png,Stimuli/BlurLevel5/OriginalBlur/BlurEditedMorph119.png,Stimuli/BlurMorphTrio/EditedMorph119.png,None,None,,,,,1,0,1,0,0,26,26,118,,,,,,,,,,,,,,,,,,,,,,,69,27,2,185,-2.490486745,-0.217889357,119,Experiment,,,,,,,,,101,103,16,16,,,,,,,,,,,,,,,1251.901143,1252.396667,1251.901143,1252.396667,78.23129252,1575404154,1575404160,6.166751862,1575404151,1575404154,,,S3,1,72,f,Expert Radiologist,2019_Dec_03_1355,AdjustEyeTrack,3.1.5,60.0628096
12,Stimuli/Morph12.JPG,Stimuli/Morph12.png,Stimuli/BlurLevel5/BlurEditedMorph12,Stimuli/BlurLevel5/BlurEditedMorph12.png,Stimuli/BlurLevel5/NumberedMorphs/BlurEditedMorph12.png,Stimuli/BlurLevel5/OriginalBlur/BlurEditedMorph12.png,Stimuli/BlurMorphTrio/EditedMorph12.png,010026right.gif,Stimuli/normal_thumbnails/12right.gif,,,,,1,0,1,0,0,27,27,11,,,,,,,,,,,,,,,,,,,,,,,87,28,2,288,0.772542486,-2.377641291,12,Experiment,,,,,,,,,62,144,-132,15,,,,,,,,,,,,,,,1260.881687,1261.379467,1260.881687,1261.379467,79.59183673,1575404163,1575404166,3.799942017,1575404160,1575404163,,,S3,1,72,f,Expert Radiologist,2019_Dec_03_1355,AdjustEyeTrack,3.1.5,60.0628096
9,Stimuli/Morph9.JPG,Stimuli/Morph9.png,Stimuli/BlurLevel5/BlurEditedMorph9,Stimuli/BlurLevel5/BlurEditedMorph9.png,Stimuli/BlurLevel5/NumberedMorphs/BlurEditedMorph9.png,Stimuli/BlurLevel5/OriginalBlur/BlurEditedMorph9.png,Stimuli/BlurMorphTrio/EditedMorph9.png,010015right.gif,Stimuli/normal_thumbnails/9right.gif,,,,,1,0,1,0,0,28,28,8,,,,,,,,,,,,,,,,,,,,,,,2,29,2,122,-1.324798161,2.12012024,9,Experiment,,,,,,,,,32,146,-137,10,,,,,,,,,,,,,,,1267.260289,1267.763281,1267.260289,1267.763281,86.39455782,1575404169,1575404173,4.283107996,1575404167,1575404169,,,S3,1,72,f,Expert Radiologist,2019_Dec_03_1355,AdjustEyeTrack,3.1.5,60.0628096
72,Stimuli/Morph72.JPG,Stimuli/Morph72.png,Stimuli/BlurLevel5/BlurEditedMorph72,Stimuli/BlurLevel5/BlurEditedMorph72.png,Stimuli/BlurLevel5/NumberedMorphs/BlurEditedMorph72.png,Stimuli/BlurLevel5/OriginalBlur/BlurEditedMorph72.png,Stimuli/BlurMorphTrio/EditedMorph72.png,020227right.gif,Stimuli/normal_thumbnails/72right.gif,,,,,1,0,1,0,0,29,29,71,,,,,,,,,,,,,,,,,,,,,,,57,30,2,63,1.134976249,2.22751631,72,Experiment,,,,,,,,,62,80,-8,-8,,,,,,,,,,,,,,,1274.305797,1274.797834,1274.305797,1274.797834,89.11564626,1575404176,1575404191,15.00098205,1575404174,1575404176,,,S3,1,72,f,Expert Radiologist,2019_Dec_03_1355,AdjustEyeTrack,3.1.5,60.0628096
48,Stimuli/Morph48.JPG,Stimuli/Morph48.png,Stimuli/BlurLevel5/BlurEditedMorph48,Stimuli/BlurLevel5/BlurEditedMorph48.png,Stimuli/BlurLevel5/NumberedMorphs/BlurEditedMorph48.png,Stimuli/BlurLevel5/OriginalBlur/BlurEditedMorph48.png,Stimuli/BlurMorphTrio/EditedMorph48.png,010131right.gif,Stimuli/normal_thumbnails/48right.gif,,,,,1,0,1,0,0,30,30,47,,,,,,,,,,,,,,,,,,,,,,,44,31,2,248,-0.936516484,-2.317959636,48,Experiment,,,,,,,,,92,1,47,47,,,,,,,,,,,,,,,1292.151636,1292.646335,1292.151636,1292.646335,36.05442177,1575404194,1575404207,13.03351307,1575404191,1575404194,,,S3,1,72,f,Expert Radiologist,2019_Dec_03_1355,AdjustEyeTrack,3.1.5,60.0628096
6,Stimuli/Morph6.JPG,Stimuli/Morph6.png,Stimuli/BlurLevel5/BlurEditedMorph6,Stimuli/BlurLevel5/BlurEditedMorph6.png,Stimuli/BlurLevel5/NumberedMorphs/BlurEditedMorph6.png,Stimuli/BlurLevel5/OriginalBlur/BlurEditedMorph6.png,Stimuli/BlurMorphTrio/EditedMorph6.png,010012right.gif,Stimuli/normal_thumbnails/6right.gif,,,,,1,0,1,0,0,31,31,5,,,,,,,,,,,,,,,,,,,,,,,72,32,2,18,2.377641291,0.772542486,6,Experiment,,,,,,,,,65,10,-4,-4,,,,,,,,,,,,,,,1307.58324,1308.080777,1307.58324,1308.080777,94.55782313,1575404209,1575404213,3.367717743,1575404207,1575404209,,,S3,1,72,f,Expert Radiologist,2019_Dec_03_1355,AdjustEyeTrack,3.1.5,60.0628096
46,Stimuli/Morph46.JPG,Stimuli/Morph46.png,Stimuli/BlurLevel5/BlurEditedMorph46,Stimuli/BlurLevel5/BlurEditedMorph46.png,Stimuli/BlurLevel5/NumberedMorphs/BlurEditedMorph46.png,Stimuli/BlurLevel5/OriginalBlur/BlurEditedMorph46.png,Stimuli/BlurMorphTrio/EditedMorph46.png,010128right.gif,Stimuli/normal_thumbnails/46right.gif,,,,,1,0,1,0,0,32,32,45,,,,,,,,,,,,,,,,,,,,,,,92,33,2,306,1.469463131,-2.022542486,46,Experiment,,,,,,,,,131,49,-3,-3,,,,,,,,,,,,,,,1314.082032,1314.579837,1314.082032,1314.579837,95.91836735,1575404216,1575404225,8.734511137,1575404213,1575404216,,,S3,1,72,f,Expert Radiologist,2019_Dec_03_1355,AdjustEyeTrack,3.1.5,60.0628096
140,Stimuli/Morph140.JPG,Stimuli/Morph140.png,Stimuli/BlurLevel5/BlurEditedMorph140,Stimuli/BlurLevel5/BlurEditedMorph140.png,Stimuli/BlurLevel5/NumberedMorphs/BlurEditedMorph140.png,Stimuli/BlurLevel5/OriginalBlur/BlurEditedMorph140.png,Stimuli/BlurMorphTrio/EditedMorph140.png,None,None,,,,,1,0,1,0,0,33,33,139,,,,,,,,,,,,,,,,,,,,,,,80,34,2,316,1.798349501,-1.736645926,140,Experiment,,,,,,,,,125,131,9,9,,,,,,,,,,,,,,,1325.481,1325.97935,1325.481,1325.97935,87.75510204,1575404227,1575404232,4.369289875,1575404225,1575404227,,,S3,1,72,f,Expert Radiologist,2019_Dec_03_1355,AdjustEyeTrack,3.1.5,60.0628096
122,Stimuli/Morph122.JPG,Stimuli/Morph122.png,Stimuli/BlurLevel5/BlurEditedMorph122,Stimuli/BlurLevel5/BlurEditedMorph122.png,Stimuli/BlurLevel5/NumberedMorphs/BlurEditedMorph122.png,Stimuli/BlurLevel5/OriginalBlur/BlurEditedMorph122.png,Stimuli/BlurMorphTrio/EditedMorph122.png,None,None,,,,,1,0,1,0,0,34,34,121,,,,,,,,,,,,,,,,,,,,,,,11,35,2,350,2.462019383,-0.434120444,122,Experiment,,,,,,,,,127,127,-5,-5,,,,,,,,,,,,,,,1333.098284,1333.596049,1333.098284,1333.596049,93.19727891,1575404235,1575404236,1.31645298,1575404232,1575404235,,,S3,1,72,f,Expert Radiologist,2019_Dec_03_1355,AdjustEyeTrack,3.1.5,60.0628096
55,Stimuli/Morph55.JPG,Stimuli/Morph55.png,Stimuli/BlurLevel5/BlurEditedMorph55,Stimuli/BlurLevel5/BlurEditedMorph55.png,Stimuli/BlurLevel5/NumberedMorphs/BlurEditedMorph55.png,Stimuli/BlurLevel5/OriginalBlur/BlurEditedMorph55.png,Stimuli/BlurMorphTrio/EditedMorph55.png,010151right.gif,Stimuli/normal_thumbnails/55right.gif,,,,,1,0,1,0,0,35,35,54,,,,,,,,,,,,,,,,,,,,,,,61,36,2,245,-1.056545654,-2.265769468,55,Experiment,,,,,,,,,107,56,-1,-1,,,,,,,,,,,,,,,1337.332221,1337.835035,1337.332221,1337.835035,98.63945578,1575404239,1575404243,3.549685955,1575404237,1575404239,,,S3,1,72,f,Expert Radiologist,2019_Dec_03_1355,AdjustEyeTrack,3.1.5,60.0628096
111,Stimuli/Morph111.JPG,Stimuli/Morph111.png,Stimuli/BlurLevel5/BlurEditedMorph111,Stimuli/BlurLevel5/BlurEditedMorph111.png,Stimuli/BlurLevel5/NumberedMorphs/BlurEditedMorph111.png,Stimuli/BlurLevel5/OriginalBlur/BlurEditedMorph111.png,Stimuli/BlurMorphTrio/EditedMorph111.png,None,None,,,,,1,0,1,0,0,36,36,110,,,,,,,,,,,,,,,,,,,,,,,48,37,2,332,2.207368982,-1.173678907,111,Experiment,,,,,,,,,70,98,13,13,,,,,,,,,,,,,,,1343.503561,1343.996052,1343.503561,1343.996052,82.31292517,1575404245,1575404256,10.71668625,1575404243,1575404245,,,S3,1,72,f,Expert Radiologist,2019_Dec_03_1355,AdjustEyeTrack,3.1.5,60.0628096
1,Stimuli/Morph1.JPG,Stimuli/Morph1.png,Stimuli/BlurLevel5/BlurEditedMorph1,Stimuli/BlurLevel5/BlurEditedMorph1.png,Stimuli/BlurLevel5/NumberedMorphs/BlurEditedMorph1.png,Stimuli/BlurLevel5/OriginalBlur/BlurEditedMorph1.png,Stimuli/BlurMorphTrio/EditedMorph1.png,010003right.gif,Stimuli/normal_thumbnails/1right.gif,,,,,1,0,1,0,0,37,37,0,,,,,,,,,,,,,,,,,,,,,,,70,38,2,170,-2.462019383,0.434120444,1,Experiment,,,,,,,,,11,1,0,0,,,,,,,,,,,,,,,1356.899291,1357.395451,1356.899291,1357.395451,100,1575404259,1575404261,2.484855175,1575404256,1575404259,,,S3,1,72,f,Expert Radiologist,2019_Dec_03_1355,AdjustEyeTrack,3.1.5,60.0628096
97,Stimuli/Morph97.JPG,Stimuli/Morph97.png,Stimuli/BlurLevel5/BlurEditedMorph97,Stimuli/BlurLevel5/BlurEditedMorph97.png,Stimuli/BlurLevel5/NumberedMorphs/BlurEditedMorph97.png,Stimuli/BlurLevel5/OriginalBlur/BlurEditedMorph97.png,Stimuli/BlurMorphTrio/EditedMorph97.png,020294right.gif,Stimuli/normal_thumbnails/97right.gif,,,,,1,0,1,0,0,38,38,96,,,,,,,,,,,,,,,,,,,,,,,59,39,2,349,2.454067959,-0.477022488,97,Experiment,,,,,,,,,20,89,8,8,,,,,,,,,,,,,,,1361.580723,1362.079181,1361.580723,1362.079181,89.11564626,1575404263,1575404270,6.400200129,1575404261,1575404263,,,S3,1,72,f,Expert Radiologist,2019_Dec_03_1355,AdjustEyeTrack,3.1.5,60.0628096
124,Stimuli/Morph124.JPG,Stimuli/Morph124.png,Stimuli/BlurLevel5/BlurEditedMorph124,Stimuli/BlurLevel5/BlurEditedMorph124.png,Stimuli/BlurLevel5/NumberedMorphs/BlurEditedMorph124.png,Stimuli/BlurLevel5/OriginalBlur/BlurEditedMorph124.png,Stimuli/BlurMorphTrio/EditedMorph124.png,None,None,,,,,1,0,1,0,0,39,39,123,,,,,,,,,,,,,,,,,,,,,,,41,40,2,342,2.377641291,-0.772542486,124,Experiment,,,,,,,,,17,122,2,2,,,,,,,,,,,,,,,1370.426345,1370.927787,1370.426345,1370.927787,97.27891156,1575404272,1575404276,3.449492216,1575404270,1575404272,,,S3,1,72,f,Expert Radiologist,2019_Dec_03_1355,AdjustEyeTrack,3.1.5,60.0628096
95,Stimuli/Morph95.JPG,Stimuli/Morph95.png,Stimuli/BlurLevel5/BlurEditedMorph95,Stimuli/BlurLevel5/BlurEditedMorph95.png,Stimuli/BlurLevel5/NumberedMorphs/BlurEditedMorph95.png,Stimuli/BlurLevel5/OriginalBlur/BlurEditedMorph95.png,Stimuli/BlurMorphTrio/EditedMorph95.png,020287right.gif,Stimuli/normal_thumbnails/95right.gif,,,,,1,0,1,0,0,40,40,94,,,,,,,,,,,,,,,,,,,,,,,42,41,2,278,0.347932752,-2.475670172,95,Experiment,,,,,,,,,57,105,-10,-10,,,,,,,,,,,,,,,1377.071538,1377.561191,1377.071538,1377.561191,86.39455782,1575404279,1575404284,4.96735692,1575404276,1575404279,,,S3,1,72,f,Expert Radiologist,2019_Dec_03_1355,AdjustEyeTrack,3.1.5,60.0628096
52,Stimuli/Morph52.JPG,Stimuli/Morph52.png,Stimuli/BlurLevel5/BlurEditedMorph52,Stimuli/BlurLevel5/BlurEditedMorph52.png,Stimuli/BlurLevel5/NumberedMorphs/BlurEditedMorph52.png,Stimuli/BlurLevel5/OriginalBlur/BlurEditedMorph52.png,Stimuli/BlurMorphTrio/EditedMorph52.png,010148right.gif,Stimuli/normal_thumbnails/52right.gif,,,,,1,0,1,0,0,41,41,51,,,,,,,,,,,,,,,,,,,,,,,21,42,2,230,-1.606969024,-1.915111108,52,Experiment,,,,,,,,,82,49,3,3,,,,,,,,,,,,,,,1384.628431,1385.129994,1384.628431,1385.129994,95.91836735,1575404286,1575404295,8.115622997,1575404284,1575404286,,,S3,1,72,f,Expert Radiologist,2019_Dec_03_1355,AdjustEyeTrack,3.1.5,60.0628096
88,Stimuli/Morph88.JPG,Stimuli/Morph88.png,Stimuli/BlurLevel5/BlurEditedMorph88,Stimuli/BlurLevel5/BlurEditedMorph88.png,Stimuli/BlurLevel5/NumberedMorphs/BlurEditedMorph88.png,Stimuli/BlurLevel5/OriginalBlur/BlurEditedMorph88.png,Stimuli/BlurMorphTrio/EditedMorph88.png,020271right.gif,Stimuli/normal_thumbnails/88right.gif,,,,,1,0,1,0,0,42,42,87,,,,,,,,,,,,,,,,,,,,,,,34,43,2,335,2.265769468,-1.056545654,88,Experiment,,,,,,,,,44,107,-19,-19,,,,,,,,,,,,,,,1395.767296,1396.261055,1395.767296,1396.261055,74.14965986,1575404298,1575404300,2.400413036,1575404295,1575404298,,,S3,1,72,f,Expert Radiologist,2019_Dec_03_1355,AdjustEyeTrack,3.1.5,60.0628096
35,Stimuli/Morph35.JPG,Stimuli/Morph35.png,Stimuli/BlurLevel5/BlurEditedMorph35,Stimuli/BlurLevel5/BlurEditedMorph35.png,Stimuli/BlurLevel5/NumberedMorphs/BlurEditedMorph35.png,Stimuli/BlurLevel5/OriginalBlur/BlurEditedMorph35.png,Stimuli/BlurMorphTrio/EditedMorph35.png,010094right.gif,Stimuli/normal_thumbnails/35right.gif,,,,,1,0,1,0,0,43,43,34,,,,,,,,,,,,,,,,,,,,,,,80,44,2,328,2.12012024,-1.324798161,35,Experiment,,,,,,,,,82,31,4,4,,,,,,,,,,,,,,,1400.530056,1401.028142,1400.530056,1401.028142,94.55782313,1575404302,1575404313,10.86746097,1575404300,1575404302,,,S3,1,72,f,Expert Radiologist,2019_Dec_03_1355,AdjustEyeTrack,3.1.5,60.0628096
33,Stimuli/Morph33.JPG,Stimuli/Morph33.png,Stimuli/BlurLevel5/BlurEditedMorph33,Stimuli/BlurLevel5/BlurEditedMorph33.png,Stimuli/BlurLevel5/NumberedMorphs/BlurEditedMorph33.png,Stimuli/BlurLevel5/OriginalBlur/BlurEditedMorph33.png,Stimuli/BlurMorphTrio/EditedMorph33.png,010089right.gif,Stimuli/normal_thumbnails/33right.gif,,,,,1,0,1,0,0,44,44,32,,,,,,,,,,,,,,,,,,,,,,,75,45,2,256,-0.604804739,-2.425739316,33,Experiment,,,,,,,,,42,42,-9,-9,,,,,,,,,,,,,,,1413.979609,1414.479591,1413.979609,1414.479591,87.75510204,1575404316,1575404325,9.333492994,1575404313,1575404316,,,S3,1,72,f,Expert Radiologist,2019_Dec_03_1355,AdjustEyeTrack,3.1.5,60.0628096
86,Stimuli/Morph86.JPG,Stimuli/Morph86.png,Stimuli/BlurLevel5/BlurEditedMorph86,Stimuli/BlurLevel5/BlurEditedMorph86.png,Stimuli/BlurLevel5/NumberedMorphs/BlurEditedMorph86.png,Stimuli/BlurLevel5/OriginalBlur/BlurEditedMorph86.png,Stimuli/BlurMorphTrio/EditedMorph86.png,020266right.gif,Stimuli/normal_thumbnails/86right.gif,,,,,1,0,1,0,0,45,45,85,,,,,,,,,,,,,,,,,,,,,,,40,46,2,85,0.217889357,2.490486745,86,Experiment,,,,,,,,,139,11,75,-72,,,,,,,,,,,,,,,1425.781949,1426.279418,1425.781949,1426.279418,2.040816327,1575404328,1575404341,13.51704717,1575404325,1575404328,,,S3,1,72,f,Expert Radiologist,2019_Dec_03_1355,AdjustEyeTrack,3.1.5,60.0628096
144,Stimuli/Morph144.JPG,Stimuli/Morph144.png,Stimuli/BlurLevel5/BlurEditedMorph144,Stimuli/BlurLevel5/BlurEditedMorph144.png,Stimuli/BlurLevel5/NumberedMorphs/BlurEditedMorph144.png,Stimuli/BlurLevel5/OriginalBlur/BlurEditedMorph144.png,Stimuli/BlurMorphTrio/EditedMorph144.png,None,None,,,,,1,0,1,0,0,46,46,143,,,,,,,,,,,,,,,,,,,,,,,53,47,2,173,-2.481365379,0.304673359,144,Experiment,,,,,,,,,54,2,142,-5,,,,,,,,,,,,,,,1442.094676,1442.610935,1442.094676,1442.610935,93.19727891,1575404344,1575404348,4.18343997,1575404341,1575404344,,,S3,1,72,f,Expert Radiologist,2019_Dec_03_1355,AdjustEyeTrack,3.1.5,60.0628096
146,Stimuli/Morph146.JPG,Stimuli/Morph146.png,Stimuli/BlurLevel5/BlurEditedMorph146,Stimuli/BlurLevel5/BlurEditedMorph146.png,Stimuli/BlurLevel5/NumberedMorphs/BlurEditedMorph146.png,Stimuli/BlurLevel5/OriginalBlur/BlurEditedMorph146.png,Stimuli/BlurMorphTrio/EditedMorph146.png,None,None,,,,,1,0,1,0,0,47,47,145,,,,,,,,,,,,,,,,,,,,,,,78,48,2,275,0.217889357,-2.490486745,146,Experiment,,,,,,,,,11,5,141,-6,,,,,,,,,,,,,,,1448.833894,1449.328881,1448.833894,1449.328881,91.83673469,1575404351,1575404353,2.766623974,1575404348,1575404351,,,S3,1,72,f,Expert Radiologist,2019_Dec_03_1355,AdjustEyeTrack,3.1.5,60.0628096
99,Stimuli/Morph99.JPG,Stimuli/Morph99.png,Stimuli/BlurLevel5/BlurEditedMorph99,Stimuli/BlurLevel5/BlurEditedMorph99.png,Stimuli/BlurLevel5/NumberedMorphs/BlurEditedMorph99.png,Stimuli/BlurLevel5/OriginalBlur/BlurEditedMorph99.png,Stimuli/BlurMorphTrio/EditedMorph99.png,020299right.gif,Stimuli/normal_thumbnails/99right.gif,,,,,1,0,1,0,0,48,48,98,,,,,,,,,,,,,,,,,,,,,,,79,49,2,274,0.174391184,-2.493910126,99,Experiment,,,,,,,,,40,102,-3,-3,,,,,,,,,,,,,,,1454.297746,1454.794826,1454.297746,1454.794826,95.91836735,1575404356,1575404358,2.182577133,1575404354,1575404356,,,S3,1,72,f,Expert Radiologist,2019_Dec_03_1355,AdjustEyeTrack,3.1.5,60.0628096
121,Stimuli/Morph121.JPG,Stimuli/Morph121.png,Stimuli/BlurLevel5/BlurEditedMorph121,Stimuli/BlurLevel5/BlurEditedMorph121.png,Stimuli/BlurLevel5/NumberedMorphs/BlurEditedMorph121.png,Stimuli/BlurLevel5/OriginalBlur/BlurEditedMorph121.png,Stimuli/BlurMorphTrio/EditedMorph121.png,None,None,,,,,1,0,1,0,0,49,49,120,,,,,,,,,,,,,,,,,,,,,,,24,50,2,12,2.445369002,0.519779227,121,Experiment,,,,,,,,,4,116,5,5,,,,,,,,,,,,,,,1459.201509,1459.69562,1459.201509,1459.69562,93.19727891,1575404361,1575404365,3.666159868,1575404359,1575404361,,,S3,1,72,f,Expert Radiologist,2019_Dec_03_1355,AdjustEyeTrack,3.1.5,60.0628096
141,Stimuli/Morph141.JPG,Stimuli/Morph141.png,Stimuli/BlurLevel5/BlurEditedMorph141,Stimuli/BlurLevel5/BlurEditedMorph141.png,Stimuli/BlurLevel5/NumberedMorphs/BlurEditedMorph141.png,Stimuli/BlurLevel5/OriginalBlur/BlurEditedMorph141.png,Stimuli/BlurMorphTrio/EditedMorph141.png,None,None,,,,,1,0,1,0,0,50,50,140,,,,,,,,,,,,,,,,,,,,,,,97,51,2,139,-1.886773951,1.640147572,141,Experiment,,,,,,,,,103,3,138,-9,,,,,,,,,,,,,,,1465.697599,1466.194258,1465.697599,1466.194258,87.75510204,1575404368,1575404396,28.28302908,1575404365,1575404367,,,S3,1,72,f,Expert Radiologist,2019_Dec_03_1355,AdjustEyeTrack,3.1.5,60.0628096
5,Stimuli/Morph5.JPG,Stimuli/Morph5.png,Stimuli/BlurLevel5/BlurEditedMorph5,Stimuli/BlurLevel5/BlurEditedMorph5.png,Stimuli/BlurLevel5/NumberedMorphs/BlurEditedMorph5.png,Stimuli/BlurLevel5/OriginalBlur/BlurEditedMorph5.png,Stimuli/BlurMorphTrio/EditedMorph5.png,010011right.gif,Stimuli/normal_thumbnails/5right.gif,,,,,1,0,1,0,0,51,51,4,,,,,,,,,,,,,,,,,,,,,,,43,52,2,288,0.772542486,-2.377641291,5,Experiment,,,,,,,,,32,147,-142,5,,,,,,,,,,,,,,,1496.386332,1496.895299,1496.386332,1496.895299,93.19727891,1575404398,1575404400,2.200588942,1575404396,1575404398,,,S3,1,72,f,Expert Radiologist,2019_Dec_03_1355,AdjustEyeTrack,3.1.5,60.0628096
53,Stimuli/Morph53.JPG,Stimuli/Morph53.png,Stimuli/BlurLevel5/BlurEditedMorph53,Stimuli/BlurLevel5/BlurEditedMorph53.png,Stimuli/BlurLevel5/NumberedMorphs/BlurEditedMorph53.png,Stimuli/BlurLevel5/OriginalBlur/BlurEditedMorph53.png,Stimuli/BlurMorphTrio/EditedMorph53.png,010149right.gif,Stimuli/normal_thumbnails/53right.gif,,,,,1,0,1,0,0,52,52,52,,,,,,,,,,,,,,,,,,,,,,,27,53,2,146,-2.072593931,1.397982259,53,Experiment,,,,,,,,,101,45,8,8,,,,,,,,,,,,,,,1501.282961,1501.777099,1501.282961,1501.777099,89.11564626,1575404403,1575404436,33.33333611,1575404401,1575404403,,,S3,1,72,f,Expert Radiologist,2019_Dec_03_1355,AdjustEyeTrack,3.1.5,60.0628096
87,Stimuli/Morph87.JPG,Stimuli/Morph87.png,Stimuli/BlurLevel5/BlurEditedMorph87,Stimuli/BlurLevel5/BlurEditedMorph87.png,Stimuli/BlurLevel5/NumberedMorphs/BlurEditedMorph87.png,Stimuli/BlurLevel5/OriginalBlur/BlurEditedMorph87.png,Stimuli/BlurMorphTrio/EditedMorph87.png,020270right.gif,Stimuli/normal_thumbnails/87right.gif,,,,,1,0,1,0,0,53,53,86,,,,,,,,,,,,,,,,,,,,,,,65,54,2,341,2.363796439,-0.813920386,87,Experiment,,,,,,,,,14,123,-36,-36,,,,,,,,,,,,,,,1537.460994,1537.960145,1537.460994,1537.960145,51.02040816,1575404439,1575404444,4.833797932,1575404437,1575404439,,,S3,1,72,f,Expert Radiologist,2019_Dec_03_1355,AdjustEyeTrack,3.1.5,60.0628096
79,Stimuli/Morph79.JPG,Stimuli/Morph79.png,Stimuli/BlurLevel5/BlurEditedMorph79,Stimuli/BlurLevel5/BlurEditedMorph79.png,Stimuli/BlurLevel5/NumberedMorphs/BlurEditedMorph79.png,Stimuli/BlurLevel5/OriginalBlur/BlurEditedMorph79.png,Stimuli/BlurMorphTrio/EditedMorph79.png,020239right.gif,Stimuli/normal_thumbnails/79right.gif,,,,,1,0,1,0,0,54,54,78,,,,,,,,,,,,,,,,,,,,,,,59,55,2,48,1.672826516,1.857862064,79,Experiment,,,,,,,,,63,63,16,16,,,,,,,,,,,,,,,1544.561301,1545.060088,1544.561301,1545.060088,78.23129252,1575404446,1575404448,1.317180157,1575404444,1575404446,,,S3,1,72,f,Expert Radiologist,2019_Dec_03_1355,AdjustEyeTrack,3.1.5,60.0628096
116,Stimuli/Morph116.JPG,Stimuli/Morph116.png,Stimuli/BlurLevel5/BlurEditedMorph116,Stimuli/BlurLevel5/BlurEditedMorph116.png,Stimuli/BlurLevel5/NumberedMorphs/BlurEditedMorph116.png,Stimuli/BlurLevel5/OriginalBlur/BlurEditedMorph116.png,Stimuli/BlurMorphTrio/EditedMorph116.png,None,None,,,,,1,0,1,0,0,55,55,115,,,,,,,,,,,,,,,,,,,,,,,63,56,2,221,-1.886773951,-1.640147572,116,Experiment,,,,,,,,,51,114,2,2,,,,,,,,,,,,,,,1548.276304,1548.776335,1548.276304,1548.776335,97.27891156,1575404450,1575404454,3.667588234,1575404448,1575404450,,,S3,1,72,f,Expert Radiologist,2019_Dec_03_1355,AdjustEyeTrack,3.1.5,60.0628096
8,Stimuli/Morph8.JPG,Stimuli/Morph8.png,Stimuli/BlurLevel5/BlurEditedMorph8,Stimuli/BlurLevel5/BlurEditedMorph8.png,Stimuli/BlurLevel5/NumberedMorphs/BlurEditedMorph8.png,Stimuli/BlurLevel5/OriginalBlur/BlurEditedMorph8.png,Stimuli/BlurMorphTrio/EditedMorph8.png,010014right.gif,Stimuli/normal_thumbnails/8right.gif,,,,,1,0,1,0,0,56,56,7,,,,,,,,,,,,,,,,,,,,,,,83,57,2,142,-1.970026884,1.539153688,8,Experiment,,,,,,,,,132,132,-124,23,,,,,,,,,,,,,,,1554.897236,1555.396556,1554.897236,1555.396556,68.70748299,1575404457,1575404467,10.78451395,1575404454,1575404457,,,S3,1,72,f,Expert Radiologist,2019_Dec_03_1355,AdjustEyeTrack,3.1.5,60.0628096
137,Stimuli/Morph137.JPG,Stimuli/Morph137.png,Stimuli/BlurLevel5/BlurEditedMorph137,Stimuli/BlurLevel5/BlurEditedMorph137.png,Stimuli/BlurLevel5/NumberedMorphs/BlurEditedMorph137.png,Stimuli/BlurLevel5/OriginalBlur/BlurEditedMorph137.png,Stimuli/BlurMorphTrio/EditedMorph137.png,None,None,,,,,1,0,1,0,0,57,57,136,,,,,,,,,,,,,,,,,,,,,,,8,58,2,234,-1.469463131,-2.022542486,137,Experiment,,,,,,,,,94,140,-3,-3,,,,,,,,,,,,,,,1568.572286,1569.07716,1568.572286,1569.07716,95.91836735,1575404470,1575404484,13.1333518,1575404468,1575404470,,,S3,1,72,f,Expert Radiologist,2019_Dec_03_1355,AdjustEyeTrack,3.1.5,60.0628096
