stimulusID,stimulus_JPG,stimulusPath,stimulusPath2,stimulusPath3,stimulusPath4,stimulusPath5,stimulusPath6,xRayOriginal,xRayPath,Training.thisRepN,Training.thisTrialN,Training.thisN,Training.thisIndex,Blocks.thisRepN,Blocks.thisTrialN,Blocks.thisN,Blocks.thisIndex,Trials.thisRepN,Trials.thisTrialN,Trials.thisN,Trials.thisIndex,text_2.started,text_2.stopped,image.started,image.stopped,image_2.started,image_2.stopped,image_3.started,image_3.stopped,image_4.started,image_4.stopped,image_6.started,image_6.stopped,image_7.started,image_7.stopped,image_8.started,image_8.stopped,image_9.started,image_9.stopped,image_10.started,image_10.stopped,image_12.started,image_12.stopped,xrayID,trialNumber,blockNumber,stimLocationDeg,stimXCoord,stimYCoord,stimulusID,blockType,trainingXray.started,trainingXray.stopped,trainingTumors.started,trainingTumors.stopped,trainingScore%,startTrainingRespTime,endTrainingRespTime,trainingRT,morphTrack,morphID,errorRaw,errorCorrected,startTrainingStimTime,endTrainingStimTime,key_resp_3.keys,key_resp_3.rt,text.started,text.stopped,text_3.started,text_3.stopped,text_4.started,text_4.stopped,key_resp_5.keys,key_resp_5.rt,key_resp_5.started,key_resp_5.stopped,xray1.started,xray1.stopped,tumors.started,tumors.stopped,trialCorrect%,startRespTime,endRespTime,RT,startStimTime,endStimTime,key_resp.keys,key_resp.rt,participant,session,age,gender,status,date,expName,psychopyVersion,frameRate
58,Stimuli/Morph58.JPG,Stimuli/Morph58.png,Stimuli/BlurLevel5/BlurEditedMorph58,Stimuli/BlurLevel5/BlurEditedMorph58.png,Stimuli/BlurLevel5/NumberedMorphs/BlurEditedMorph58.png,Stimuli/BlurLevel5/OriginalBlur/BlurEditedMorph58.png,Stimuli/BlurMorphTrio/EditedMorph58.png,010159right.gif,Stimuli/normal_thumbnails/58right.gif,0,0,0,57,,,,,,,,,59.85352132,None,59.85352132,None,59.85352132,None,59.85352132,None,59.85352132,None,59.85352132,None,59.85352132,None,59.85352132,None,59.85352132,None,59.85352132,None,59.85352132,None,18,-100,-100,244,-1.095927867,-2.246985116,58,training,91.67395422,92.16879379,91.67395422,92.16879379,98.63945578,1575410225,1575410228,3.033499002,16,57,1,1,1575410223,1575410225,space,3.247716541,,,,,,,,,,,,,,,,,,,,,,,s5,1,33,m,resident,2019_Dec_03_1556,AdjustEyeTrack,3.1.5,60.77074048
136,Stimuli/Morph136.JPG,Stimuli/Morph136.png,Stimuli/BlurLevel5/BlurEditedMorph136,Stimuli/BlurLevel5/BlurEditedMorph136.png,Stimuli/BlurLevel5/NumberedMorphs/BlurEditedMorph136.png,Stimuli/BlurLevel5/OriginalBlur/BlurEditedMorph136.png,Stimuli/BlurMorphTrio/EditedMorph136.png,None,None,0,1,1,135,,,,,,,,,,,,,,,,,,,,,,,,,,,,,,,70,-100,-100,193,-2.435925162,-0.562377636,136,training,100.1195376,100.6192481,100.1195376,100.6192481,89.11564626,1575410233,1575410235,1.74980998,127,128,8,8,1575410231,1575410233,space,2.517949974,,,,,,,,,,,,,,,,,,,,,,,s5,1,33,m,resident,2019_Dec_03_1556,AdjustEyeTrack,3.1.5,60.77074048
56,Stimuli/Morph56.JPG,Stimuli/Morph56.png,Stimuli/BlurLevel5/BlurEditedMorph56,Stimuli/BlurLevel5/BlurEditedMorph56.png,Stimuli/BlurLevel5/NumberedMorphs/BlurEditedMorph56.png,Stimuli/BlurLevel5/OriginalBlur/BlurEditedMorph56.png,Stimuli/BlurMorphTrio/EditedMorph56.png,010157right.gif,Stimuli/normal_thumbnails/56right.gif,0,2,2,55,,,,,,,,,,,,,,,,,,,,,,,,,,,,,,,1,-100,-100,95,-0.217889357,2.490486745,56,training,106.1571003,106.652067,106.1571003,106.652067,90.47619048,1575410239,1575410241,2.284386158,7,49,7,7,1575410238,1575410239,space,8.761206987,,,,,,,,,,,,,,,,,,,,,,,s5,1,33,m,resident,2019_Dec_03_1556,AdjustEyeTrack,3.1.5,60.77074048
61,Stimuli/Morph61.JPG,Stimuli/Morph61.png,Stimuli/BlurLevel5/BlurEditedMorph61,Stimuli/BlurLevel5/BlurEditedMorph61.png,Stimuli/BlurLevel5/NumberedMorphs/BlurEditedMorph61.png,Stimuli/BlurLevel5/OriginalBlur/BlurEditedMorph61.png,Stimuli/BlurMorphTrio/EditedMorph61.png,020201right.gif,Stimuli/normal_thumbnails/61right.gif,0,3,3,60,,,,,,,,,,,,,,,,,,,,,,,,,,,,,,,53,-100,-100,101,-0.477022488,2.454067959,61,training,119.5959412,120.1016689,119.5959412,120.1016689,83.67346939,1575410253,1575410262,9.133489847,140,49,12,12,1575410250,1575410253,space,1.16354778,,,,,,,,,,,,,,,,,,,,,,,s5,1,33,m,resident,2019_Dec_03_1556,AdjustEyeTrack,3.1.5,60.77074048
32,Stimuli/Morph32.JPG,Stimuli/Morph32.png,Stimuli/BlurLevel5/BlurEditedMorph32,Stimuli/BlurLevel5/BlurEditedMorph32.png,Stimuli/BlurLevel5/NumberedMorphs/BlurEditedMorph32.png,Stimuli/BlurLevel5/OriginalBlur/BlurEditedMorph32.png,Stimuli/BlurMorphTrio/EditedMorph32.png,010080right.gif,Stimuli/normal_thumbnails/32right.gif,0,4,4,31,,,,,,,,,,,,,,,,,,,,,,,,,,,,,,,78,-100,-100,274,0.174391184,-2.493910126,32,training,132.2695869,132.7686659,132.2695869,132.7686659,90.47619048,1575410265,1575410274,8.78600502,64,25,7,7,1575410263,1575410265,space,3.492870323,,,,,,,,,,,,,,,,,,,,,,,s5,1,33,m,resident,2019_Dec_03_1556,AdjustEyeTrack,3.1.5,60.77074048
92,Stimuli/Morph92.JPG,Stimuli/Morph92.png,Stimuli/BlurLevel5/BlurEditedMorph92,Stimuli/BlurLevel5/BlurEditedMorph92.png,Stimuli/BlurLevel5/NumberedMorphs/BlurEditedMorph92.png,Stimuli/BlurLevel5/OriginalBlur/BlurEditedMorph92.png,Stimuli/BlurMorphTrio/EditedMorph92.png,020277right.gif,Stimuli/normal_thumbnails/92right.gif,0,5,5,91,,,,,,,,,,,,,,,,,,,,,,,,,,,,,,,72,-100,-100,274,0.174391184,-2.493910126,92,training,147.0237952,147.5183369,147.0237952,147.5183369,74.14965986,1575410280,1575410285,5.366023064,118,111,-19,-19,1575410278,1575410280,space,1.646858697,,,,,,,,,,,,,,,,,,,,,,,s5,1,33,m,resident,2019_Dec_03_1556,AdjustEyeTrack,3.1.5,60.77074048
42,Stimuli/Morph42.JPG,Stimuli/Morph42.png,Stimuli/BlurLevel5/BlurEditedMorph42,Stimuli/BlurLevel5/BlurEditedMorph42.png,Stimuli/BlurLevel5/NumberedMorphs/BlurEditedMorph42.png,Stimuli/BlurLevel5/OriginalBlur/BlurEditedMorph42.png,Stimuli/BlurMorphTrio/EditedMorph42.png,010121right.gif,Stimuli/normal_thumbnails/42right.gif,0,6,6,41,,,,,,,,,,,,,,,,,,,,,,,,,,,,,,,48,-100,-100,204,-2.283863644,-1.016841608,42,training,156.5183524,157.019069,156.5183524,157.019069,0.680272109,1575410290,1575410292,2.749922991,109,116,-74,73,1575410287,1575410290,space,4.566597366,,,,,,,,,,,,,,,,,,,,,,,s5,1,33,m,resident,2019_Dec_03_1556,AdjustEyeTrack,3.1.5,60.77074048
94,Stimuli/Morph94.JPG,Stimuli/Morph94.png,Stimuli/BlurLevel5/BlurEditedMorph94,Stimuli/BlurLevel5/BlurEditedMorph94.png,Stimuli/BlurLevel5/NumberedMorphs/BlurEditedMorph94.png,Stimuli/BlurLevel5/OriginalBlur/BlurEditedMorph94.png,Stimuli/BlurMorphTrio/EditedMorph94.png,020286right.gif,Stimuli/normal_thumbnails/94right.gif,0,7,7,93,,,,,,,,,,,,,,,,,,,,,,,,,,,,,,,49,-100,-100,65,1.056545654,2.265769468,94,training,166.503452,167.0024115,166.503452,167.0024115,46.93877551,1575410300,1575410306,6.150938749,118,133,-39,-39,1575410297,1575410300,space,2.292299611,,,,,,,,,,,,,,,,,,,,,,,s5,1,33,m,resident,2019_Dec_03_1556,AdjustEyeTrack,3.1.5,60.77074048
17,Stimuli/Morph17.JPG,Stimuli/Morph17.png,Stimuli/BlurLevel5/BlurEditedMorph17,Stimuli/BlurLevel5/BlurEditedMorph17.png,Stimuli/BlurLevel5/NumberedMorphs/BlurEditedMorph17.png,Stimuli/BlurLevel5/OriginalBlur/BlurEditedMorph17.png,Stimuli/BlurMorphTrio/EditedMorph17.png,010036right.gif,Stimuli/normal_thumbnails/17right.gif,0,8,8,16,,,,,,,,,,,,,,,,,,,,,,,,,,,,,,,64,-100,-100,70,0.855050358,2.349231552,17,training,177.5861728,178.0845363,177.5861728,178.0845363,52.38095238,1575410311,1575410315,4.589758873,66,129,-112,35,1575410308,1575410311,space,1.656247027,,,,,,,,,,,,,,,,,,,,,,,s5,1,33,m,resident,2019_Dec_03_1556,AdjustEyeTrack,3.1.5,60.77074048
46,Stimuli/Morph46.JPG,Stimuli/Morph46.png,Stimuli/BlurLevel5/BlurEditedMorph46,Stimuli/BlurLevel5/BlurEditedMorph46.png,Stimuli/BlurLevel5/NumberedMorphs/BlurEditedMorph46.png,Stimuli/BlurLevel5/OriginalBlur/BlurEditedMorph46.png,Stimuli/BlurMorphTrio/EditedMorph46.png,010128right.gif,Stimuli/normal_thumbnails/46right.gif,0,9,9,45,,,,,,,,,,,,,,,,,,,,,,,,,,,,,,,26,-100,-100,27,2.22751631,1.134976249,46,training,186.1176823,186.6176673,186.1176823,186.6176673,97.27891156,1575410319,1575410328,9.150221825,96,48,-2,-2,1575410317,1575410319,space,2.184226759,,,,,,,,,,,,,,,,,,,,,,,s5,1,33,m,resident,2019_Dec_03_1556,AdjustEyeTrack,3.1.5,60.77074048
,,,,,,,,,,,,,,,,,,,,,,,,,,,,,,,,,,,,,,,,,,,,,-100,-100,,,,,training,,,,,,,,,,,,,,,,,199.1186668,None,199.1186668,None,199.1186668,None,space,54.78374881,199.1186668,None,,,,,,,,,,,,,s5,1,33,m,resident,2019_Dec_03_1556,AdjustEyeTrack,3.1.5,60.77074048
53,Stimuli/Morph53.JPG,Stimuli/Morph53.png,Stimuli/BlurLevel5/BlurEditedMorph53,Stimuli/BlurLevel5/BlurEditedMorph53.png,Stimuli/BlurLevel5/NumberedMorphs/BlurEditedMorph53.png,Stimuli/BlurLevel5/OriginalBlur/BlurEditedMorph53.png,Stimuli/BlurMorphTrio/EditedMorph53.png,010149right.gif,Stimuli/normal_thumbnails/53right.gif,,,,,0,0,0,0,0,0,0,52,,,,,,,,,,,,,,,,,,,,,,,42,1,1,345,2.414814566,-0.647047613,53,Experiment,,,,,,,,,74,40,13,13,,,,,,,,,,,,,,,255.6094205,256.1341033,255.6094205,256.1341033,82.31292517,1575410389,1575410395,5.866738796,1575410386,1575410389,,,s5,1,33,m,resident,2019_Dec_03_1556,AdjustEyeTrack,3.1.5,60.77074048
57,Stimuli/Morph57.JPG,Stimuli/Morph57.png,Stimuli/BlurLevel5/BlurEditedMorph57,Stimuli/BlurLevel5/BlurEditedMorph57.png,Stimuli/BlurLevel5/NumberedMorphs/BlurEditedMorph57.png,Stimuli/BlurLevel5/OriginalBlur/BlurEditedMorph57.png,Stimuli/BlurMorphTrio/EditedMorph57.png,010158right.gif,Stimuli/normal_thumbnails/57right.gif,,,,,0,0,0,0,0,1,1,56,,,,,,,,,,,,,,,,,,,,,,,22,2,1,333,2.22751631,-1.134976249,57,Experiment,,,,,,,,,126,53,4,4,,,,,,,,,,,,,,,264.2867606,264.7838729,264.2867606,264.7838729,94.55782313,1575410397,1575410400,2.637666225,1575410395,1575410397,,,s5,1,33,m,resident,2019_Dec_03_1556,AdjustEyeTrack,3.1.5,60.77074048
107,Stimuli/Morph107.JPG,Stimuli/Morph107.png,Stimuli/BlurLevel5/BlurEditedMorph107,Stimuli/BlurLevel5/BlurEditedMorph107.png,Stimuli/BlurLevel5/NumberedMorphs/BlurEditedMorph107.png,Stimuli/BlurLevel5/OriginalBlur/BlurEditedMorph107.png,Stimuli/BlurMorphTrio/EditedMorph107.png,None,None,,,,,0,0,0,0,0,2,2,106,,,,,,,,,,,,,,,,,,,,,,,88,3,1,240,-1.25,-2.165063509,107,Experiment,,,,,,,,,30,112,-5,-5,,,,,,,,,,,,,,,269.6185089,270.13372,269.6185089,270.13372,93.19727891,1575410403,1575410409,5.849331856,1575410400,1575410403,,,s5,1,33,m,resident,2019_Dec_03_1556,AdjustEyeTrack,3.1.5,60.77074048
26,Stimuli/Morph26.JPG,Stimuli/Morph26.png,Stimuli/BlurLevel5/BlurEditedMorph26,Stimuli/BlurLevel5/BlurEditedMorph26.png,Stimuli/BlurLevel5/NumberedMorphs/BlurEditedMorph26.png,Stimuli/BlurLevel5/OriginalBlur/BlurEditedMorph26.png,Stimuli/BlurMorphTrio/EditedMorph26.png,010070right.gif,Stimuli/normal_thumbnails/26right.gif,,,,,0,0,0,0,0,3,3,25,,,,,,,,,,,,,,,,,,,,,,,55,4,1,48,1.672826516,1.857862064,26,Experiment,,,,,,,,,51,25,1,1,,,,,,,,,,,,,,,278.3340018,278.8343736,278.3340018,278.8343736,98.63945578,1575410411,1575410430,18.82290792,1575410409,1575410411,,,s5,1,33,m,resident,2019_Dec_03_1556,AdjustEyeTrack,3.1.5,60.77074048
28,Stimuli/Morph28.JPG,Stimuli/Morph28.png,Stimuli/BlurLevel5/BlurEditedMorph28,Stimuli/BlurLevel5/BlurEditedMorph28.png,Stimuli/BlurLevel5/NumberedMorphs/BlurEditedMorph28.png,Stimuli/BlurLevel5/OriginalBlur/BlurEditedMorph28.png,Stimuli/BlurMorphTrio/EditedMorph28.png,010073right.gif,Stimuli/normal_thumbnails/28right.gif,,,,,0,0,0,0,0,4,4,27,,,,,,,,,,,,,,,,,,,,,,,68,5,1,170,-2.462019383,0.434120444,28,Experiment,,,,,,,,,112,16,12,12,,,,,,,,,,,,,,,300.0181887,300.5159634,300.0181887,300.5159634,83.67346939,1575410433,1575410438,4.83414197,1575410430,1575410433,,,s5,1,33,m,resident,2019_Dec_03_1556,AdjustEyeTrack,3.1.5,60.77074048
35,Stimuli/Morph35.JPG,Stimuli/Morph35.png,Stimuli/BlurLevel5/BlurEditedMorph35,Stimuli/BlurLevel5/BlurEditedMorph35.png,Stimuli/BlurLevel5/NumberedMorphs/BlurEditedMorph35.png,Stimuli/BlurLevel5/OriginalBlur/BlurEditedMorph35.png,Stimuli/BlurMorphTrio/EditedMorph35.png,010094right.gif,Stimuli/normal_thumbnails/35right.gif,,,,,0,0,0,0,0,5,5,34,,,,,,,,,,,,,,,,,,,,,,,51,6,1,39,1.942864904,1.573300978,35,Experiment,,,,,,,,,116,9,26,26,,,,,,,,,,,,,,,307.7513678,308.2503941,307.7513678,308.2503941,64.62585034,1575410441,1575410446,4.750658274,1575410438,1575410441,,,s5,1,33,m,resident,2019_Dec_03_1556,AdjustEyeTrack,3.1.5,60.77074048
27,Stimuli/Morph27.JPG,Stimuli/Morph27.png,Stimuli/BlurLevel5/BlurEditedMorph27,Stimuli/BlurLevel5/BlurEditedMorph27.png,Stimuli/BlurLevel5/NumberedMorphs/BlurEditedMorph27.png,Stimuli/BlurLevel5/OriginalBlur/BlurEditedMorph27.png,Stimuli/BlurMorphTrio/EditedMorph27.png,010072right.gif,Stimuli/normal_thumbnails/27right.gif,,,,,0,0,0,0,0,6,6,26,,,,,,,,,,,,,,,,,,,,,,,96,7,1,332,2.207368982,-1.173678907,27,Experiment,,,,,,,,,62,13,14,14,,,,,,,,,,,,,,,316.2847761,316.785262,316.2847761,316.785262,80.95238095,1575410449,1575410459,9.916341782,1575410446,1575410449,,,s5,1,33,m,resident,2019_Dec_03_1556,AdjustEyeTrack,3.1.5,60.77074048
117,Stimuli/Morph117.JPG,Stimuli/Morph117.png,Stimuli/BlurLevel5/BlurEditedMorph117,Stimuli/BlurLevel5/BlurEditedMorph117.png,Stimuli/BlurLevel5/NumberedMorphs/BlurEditedMorph117.png,Stimuli/BlurLevel5/OriginalBlur/BlurEditedMorph117.png,Stimuli/BlurMorphTrio/EditedMorph117.png,None,None,,,,,0,0,0,0,0,7,7,116,,,,,,,,,,,,,,,,,,,,,,,37,8,1,66,1.016841608,2.283863644,117,Experiment,,,,,,,,,96,105,12,12,,,,,,,,,,,,,,,328.9361265,329.4500993,328.9361265,329.4500993,83.67346939,1575410462,1575410471,9.450719118,1575410460,1575410462,,,s5,1,33,m,resident,2019_Dec_03_1556,AdjustEyeTrack,3.1.5,60.77074048
100,Stimuli/Morph100.JPG,Stimuli/Morph100.png,Stimuli/BlurLevel5/BlurEditedMorph100,Stimuli/BlurLevel5/BlurEditedMorph100.png,Stimuli/BlurLevel5/NumberedMorphs/BlurEditedMorph100.png,Stimuli/BlurLevel5/OriginalBlur/BlurEditedMorph100.png,Stimuli/BlurMorphTrio/EditedMorph100.png,020297right.gif,Stimuli/normal_thumbnails/100right.gif,,,,,0,0,0,0,0,8,8,99,,,,,,,,,,,,,,,,,,,,,,,5,9,1,182,-2.498477068,-0.087248742,100,Experiment,,,,,,,,,51,119,-19,-19,,,,,,,,,,,,,,,341.1496903,341.6494531,341.1496903,341.6494531,74.14965986,1575410474,1575410481,6.483762026,1575410472,1575410474,,,s5,1,33,m,resident,2019_Dec_03_1556,AdjustEyeTrack,3.1.5,60.77074048
43,Stimuli/Morph43.JPG,Stimuli/Morph43.png,Stimuli/BlurLevel5/BlurEditedMorph43,Stimuli/BlurLevel5/BlurEditedMorph43.png,Stimuli/BlurLevel5/NumberedMorphs/BlurEditedMorph43.png,Stimuli/BlurLevel5/OriginalBlur/BlurEditedMorph43.png,Stimuli/BlurMorphTrio/EditedMorph43.png,010124right.gif,Stimuli/normal_thumbnails/43right.gif,,,,,0,0,0,0,0,9,9,42,,,,,,,,,,,,,,,,,,,,,,,84,10,1,151,-2.186549268,1.212024051,43,Experiment,,,,,,,,,115,57,-14,-14,,,,,,,,,,,,,,,350.1852261,350.6819969,350.1852261,350.6819969,80.95238095,1575410483,1575410488,4.582938194,1575410481,1575410483,,,s5,1,33,m,resident,2019_Dec_03_1556,AdjustEyeTrack,3.1.5,60.77074048
31,Stimuli/Morph31.JPG,Stimuli/Morph31.png,Stimuli/BlurLevel5/BlurEditedMorph31,Stimuli/BlurLevel5/BlurEditedMorph31.png,Stimuli/BlurLevel5/NumberedMorphs/BlurEditedMorph31.png,Stimuli/BlurLevel5/OriginalBlur/BlurEditedMorph31.png,Stimuli/BlurMorphTrio/EditedMorph31.png,010079right.gif,Stimuli/normal_thumbnails/31right.gif,,,,,0,0,0,0,0,10,10,30,,,,,,,,,,,,,,,,,,,,,,,99,11,1,172,-2.475670172,0.347932752,31,Experiment,,,,,,,,,28,39,-8,-8,,,,,,,,,,,,,,,357.0561332,357.548894,357.0561332,357.548894,89.11564626,1575410490,1575410493,3.383560896,1575410488,1575410490,,,s5,1,33,m,resident,2019_Dec_03_1556,AdjustEyeTrack,3.1.5,60.77074048
122,Stimuli/Morph122.JPG,Stimuli/Morph122.png,Stimuli/BlurLevel5/BlurEditedMorph122,Stimuli/BlurLevel5/BlurEditedMorph122.png,Stimuli/BlurLevel5/NumberedMorphs/BlurEditedMorph122.png,Stimuli/BlurLevel5/OriginalBlur/BlurEditedMorph122.png,Stimuli/BlurMorphTrio/EditedMorph122.png,None,None,,,,,0,0,0,0,0,11,11,121,,,,,,,,,,,,,,,,,,,,,,,73,12,1,275,0.217889357,-2.490486745,122,Experiment,,,,,,,,,87,11,111,-36,,,,,,,,,,,,,,,363.0164079,363.5155493,363.0164079,363.5155493,51.02040816,1575410496,1575410508,12.10050297,1575410494,1575410496,,,s5,1,33,m,resident,2019_Dec_03_1556,AdjustEyeTrack,3.1.5,60.77074048
55,Stimuli/Morph55.JPG,Stimuli/Morph55.png,Stimuli/BlurLevel5/BlurEditedMorph55,Stimuli/BlurLevel5/BlurEditedMorph55.png,Stimuli/BlurLevel5/NumberedMorphs/BlurEditedMorph55.png,Stimuli/BlurLevel5/OriginalBlur/BlurEditedMorph55.png,Stimuli/BlurMorphTrio/EditedMorph55.png,010151right.gif,Stimuli/normal_thumbnails/55right.gif,,,,,0,0,0,0,0,12,12,54,,,,,,,,,,,,,,,,,,,,,,,15,13,1,143,-1.996588775,1.504537558,55,Experiment,,,,,,,,,117,48,7,7,,,,,,,,,,,,,,,377.935445,378.5487885,377.935445,378.5487885,90.47619048,1575410511,1575410515,3.733036041,1575410508,1575410511,,,s5,1,33,m,resident,2019_Dec_03_1556,AdjustEyeTrack,3.1.5,60.77074048
54,Stimuli/Morph54.JPG,Stimuli/Morph54.png,Stimuli/BlurLevel5/BlurEditedMorph54,Stimuli/BlurLevel5/BlurEditedMorph54.png,Stimuli/BlurLevel5/NumberedMorphs/BlurEditedMorph54.png,Stimuli/BlurLevel5/OriginalBlur/BlurEditedMorph54.png,Stimuli/BlurMorphTrio/EditedMorph54.png,010150right.gif,Stimuli/normal_thumbnails/54right.gif,,,,,0,0,0,0,0,13,13,53,,,,,,,,,,,,,,,,,,,,,,,18,14,1,154,-2.246985116,1.095927867,54,Experiment,,,,,,,,,29,48,6,6,,,,,,,,,,,,,,,384.0332637,384.532415,384.0332637,384.532415,91.83673469,1575410517,1575410519,2.419606209,1575410515,1575410517,,,s5,1,33,m,resident,2019_Dec_03_1556,AdjustEyeTrack,3.1.5,60.77074048
140,Stimuli/Morph140.JPG,Stimuli/Morph140.png,Stimuli/BlurLevel5/BlurEditedMorph140,Stimuli/BlurLevel5/BlurEditedMorph140.png,Stimuli/BlurLevel5/NumberedMorphs/BlurEditedMorph140.png,Stimuli/BlurLevel5/OriginalBlur/BlurEditedMorph140.png,Stimuli/BlurMorphTrio/EditedMorph140.png,None,None,,,,,0,0,0,0,0,14,14,139,,,,,,,,,,,,,,,,,,,,,,,62,15,1,214,-2.072593931,-1.397982259,140,Experiment,,,,,,,,,50,141,-1,-1,,,,,,,,,,,,,,,389.106162,389.5978355,389.106162,389.5978355,98.63945578,1575410522,1575410532,9.832690001,1575410520,1575410522,,,s5,1,33,m,resident,2019_Dec_03_1556,AdjustEyeTrack,3.1.5,60.77074048
103,Stimuli/Morph103.JPG,Stimuli/Morph103.png,Stimuli/BlurLevel5/BlurEditedMorph103,Stimuli/BlurLevel5/BlurEditedMorph103.png,Stimuli/BlurLevel5/NumberedMorphs/BlurEditedMorph103.png,Stimuli/BlurLevel5/OriginalBlur/BlurEditedMorph103.png,Stimuli/BlurMorphTrio/EditedMorph103.png,None,None,,,,,0,0,0,0,0,15,15,102,,,,,,,,,,,,,,,,,,,,,,,64,16,1,308,1.539153688,-1.970026884,103,Experiment,,,,,,,,,40,124,-21,-21,,,,,,,,,,,,,,,401.6673534,402.168022,401.6673534,402.168022,71.42857143,1575410535,1575410540,5.117773056,1575410532,1575410535,,,s5,1,33,m,resident,2019_Dec_03_1556,AdjustEyeTrack,3.1.5,60.77074048
118,Stimuli/Morph118.JPG,Stimuli/Morph118.png,Stimuli/BlurLevel5/BlurEditedMorph118,Stimuli/BlurLevel5/BlurEditedMorph118.png,Stimuli/BlurLevel5/NumberedMorphs/BlurEditedMorph118.png,Stimuli/BlurLevel5/OriginalBlur/BlurEditedMorph118.png,Stimuli/BlurMorphTrio/EditedMorph118.png,None,None,,,,,0,0,0,0,0,16,16,117,,,,,,,,,,,,,,,,,,,,,,,92,17,1,157,-2.301262134,0.976827821,118,Experiment,,,,,,,,,85,111,7,7,,,,,,,,,,,,,,,410.2347396,410.7317737,410.2347396,410.7317737,90.47619048,1575410543,1575410545,1.86073494,1575410540,1575410543,,,s5,1,33,m,resident,2019_Dec_03_1556,AdjustEyeTrack,3.1.5,60.77074048
61,Stimuli/Morph61.JPG,Stimuli/Morph61.png,Stimuli/BlurLevel5/BlurEditedMorph61,Stimuli/BlurLevel5/BlurEditedMorph61.png,Stimuli/BlurLevel5/NumberedMorphs/BlurEditedMorph61.png,Stimuli/BlurLevel5/OriginalBlur/BlurEditedMorph61.png,Stimuli/BlurMorphTrio/EditedMorph61.png,020201right.gif,Stimuli/normal_thumbnails/61right.gif,,,,,0,0,0,0,0,17,17,60,,,,,,,,,,,,,,,,,,,,,,,7,18,1,328,2.12012024,-1.324798161,61,Experiment,,,,,,,,,105,51,10,10,,,,,,,,,,,,,,,414.6148619,415.1153118,414.6148619,415.1153118,86.39455782,1575410548,1575410553,5.750550985,1575410545,1575410548,,,s5,1,33,m,resident,2019_Dec_03_1556,AdjustEyeTrack,3.1.5,60.77074048
113,Stimuli/Morph113.JPG,Stimuli/Morph113.png,Stimuli/BlurLevel5/BlurEditedMorph113,Stimuli/BlurLevel5/BlurEditedMorph113.png,Stimuli/BlurLevel5/NumberedMorphs/BlurEditedMorph113.png,Stimuli/BlurLevel5/OriginalBlur/BlurEditedMorph113.png,Stimuli/BlurMorphTrio/EditedMorph113.png,None,None,,,,,0,0,0,0,0,18,18,112,,,,,,,,,,,,,,,,,,,,,,,3,19,1,40,1.915111108,1.606969024,113,Experiment,,,,,,,,,21,107,6,6,,,,,,,,,,,,,,,423.373051,423.8979998,423.373051,423.8979998,91.83673469,1575410556,1575410564,7.599771261,1575410554,1575410556,,,s5,1,33,m,resident,2019_Dec_03_1556,AdjustEyeTrack,3.1.5,60.77074048
97,Stimuli/Morph97.JPG,Stimuli/Morph97.png,Stimuli/BlurLevel5/BlurEditedMorph97,Stimuli/BlurLevel5/BlurEditedMorph97.png,Stimuli/BlurLevel5/NumberedMorphs/BlurEditedMorph97.png,Stimuli/BlurLevel5/OriginalBlur/BlurEditedMorph97.png,Stimuli/BlurMorphTrio/EditedMorph97.png,020294right.gif,Stimuli/normal_thumbnails/97right.gif,,,,,0,0,0,0,0,19,19,96,,,,,,,,,,,,,,,,,,,,,,,2,20,1,233,-1.504537558,-1.996588775,97,Experiment,,,,,,,,,6,111,-14,-14,,,,,,,,,,,,,,,433.565486,434.0650783,433.565486,434.0650783,80.95238095,1575410567,1575410571,4.299606085,1575410564,1575410567,,,s5,1,33,m,resident,2019_Dec_03_1556,AdjustEyeTrack,3.1.5,60.77074048
44,Stimuli/Morph44.JPG,Stimuli/Morph44.png,Stimuli/BlurLevel5/BlurEditedMorph44,Stimuli/BlurLevel5/BlurEditedMorph44.png,Stimuli/BlurLevel5/NumberedMorphs/BlurEditedMorph44.png,Stimuli/BlurLevel5/OriginalBlur/BlurEditedMorph44.png,Stimuli/BlurMorphTrio/EditedMorph44.png,010126right.gif,Stimuli/normal_thumbnails/44right.gif,,,,,0,0,0,0,0,20,20,43,,,,,,,,,,,,,,,,,,,,,,,65,21,1,92,-0.087248742,2.498477068,44,Experiment,,,,,,,,,84,53,-9,-9,,,,,,,,,,,,,,,440.4001968,440.8983504,440.4001968,440.8983504,87.75510204,1575410573,1575410578,4.999835014,1575410571,1575410573,,,s5,1,33,m,resident,2019_Dec_03_1556,AdjustEyeTrack,3.1.5,60.77074048
1,Stimuli/Morph1.JPG,Stimuli/Morph1.png,Stimuli/BlurLevel5/BlurEditedMorph1,Stimuli/BlurLevel5/BlurEditedMorph1.png,Stimuli/BlurLevel5/NumberedMorphs/BlurEditedMorph1.png,Stimuli/BlurLevel5/OriginalBlur/BlurEditedMorph1.png,Stimuli/BlurMorphTrio/EditedMorph1.png,010003right.gif,Stimuli/normal_thumbnails/1right.gif,,,,,0,0,0,0,0,21,21,0,,,,,,,,,,,,,,,,,,,,,,,64,22,1,92,-0.087248742,2.498477068,1,Experiment,,,,,,,,,82,147,-146,1,,,,,,,,,,,,,,,447.914922,448.4140833,447.914922,448.4140833,98.63945578,1575410581,1575410589,7.971482754,1575410579,1575410581,,,s5,1,33,m,resident,2019_Dec_03_1556,AdjustEyeTrack,3.1.5,60.77074048
94,Stimuli/Morph94.JPG,Stimuli/Morph94.png,Stimuli/BlurLevel5/BlurEditedMorph94,Stimuli/BlurLevel5/BlurEditedMorph94.png,Stimuli/BlurLevel5/NumberedMorphs/BlurEditedMorph94.png,Stimuli/BlurLevel5/OriginalBlur/BlurEditedMorph94.png,Stimuli/BlurMorphTrio/EditedMorph94.png,020286right.gif,Stimuli/normal_thumbnails/94right.gif,,,,,0,0,0,0,0,22,22,93,,,,,,,,,,,,,,,,,,,,,,,30,23,1,151,-2.186549268,1.212024051,94,Experiment,,,,,,,,,93,97,-3,-3,,,,,,,,,,,,,,,458.4836472,458.9806674,458.4836472,458.9806674,95.91836735,1575410592,1575410593,1.866382837,1575410589,1575410592,,,s5,1,33,m,resident,2019_Dec_03_1556,AdjustEyeTrack,3.1.5,60.77074048
127,Stimuli/Morph127.JPG,Stimuli/Morph127.png,Stimuli/BlurLevel5/BlurEditedMorph127,Stimuli/BlurLevel5/BlurEditedMorph127.png,Stimuli/BlurLevel5/NumberedMorphs/BlurEditedMorph127.png,Stimuli/BlurLevel5/OriginalBlur/BlurEditedMorph127.png,Stimuli/BlurMorphTrio/EditedMorph127.png,None,None,,,,,0,0,0,0,0,23,23,126,,,,,,,,,,,,,,,,,,,,,,,32,24,1,138,-1.857862064,1.672826516,127,Experiment,,,,,,,,,61,120,7,7,,,,,,,,,,,,,,,463.3528031,463.8482094,463.3528031,463.8482094,90.47619048,1575410596,1575410599,3.035644293,1575410594,1575410596,,,s5,1,33,m,resident,2019_Dec_03_1556,AdjustEyeTrack,3.1.5,60.77074048
21,Stimuli/Morph21.JPG,Stimuli/Morph21.png,Stimuli/BlurLevel5/BlurEditedMorph21,Stimuli/BlurLevel5/BlurEditedMorph21.png,Stimuli/BlurLevel5/NumberedMorphs/BlurEditedMorph21.png,Stimuli/BlurLevel5/OriginalBlur/BlurEditedMorph21.png,Stimuli/BlurMorphTrio/EditedMorph21.png,010049right.gif,Stimuli/normal_thumbnails/21right.gif,,,,,0,0,0,0,0,24,24,20,,,,,,,,,,,,,,,,,,,,,,,92,25,1,21,2.333951066,0.895919874,21,Experiment,,,,,,,,,122,19,2,2,,,,,,,,,,,,,,,469.9335061,470.4487608,469.9335061,470.4487608,97.27891156,1575410603,1575410608,5.250253201,1575410600,1575410603,,,s5,1,33,m,resident,2019_Dec_03_1556,AdjustEyeTrack,3.1.5,60.77074048
139,Stimuli/Morph139.JPG,Stimuli/Morph139.png,Stimuli/BlurLevel5/BlurEditedMorph139,Stimuli/BlurLevel5/BlurEditedMorph139.png,Stimuli/BlurLevel5/NumberedMorphs/BlurEditedMorph139.png,Stimuli/BlurLevel5/OriginalBlur/BlurEditedMorph139.png,Stimuli/BlurMorphTrio/EditedMorph139.png,None,None,,,,,0,0,0,0,0,25,25,138,,,,,,,,,,,,,,,,,,,,,,,52,26,1,175,-2.490486745,0.217889357,139,Experiment,,,,,,,,,39,12,127,-20,,,,,,,,,,,,,,,478.0538833,478.5468832,478.0538833,478.5468832,72.78911565,1575410611,1575410616,5.153934002,1575410609,1575410611,,,s5,1,33,m,resident,2019_Dec_03_1556,AdjustEyeTrack,3.1.5,60.77074048
129,Stimuli/Morph129.JPG,Stimuli/Morph129.png,Stimuli/BlurLevel5/BlurEditedMorph129,Stimuli/BlurLevel5/BlurEditedMorph129.png,Stimuli/BlurLevel5/NumberedMorphs/BlurEditedMorph129.png,Stimuli/BlurLevel5/OriginalBlur/BlurEditedMorph129.png,Stimuli/BlurMorphTrio/EditedMorph129.png,None,None,,,,,0,0,0,0,0,26,26,128,,,,,,,,,,,,,,,,,,,,,,,17,27,1,135,-1.767766953,1.767766953,129,Experiment,,,,,,,,,136,138,-9,-9,,,,,,,,,,,,,,,486.3845498,486.914148,486.3845498,486.914148,87.75510204,1575410619,1575410623,3.485439062,1575410617,1575410619,,,s5,1,33,m,resident,2019_Dec_03_1556,AdjustEyeTrack,3.1.5,60.77074048
99,Stimuli/Morph99.JPG,Stimuli/Morph99.png,Stimuli/BlurLevel5/BlurEditedMorph99,Stimuli/BlurLevel5/BlurEditedMorph99.png,Stimuli/BlurLevel5/NumberedMorphs/BlurEditedMorph99.png,Stimuli/BlurLevel5/OriginalBlur/BlurEditedMorph99.png,Stimuli/BlurMorphTrio/EditedMorph99.png,020299right.gif,Stimuli/normal_thumbnails/99right.gif,,,,,0,0,0,0,0,27,27,98,,,,,,,,,,,,,,,,,,,,,,,40,28,1,285,0.647047613,-2.414814566,99,Experiment,,,,,,,,,125,125,-26,-26,,,,,,,,,,,,,,,492.4665504,492.9639104,492.4665504,492.9639104,64.62585034,1575410626,1575410632,6.084423304,1575410623,1575410625,,,s5,1,33,m,resident,2019_Dec_03_1556,AdjustEyeTrack,3.1.5,60.77074048
87,Stimuli/Morph87.JPG,Stimuli/Morph87.png,Stimuli/BlurLevel5/BlurEditedMorph87,Stimuli/BlurLevel5/BlurEditedMorph87.png,Stimuli/BlurLevel5/NumberedMorphs/BlurEditedMorph87.png,Stimuli/BlurLevel5/OriginalBlur/BlurEditedMorph87.png,Stimuli/BlurMorphTrio/EditedMorph87.png,020270right.gif,Stimuli/normal_thumbnails/87right.gif,,,,,0,0,0,0,0,28,28,86,,,,,,,,,,,,,,,,,,,,,,,99,29,1,266,-0.174391184,-2.493910126,87,Experiment,,,,,,,,,5,117,-30,-30,,,,,,,,,,,,,,,500.8329788,501.3309019,500.8329788,501.3309019,59.18367347,1575410634,1575410639,5.133384228,1575410632,1575410634,,,s5,1,33,m,resident,2019_Dec_03_1556,AdjustEyeTrack,3.1.5,60.77074048
63,Stimuli/Morph63.JPG,Stimuli/Morph63.png,Stimuli/BlurLevel5/BlurEditedMorph63,Stimuli/BlurLevel5/BlurEditedMorph63.png,Stimuli/BlurLevel5/NumberedMorphs/BlurEditedMorph63.png,Stimuli/BlurLevel5/OriginalBlur/BlurEditedMorph63.png,Stimuli/BlurMorphTrio/EditedMorph63.png,020206right.gif,Stimuli/normal_thumbnails/63right.gif,,,,,0,0,0,0,0,29,29,62,,,,,,,,,,,,,,,,,,,,,,,7,30,1,228,-1.672826516,-1.857862064,63,Experiment,,,,,,,,,110,48,15,15,,,,,,,,,,,,,,,508.5536343,509.0469516,508.5536343,509.0469516,79.59183673,1575410642,1575410647,5.116650105,1575410639,1575410642,,,s5,1,33,m,resident,2019_Dec_03_1556,AdjustEyeTrack,3.1.5,60.77074048
36,Stimuli/Morph36.JPG,Stimuli/Morph36.png,Stimuli/BlurLevel5/BlurEditedMorph36,Stimuli/BlurLevel5/BlurEditedMorph36.png,Stimuli/BlurLevel5/NumberedMorphs/BlurEditedMorph36.png,Stimuli/BlurLevel5/OriginalBlur/BlurEditedMorph36.png,Stimuli/BlurMorphTrio/EditedMorph36.png,010095right.gif,Stimuli/normal_thumbnails/36right.gif,,,,,0,0,0,0,0,30,30,35,,,,,,,,,,,,,,,,,,,,,,,66,31,1,198,-2.377641291,-0.772542486,36,Experiment,,,,,,,,,71,58,-22,-22,,,,,,,,,,,,,,,516.3213408,516.8148217,516.3213408,516.8148217,70.06802721,1575410649,1575410662,12.90015006,1575410647,1575410649,,,s5,1,33,m,resident,2019_Dec_03_1556,AdjustEyeTrack,3.1.5,60.77074048
93,Stimuli/Morph93.JPG,Stimuli/Morph93.png,Stimuli/BlurLevel5/BlurEditedMorph93,Stimuli/BlurLevel5/BlurEditedMorph93.png,Stimuli/BlurLevel5/NumberedMorphs/BlurEditedMorph93.png,Stimuli/BlurLevel5/OriginalBlur/BlurEditedMorph93.png,Stimuli/BlurMorphTrio/EditedMorph93.png,020280right.gif,Stimuli/normal_thumbnails/93right.gif,,,,,0,0,0,0,0,31,31,92,,,,,,,,,,,,,,,,,,,,,,,93,32,1,119,-1.212024051,2.186549268,93,Experiment,,,,,,,,,108,113,-20,-20,,,,,,,,,,,,,,,533.0326451,533.5303482,533.0326451,533.5303482,72.78911565,1575410666,1575410672,5.900573015,1575410663,1575410666,,,s5,1,33,m,resident,2019_Dec_03_1556,AdjustEyeTrack,3.1.5,60.77074048
110,Stimuli/Morph110.JPG,Stimuli/Morph110.png,Stimuli/BlurLevel5/BlurEditedMorph110,Stimuli/BlurLevel5/BlurEditedMorph110.png,Stimuli/BlurLevel5/NumberedMorphs/BlurEditedMorph110.png,Stimuli/BlurLevel5/OriginalBlur/BlurEditedMorph110.png,Stimuli/BlurMorphTrio/EditedMorph110.png,None,None,,,,,0,0,0,0,0,32,32,109,,,,,,,,,,,,,,,,,,,,,,,34,33,1,160,-2.349231552,0.855050358,110,Experiment,,,,,,,,,145,102,8,8,,,,,,,,,,,,,,,541.9720744,542.4816804,541.9720744,542.4816804,89.11564626,1575410675,1575410680,4.548314333,1575410672,1575410675,,,s5,1,33,m,resident,2019_Dec_03_1556,AdjustEyeTrack,3.1.5,60.77074048
11,Stimuli/Morph11.JPG,Stimuli/Morph11.png,Stimuli/BlurLevel5/BlurEditedMorph11,Stimuli/BlurLevel5/BlurEditedMorph11.png,Stimuli/BlurLevel5/NumberedMorphs/BlurEditedMorph11.png,Stimuli/BlurLevel5/OriginalBlur/BlurEditedMorph11.png,Stimuli/BlurMorphTrio/EditedMorph11.png,010024right.gif,Stimuli/normal_thumbnails/11right.gif,,,,,0,0,0,0,0,33,33,10,,,,,,,,,,,,,,,,,,,,,,,2,34,1,250,-0.855050358,-2.349231552,11,Experiment,,,,,,,,,133,128,-117,30,,,,,,,,,,,,,,,548.9670594,549.4636517,548.9670594,549.4636517,59.18367347,1575410682,1575410688,5.535511971,1575410680,1575410682,,,s5,1,33,m,resident,2019_Dec_03_1556,AdjustEyeTrack,3.1.5,60.77074048
104,Stimuli/Morph104.JPG,Stimuli/Morph104.png,Stimuli/BlurLevel5/BlurEditedMorph104,Stimuli/BlurLevel5/BlurEditedMorph104.png,Stimuli/BlurLevel5/NumberedMorphs/BlurEditedMorph104.png,Stimuli/BlurLevel5/OriginalBlur/BlurEditedMorph104.png,Stimuli/BlurMorphTrio/EditedMorph104.png,None,None,,,,,0,0,0,0,0,34,34,103,,,,,,,,,,,,,,,,,,,,,,,54,35,1,6,2.486304738,0.261321158,104,Experiment,,,,,,,,,27,106,-2,-2,,,,,,,,,,,,,,,557.263341,557.7629517,557.263341,557.7629517,97.27891156,1575410690,1575410696,5.933648109,1575410688,1575410690,,,s5,1,33,m,resident,2019_Dec_03_1556,AdjustEyeTrack,3.1.5,60.77074048
38,Stimuli/Morph38.JPG,Stimuli/Morph38.png,Stimuli/BlurLevel5/BlurEditedMorph38,Stimuli/BlurLevel5/BlurEditedMorph38.png,Stimuli/BlurLevel5/NumberedMorphs/BlurEditedMorph38.png,Stimuli/BlurLevel5/OriginalBlur/BlurEditedMorph38.png,Stimuli/BlurMorphTrio/EditedMorph38.png,010108right.gif,Stimuli/normal_thumbnails/38right.gif,,,,,0,0,0,0,0,35,35,37,,,,,,,,,,,,,,,,,,,,,,,16,36,1,190,-2.462019383,-0.434120444,38,Experiment,,,,,,,,,41,38,0,0,,,,,,,,,,,,,,,565.8962148,566.396121,565.8962148,566.396121,100,1575410699,1575410701,1.949866056,1575410697,1575410699,,,s5,1,33,m,resident,2019_Dec_03_1556,AdjustEyeTrack,3.1.5,60.77074048
22,Stimuli/Morph22.JPG,Stimuli/Morph22.png,Stimuli/BlurLevel5/BlurEditedMorph22,Stimuli/BlurLevel5/BlurEditedMorph22.png,Stimuli/BlurLevel5/NumberedMorphs/BlurEditedMorph22.png,Stimuli/BlurLevel5/OriginalBlur/BlurEditedMorph22.png,Stimuli/BlurMorphTrio/EditedMorph22.png,010055right.gif,Stimuli/normal_thumbnails/22right.gif,,,,,0,0,0,0,0,36,36,21,,,,,,,,,,,,,,,,,,,,,,,20,37,1,221,-1.886773951,-1.640147572,22,Experiment,,,,,,,,,99,14,8,8,,,,,,,,,,,,,,,570.6685034,571.1628804,570.6685034,571.1628804,89.11564626,1575410704,1575410706,2.766308784,1575410701,1575410704,,,s5,1,33,m,resident,2019_Dec_03_1556,AdjustEyeTrack,3.1.5,60.77074048
48,Stimuli/Morph48.JPG,Stimuli/Morph48.png,Stimuli/BlurLevel5/BlurEditedMorph48,Stimuli/BlurLevel5/BlurEditedMorph48.png,Stimuli/BlurLevel5/NumberedMorphs/BlurEditedMorph48.png,Stimuli/BlurLevel5/OriginalBlur/BlurEditedMorph48.png,Stimuli/BlurMorphTrio/EditedMorph48.png,010131right.gif,Stimuli/normal_thumbnails/48right.gif,,,,,0,0,0,0,0,37,37,47,,,,,,,,,,,,,,,,,,,,,,,52,38,1,56,1.397982259,2.072593931,48,Experiment,,,,,,,,,6,42,6,6,,,,,,,,,,,,,,,575.8970252,576.3959046,575.8970252,576.3959046,91.83673469,1575410709,1575410713,3.597578049,1575410707,1575410709,,,s5,1,33,m,resident,2019_Dec_03_1556,AdjustEyeTrack,3.1.5,60.77074048
130,Stimuli/Morph130.JPG,Stimuli/Morph130.png,Stimuli/BlurLevel5/BlurEditedMorph130,Stimuli/BlurLevel5/BlurEditedMorph130.png,Stimuli/BlurLevel5/NumberedMorphs/BlurEditedMorph130.png,Stimuli/BlurLevel5/OriginalBlur/BlurEditedMorph130.png,Stimuli/BlurMorphTrio/EditedMorph130.png,None,None,,,,,0,0,0,0,0,38,38,129,,,,,,,,,,,,,,,,,,,,,,,99,39,1,130,-1.606969024,1.915111108,130,Experiment,,,,,,,,,81,1,129,-18,,,,,,,,,,,,,,,582.0874794,582.5795455,582.0874794,582.5795455,75.51020408,1575410715,1575410719,3.916278839,1575410713,1575410715,,,s5,1,33,m,resident,2019_Dec_03_1556,AdjustEyeTrack,3.1.5,60.77074048
23,Stimuli/Morph23.JPG,Stimuli/Morph23.png,Stimuli/BlurLevel5/BlurEditedMorph23,Stimuli/BlurLevel5/BlurEditedMorph23.png,Stimuli/BlurLevel5/NumberedMorphs/BlurEditedMorph23.png,Stimuli/BlurLevel5/OriginalBlur/BlurEditedMorph23.png,Stimuli/BlurMorphTrio/EditedMorph23.png,010063right.gif,Stimuli/normal_thumbnails/23right.gif,,,,,0,0,0,0,0,39,39,22,,,,,,,,,,,,,,,,,,,,,,,67,40,1,272,0.087248742,-2.498477068,23,Experiment,,,,,,,,,95,11,12,12,,,,,,,,,,,,,,,588.8161881,589.3127332,588.8161881,589.3127332,83.67346939,1575410722,1575410726,3.999706984,1575410719,1575410722,,,s5,1,33,m,resident,2019_Dec_03_1556,AdjustEyeTrack,3.1.5,60.77074048
60,Stimuli/Morph60.JPG,Stimuli/Morph60.png,Stimuli/BlurLevel5/BlurEditedMorph60,Stimuli/BlurLevel5/BlurEditedMorph60.png,Stimuli/BlurLevel5/NumberedMorphs/BlurEditedMorph60.png,Stimuli/BlurLevel5/OriginalBlur/BlurEditedMorph60.png,Stimuli/BlurMorphTrio/EditedMorph60.png,020200right.gif,Stimuli/normal_thumbnails/60right.gif,,,,,0,0,0,0,0,40,40,59,,,,,,,,,,,,,,,,,,,,,,,48,41,1,14,2.425739316,0.604804739,60,Experiment,,,,,,,,,49,54,6,6,,,,,,,,,,,,,,,595.6988482,596.1978543,595.6988482,596.1978543,91.83673469,1575410729,1575410734,5.74911499,1575410726,1575410729,,,s5,1,33,m,resident,2019_Dec_03_1556,AdjustEyeTrack,3.1.5,60.77074048
115,Stimuli/Morph115.JPG,Stimuli/Morph115.png,Stimuli/BlurLevel5/BlurEditedMorph115,Stimuli/BlurLevel5/BlurEditedMorph115.png,Stimuli/BlurLevel5/NumberedMorphs/BlurEditedMorph115.png,Stimuli/BlurLevel5/OriginalBlur/BlurEditedMorph115.png,Stimuli/BlurMorphTrio/EditedMorph115.png,None,None,,,,,0,0,0,0,0,41,41,114,,,,,,,,,,,,,,,,,,,,,,,16,42,1,141,-1.942864904,1.573300978,115,Experiment,,,,,,,,,4,101,14,14,,,,,,,,,,,,,,,604.1019938,604.5961223,604.1019938,604.5961223,80.95238095,1575410737,1575410740,3.286705256,1575410735,1575410737,,,s5,1,33,m,resident,2019_Dec_03_1556,AdjustEyeTrack,3.1.5,60.77074048
15,Stimuli/Morph15.JPG,Stimuli/Morph15.png,Stimuli/BlurLevel5/BlurEditedMorph15,Stimuli/BlurLevel5/BlurEditedMorph15.png,Stimuli/BlurLevel5/NumberedMorphs/BlurEditedMorph15.png,Stimuli/BlurLevel5/OriginalBlur/BlurEditedMorph15.png,Stimuli/BlurMorphTrio/EditedMorph15.png,010031right.gif,Stimuli/normal_thumbnails/15right.gif,,,,,0,0,0,0,0,42,42,14,,,,,,,,,,,,,,,,,,,,,,,7,43,1,192,-2.445369002,-0.519779227,15,Experiment,,,,,,,,,64,5,10,10,,,,,,,,,,,,,,,610.1878667,610.6797636,610.1878667,610.6797636,86.39455782,1575410743,1575410747,3.916241884,1575410741,1575410743,,,s5,1,33,m,resident,2019_Dec_03_1556,AdjustEyeTrack,3.1.5,60.77074048
49,Stimuli/Morph49.JPG,Stimuli/Morph49.png,Stimuli/BlurLevel5/BlurEditedMorph49,Stimuli/BlurLevel5/BlurEditedMorph49.png,Stimuli/BlurLevel5/NumberedMorphs/BlurEditedMorph49.png,Stimuli/BlurLevel5/OriginalBlur/BlurEditedMorph49.png,Stimuli/BlurMorphTrio/EditedMorph49.png,010135right.gif,Stimuli/normal_thumbnails/49right.gif,,,,,0,0,0,0,0,43,43,48,,,,,,,,,,,,,,,,,,,,,,,39,44,1,164,-2.40315424,0.68909339,49,Experiment,,,,,,,,,87,57,-8,-8,,,,,,,,,,,,,,,616.9827873,617.4794537,616.9827873,617.4794537,89.11564626,1575410750,1575410756,5.552117825,1575410747,1575410750,,,s5,1,33,m,resident,2019_Dec_03_1556,AdjustEyeTrack,3.1.5,60.77074048
34,Stimuli/Morph34.JPG,Stimuli/Morph34.png,Stimuli/BlurLevel5/BlurEditedMorph34,Stimuli/BlurLevel5/BlurEditedMorph34.png,Stimuli/BlurLevel5/NumberedMorphs/BlurEditedMorph34.png,Stimuli/BlurLevel5/OriginalBlur/BlurEditedMorph34.png,Stimuli/BlurMorphTrio/EditedMorph34.png,010090right.gif,Stimuli/normal_thumbnails/34right.gif,,,,,0,0,0,0,0,44,44,33,,,,,,,,,,,,,,,,,,,,,,,17,45,1,153,-2.22751631,1.134976249,34,Experiment,,,,,,,,,71,31,3,3,,,,,,,,,,,,,,,625.1502552,625.6458268,625.1502552,625.6458268,95.91836735,1575410758,1575410765,6.51207304,1575410756,1575410758,,,s5,1,33,m,resident,2019_Dec_03_1556,AdjustEyeTrack,3.1.5,60.77074048
7,Stimuli/Morph7.JPG,Stimuli/Morph7.png,Stimuli/BlurLevel5/BlurEditedMorph7,Stimuli/BlurLevel5/BlurEditedMorph7.png,Stimuli/BlurLevel5/NumberedMorphs/BlurEditedMorph7.png,Stimuli/BlurLevel5/OriginalBlur/BlurEditedMorph7.png,Stimuli/BlurMorphTrio/EditedMorph7.png,010013right.gif,Stimuli/normal_thumbnails/7right.gif,,,,,0,0,0,0,0,45,45,6,,,,,,,,,,,,,,,,,,,,,,,54,46,1,64,1.095927867,2.246985116,7,Experiment,,,,,,,,,16,10,-3,-3,,,,,,,,,,,,,,,634.3656189,634.8780278,634.3656189,634.8780278,95.91836735,1575410767,1575410772,4.749327898,1575410765,1575410767,,,s5,1,33,m,resident,2019_Dec_03_1556,AdjustEyeTrack,3.1.5,60.77074048
46,Stimuli/Morph46.JPG,Stimuli/Morph46.png,Stimuli/BlurLevel5/BlurEditedMorph46,Stimuli/BlurLevel5/BlurEditedMorph46.png,Stimuli/BlurLevel5/NumberedMorphs/BlurEditedMorph46.png,Stimuli/BlurLevel5/OriginalBlur/BlurEditedMorph46.png,Stimuli/BlurMorphTrio/EditedMorph46.png,010128right.gif,Stimuli/normal_thumbnails/46right.gif,,,,,0,0,0,0,0,46,46,45,,,,,,,,,,,,,,,,,,,,,,,51,47,1,270,-4.59E-16,-2.5,46,Experiment,,,,,,,,,81,48,-2,-2,,,,,,,,,,,,,,,642.2811708,642.7791982,642.2811708,642.7791982,97.27891156,1575410775,1575410785,9.884958029,1575410772,1575410775,,,s5,1,33,m,resident,2019_Dec_03_1556,AdjustEyeTrack,3.1.5,60.77074048
88,Stimuli/Morph88.JPG,Stimuli/Morph88.png,Stimuli/BlurLevel5/BlurEditedMorph88,Stimuli/BlurLevel5/BlurEditedMorph88.png,Stimuli/BlurLevel5/NumberedMorphs/BlurEditedMorph88.png,Stimuli/BlurLevel5/OriginalBlur/BlurEditedMorph88.png,Stimuli/BlurMorphTrio/EditedMorph88.png,020271right.gif,Stimuli/normal_thumbnails/88right.gif,,,,,0,0,0,0,0,47,47,87,,,,,,,,,,,,,,,,,,,,,,,20,48,1,116,-1.095927867,2.246985116,88,Experiment,,,,,,,,,81,95,-7,-7,,,,,,,,,,,,,,,654.9782116,655.4788714,654.9782116,655.4788714,90.47619048,1575410788,1575410796,8.14979887,1575410785,1575410788,,,s5,1,33,m,resident,2019_Dec_03_1556,AdjustEyeTrack,3.1.5,60.77074048
124,Stimuli/Morph124.JPG,Stimuli/Morph124.png,Stimuli/BlurLevel5/BlurEditedMorph124,Stimuli/BlurLevel5/BlurEditedMorph124.png,Stimuli/BlurLevel5/NumberedMorphs/BlurEditedMorph124.png,Stimuli/BlurLevel5/OriginalBlur/BlurEditedMorph124.png,Stimuli/BlurMorphTrio/EditedMorph124.png,None,None,,,,,0,0,0,0,0,48,48,123,,,,,,,,,,,,,,,,,,,,,,,43,49,1,17,2.39076189,0.730929262,124,Experiment,,,,,,,,,65,113,11,11,,,,,,,,,,,,,,,666.0344442,666.5287553,666.0344442,666.5287553,85.03401361,1575410799,1575410803,3.519257784,1575410796,1575410799,,,s5,1,33,m,resident,2019_Dec_03_1556,AdjustEyeTrack,3.1.5,60.77074048
120,Stimuli/Morph120.JPG,Stimuli/Morph120.png,Stimuli/BlurLevel5/BlurEditedMorph120,Stimuli/BlurLevel5/BlurEditedMorph120.png,Stimuli/BlurLevel5/NumberedMorphs/BlurEditedMorph120.png,Stimuli/BlurLevel5/OriginalBlur/BlurEditedMorph120.png,Stimuli/BlurMorphTrio/EditedMorph120.png,None,None,,,,,0,0,0,0,0,49,49,119,,,,,,,,,,,,,,,,,,,,,,,39,50,1,243,-1.134976249,-2.22751631,120,Experiment,,,,,,,,,115,116,4,4,,,,,,,,,,,,,,,672.4694815,672.9627074,672.4694815,672.9627074,94.55782313,1575410806,1575410807,1.782920361,1575410803,1575410805,,,s5,1,33,m,resident,2019_Dec_03_1556,AdjustEyeTrack,3.1.5,60.77074048
98,Stimuli/Morph98.JPG,Stimuli/Morph98.png,Stimuli/BlurLevel5/BlurEditedMorph98,Stimuli/BlurLevel5/BlurEditedMorph98.png,Stimuli/BlurLevel5/NumberedMorphs/BlurEditedMorph98.png,Stimuli/BlurLevel5/OriginalBlur/BlurEditedMorph98.png,Stimuli/BlurMorphTrio/EditedMorph98.png,020298right.gif,Stimuli/normal_thumbnails/98right.gif,,,,,0,0,0,0,0,50,50,97,,,,,,,,,,,,,,,,,,,,,,,12,51,1,17,2.39076189,0.730929262,98,Experiment,,,,,,,,,111,102,-4,-4,,,,,,,,,,,,,,,677.4495885,677.9449874,677.4495885,677.9449874,94.55782313,1575410810,1575410814,3.533091784,1575410808,1575410810,,,s5,1,33,m,resident,2019_Dec_03_1556,AdjustEyeTrack,3.1.5,60.77074048
65,Stimuli/Morph65.JPG,Stimuli/Morph65.png,Stimuli/BlurLevel5/BlurEditedMorph65,Stimuli/BlurLevel5/BlurEditedMorph65.png,Stimuli/BlurLevel5/NumberedMorphs/BlurEditedMorph65.png,Stimuli/BlurLevel5/OriginalBlur/BlurEditedMorph65.png,Stimuli/BlurMorphTrio/EditedMorph65.png,020209right.gif,Stimuli/normal_thumbnails/65right.gif,,,,,0,0,0,0,0,51,51,64,,,,,,,,,,,,,,,,,,,,,,,12,52,1,30,2.165063509,1.25,65,Experiment,,,,,,,,,40,61,4,4,,,,,,,,,,,,,,,683.4203566,683.9280245,683.4203566,683.9280245,94.55782313,1575410816,1575410822,5.733819246,1575410814,1575410816,,,s5,1,33,m,resident,2019_Dec_03_1556,AdjustEyeTrack,3.1.5,60.77074048
92,Stimuli/Morph92.JPG,Stimuli/Morph92.png,Stimuli/BlurLevel5/BlurEditedMorph92,Stimuli/BlurLevel5/BlurEditedMorph92.png,Stimuli/BlurLevel5/NumberedMorphs/BlurEditedMorph92.png,Stimuli/BlurLevel5/OriginalBlur/BlurEditedMorph92.png,Stimuli/BlurMorphTrio/EditedMorph92.png,020277right.gif,Stimuli/normal_thumbnails/92right.gif,,,,,0,0,0,0,0,52,52,91,,,,,,,,,,,,,,,,,,,,,,,5,53,1,279,0.391086163,-2.469220851,92,Experiment,,,,,,,,,107,92,0,0,,,,,,,,,,,,,,,691.6203455,692.1283586,691.6203455,692.1283586,100,1575410825,1575410829,4.616133213,1575410822,1575410825,,,s5,1,33,m,resident,2019_Dec_03_1556,AdjustEyeTrack,3.1.5,60.77074048
30,Stimuli/Morph30.JPG,Stimuli/Morph30.png,Stimuli/BlurLevel5/BlurEditedMorph30,Stimuli/BlurLevel5/BlurEditedMorph30.png,Stimuli/BlurLevel5/NumberedMorphs/BlurEditedMorph30.png,Stimuli/BlurLevel5/OriginalBlur/BlurEditedMorph30.png,Stimuli/BlurMorphTrio/EditedMorph30.png,010076right.gif,Stimuli/normal_thumbnails/30right.gif,,,,,0,0,0,0,0,53,53,29,,,,,,,,,,,,,,,,,,,,,,,97,54,1,197,-2.39076189,-0.730929262,30,Experiment,,,,,,,,,96,36,-6,-6,,,,,,,,,,,,,,,699.2797178,699.7779567,699.2797178,699.7779567,91.83673469,1575410832,1575410841,8.94976306,1575410830,1575410832,,,s5,1,33,m,resident,2019_Dec_03_1556,AdjustEyeTrack,3.1.5,60.77074048
39,Stimuli/Morph39.JPG,Stimuli/Morph39.png,Stimuli/BlurLevel5/BlurEditedMorph39,Stimuli/BlurLevel5/BlurEditedMorph39.png,Stimuli/BlurLevel5/NumberedMorphs/BlurEditedMorph39.png,Stimuli/BlurLevel5/OriginalBlur/BlurEditedMorph39.png,Stimuli/BlurMorphTrio/EditedMorph39.png,010109right.gif,Stimuli/normal_thumbnails/39right.gif,,,,,0,0,0,0,0,54,54,38,,,,,,,,,,,,,,,,,,,,,,,85,55,1,287,0.730929262,-2.39076189,39,Experiment,,,,,,,,,20,43,-4,-4,,,,,,,,,,,,,,,710.9350994,711.4276746,710.9350994,711.4276746,94.55782313,1575410844,1575410849,4.649475813,1575410842,1575410844,,,s5,1,33,m,resident,2019_Dec_03_1556,AdjustEyeTrack,3.1.5,60.77074048
105,Stimuli/Morph105.JPG,Stimuli/Morph105.png,Stimuli/BlurLevel5/BlurEditedMorph105,Stimuli/BlurLevel5/BlurEditedMorph105.png,Stimuli/BlurLevel5/NumberedMorphs/BlurEditedMorph105.png,Stimuli/BlurLevel5/OriginalBlur/BlurEditedMorph105.png,Stimuli/BlurMorphTrio/EditedMorph105.png,None,None,,,,,0,0,0,0,0,55,55,104,,,,,,,,,,,,,,,,,,,,,,,97,56,1,232,-1.539153688,-1.970026884,105,Experiment,,,,,,,,,14,110,-5,-5,,,,,,,,,,,,,,,718.2613383,718.7603912,718.2613383,718.7603912,93.19727891,1575410851,1575410856,4.736924171,1575410849,1575410851,,,s5,1,33,m,resident,2019_Dec_03_1556,AdjustEyeTrack,3.1.5,60.77074048
134,Stimuli/Morph134.JPG,Stimuli/Morph134.png,Stimuli/BlurLevel5/BlurEditedMorph134,Stimuli/BlurLevel5/BlurEditedMorph134.png,Stimuli/BlurLevel5/NumberedMorphs/BlurEditedMorph134.png,Stimuli/BlurLevel5/OriginalBlur/BlurEditedMorph134.png,Stimuli/BlurMorphTrio/EditedMorph134.png,None,None,,,,,0,0,0,0,0,56,56,133,,,,,,,,,,,,,,,,,,,,,,,59,57,1,166,-2.425739316,0.604804739,134,Experiment,,,,,,,,,41,145,-11,-11,,,,,,,,,,,,,,,725.2685118,725.7610388,725.2685118,725.7610388,85.03401361,1575410858,1575410871,13.00058389,1575410856,1575410858,,,s5,1,33,m,resident,2019_Dec_03_1556,AdjustEyeTrack,3.1.5,60.77074048
126,Stimuli/Morph126.JPG,Stimuli/Morph126.png,Stimuli/BlurLevel5/BlurEditedMorph126,Stimuli/BlurLevel5/BlurEditedMorph126.png,Stimuli/BlurLevel5/NumberedMorphs/BlurEditedMorph126.png,Stimuli/BlurLevel5/OriginalBlur/BlurEditedMorph126.png,Stimuli/BlurMorphTrio/EditedMorph126.png,None,None,,,,,0,0,0,0,0,57,57,125,,,,,,,,,,,,,,,,,,,,,,,34,58,1,197,-2.39076189,-0.730929262,126,Experiment,,,,,,,,,15,147,-21,-21,,,,,,,,,,,,,,,740.8345773,741.3268359,740.8345773,741.3268359,71.42857143,1575410874,1575410880,5.7177701,1575410872,1575410874,,,s5,1,33,m,resident,2019_Dec_03_1556,AdjustEyeTrack,3.1.5,60.77074048
64,Stimuli/Morph64.JPG,Stimuli/Morph64.png,Stimuli/BlurLevel5/BlurEditedMorph64,Stimuli/BlurLevel5/BlurEditedMorph64.png,Stimuli/BlurLevel5/NumberedMorphs/BlurEditedMorph64.png,Stimuli/BlurLevel5/OriginalBlur/BlurEditedMorph64.png,Stimuli/BlurMorphTrio/EditedMorph64.png,020208right.gif,Stimuli/normal_thumbnails/64right.gif,,,,,0,0,0,0,0,58,58,63,,,,,,,,,,,,,,,,,,,,,,,49,59,1,36,2.022542486,1.469463131,64,Experiment,,,,,,,,,81,62,2,2,,,,,,,,,,,,,,,749.3177093,749.8129924,749.3177093,749.8129924,97.27891156,1575410882,1575410887,4.352193117,1575410880,1575410882,,,s5,1,33,m,resident,2019_Dec_03_1556,AdjustEyeTrack,3.1.5,60.77074048
108,Stimuli/Morph108.JPG,Stimuli/Morph108.png,Stimuli/BlurLevel5/BlurEditedMorph108,Stimuli/BlurLevel5/BlurEditedMorph108.png,Stimuli/BlurLevel5/NumberedMorphs/BlurEditedMorph108.png,Stimuli/BlurLevel5/OriginalBlur/BlurEditedMorph108.png,Stimuli/BlurMorphTrio/EditedMorph108.png,None,None,,,,,0,0,0,0,0,59,59,107,,,,,,,,,,,,,,,,,,,,,,,26,60,1,282,0.519779227,-2.445369002,108,Experiment,,,,,,,,,88,111,-3,-3,,,,,,,,,,,,,,,756.4785319,756.9769539,756.4785319,756.9769539,95.91836735,1575410890,1575410895,5.166529179,1575410887,1575410890,,,s5,1,33,m,resident,2019_Dec_03_1556,AdjustEyeTrack,3.1.5,60.77074048
69,Stimuli/Morph69.JPG,Stimuli/Morph69.png,Stimuli/BlurLevel5/BlurEditedMorph69,Stimuli/BlurLevel5/BlurEditedMorph69.png,Stimuli/BlurLevel5/NumberedMorphs/BlurEditedMorph69.png,Stimuli/BlurLevel5/OriginalBlur/BlurEditedMorph69.png,Stimuli/BlurMorphTrio/EditedMorph69.png,020220right.gif,Stimuli/normal_thumbnails/69right.gif,,,,,0,0,0,0,0,60,60,68,,,,,,,,,,,,,,,,,,,,,,,90,61,1,217,-1.996588775,-1.504537558,69,Experiment,,,,,,,,,23,63,6,6,,,,,,,,,,,,,,,764.2479548,764.7436967,764.2479548,764.7436967,91.83673469,1575410897,1575410902,5.150775909,1575410895,1575410897,,,s5,1,33,m,resident,2019_Dec_03_1556,AdjustEyeTrack,3.1.5,60.77074048
71,Stimuli/Morph71.JPG,Stimuli/Morph71.png,Stimuli/BlurLevel5/BlurEditedMorph71,Stimuli/BlurLevel5/BlurEditedMorph71.png,Stimuli/BlurLevel5/NumberedMorphs/BlurEditedMorph71.png,Stimuli/BlurLevel5/OriginalBlur/BlurEditedMorph71.png,Stimuli/BlurMorphTrio/EditedMorph71.png,020225right.gif,Stimuli/normal_thumbnails/71right.gif,,,,,0,0,0,0,0,61,61,70,,,,,,,,,,,,,,,,,,,,,,,88,62,1,7,2.481365379,0.304673359,71,Experiment,,,,,,,,,94,65,6,6,,,,,,,,,,,,,,,772.3291233,772.8270387,772.3291233,772.8270387,91.83673469,1575410905,1575410910,4.399023294,1575410903,1575410905,,,s5,1,33,m,resident,2019_Dec_03_1556,AdjustEyeTrack,3.1.5,60.77074048
73,Stimuli/Morph73.JPG,Stimuli/Morph73.png,Stimuli/BlurLevel5/BlurEditedMorph73,Stimuli/BlurLevel5/BlurEditedMorph73.png,Stimuli/BlurLevel5/NumberedMorphs/BlurEditedMorph73.png,Stimuli/BlurLevel5/OriginalBlur/BlurEditedMorph73.png,Stimuli/BlurMorphTrio/EditedMorph73.png,020230right.gif,Stimuli/normal_thumbnails/73right.gif,,,,,0,0,0,0,0,62,62,72,,,,,,,,,,,,,,,,,,,,,,,78,63,1,136,-1.798349501,1.736645926,73,Experiment,,,,,,,,,13,69,4,4,,,,,,,,,,,,,,,779.3126801,779.8127646,779.3126801,779.8127646,94.55782313,1575410912,1575410916,4.065732956,1575410910,1575410912,,,s5,1,33,m,resident,2019_Dec_03_1556,AdjustEyeTrack,3.1.5,60.77074048
19,Stimuli/Morph19.JPG,Stimuli/Morph19.png,Stimuli/BlurLevel5/BlurEditedMorph19,Stimuli/BlurLevel5/BlurEditedMorph19.png,Stimuli/BlurLevel5/NumberedMorphs/BlurEditedMorph19.png,Stimuli/BlurLevel5/OriginalBlur/BlurEditedMorph19.png,Stimuli/BlurMorphTrio/EditedMorph19.png,010045right.gif,Stimuli/normal_thumbnails/19right.gif,,,,,0,0,0,0,0,63,63,18,,,,,,,,,,,,,,,,,,,,,,,69,64,1,218,-1.970026884,-1.539153688,19,Experiment,,,,,,,,,36,30,-11,-11,,,,,,,,,,,,,,,786.5678124,787.0770119,786.5678124,787.0770119,85.03401361,1575410920,1575410926,5.9026618,1575410917,1575410920,,,s5,1,33,m,resident,2019_Dec_03_1556,AdjustEyeTrack,3.1.5,60.77074048
20,Stimuli/Morph20.JPG,Stimuli/Morph20.png,Stimuli/BlurLevel5/BlurEditedMorph20,Stimuli/BlurLevel5/BlurEditedMorph20.png,Stimuli/BlurLevel5/NumberedMorphs/BlurEditedMorph20.png,Stimuli/BlurLevel5/OriginalBlur/BlurEditedMorph20.png,Stimuli/BlurMorphTrio/EditedMorph20.png,010046right.gif,Stimuli/normal_thumbnails/20right.gif,,,,,0,0,0,0,0,64,64,19,,,,,,,,,,,,,,,,,,,,,,,59,65,1,329,2.142918252,-1.287595187,20,Experiment,,,,,,,,,24,23,-3,-3,,,,,,,,,,,,,,,794.9360061,795.4289321,794.9360061,795.4289321,95.91836735,1575410928,1575410930,2.517095089,1575410926,1575410928,,,s5,1,33,m,resident,2019_Dec_03_1556,AdjustEyeTrack,3.1.5,60.77074048
33,Stimuli/Morph33.JPG,Stimuli/Morph33.png,Stimuli/BlurLevel5/BlurEditedMorph33,Stimuli/BlurLevel5/BlurEditedMorph33.png,Stimuli/BlurLevel5/NumberedMorphs/BlurEditedMorph33.png,Stimuli/BlurLevel5/OriginalBlur/BlurEditedMorph33.png,Stimuli/BlurMorphTrio/EditedMorph33.png,010089right.gif,Stimuli/normal_thumbnails/33right.gif,,,,,0,0,0,0,0,65,65,32,,,,,,,,,,,,,,,,,,,,,,,26,66,1,222,-1.857862064,-1.672826516,33,Experiment,,,,,,,,,14,29,4,4,,,,,,,,,,,,,,,799.8318726,800.3259441,799.8318726,800.3259441,94.55782313,1575410933,1575410937,4.433229923,1575410931,1575410933,,,s5,1,33,m,resident,2019_Dec_03_1556,AdjustEyeTrack,3.1.5,60.77074048
59,Stimuli/Morph59.JPG,Stimuli/Morph59.png,Stimuli/BlurLevel5/BlurEditedMorph59,Stimuli/BlurLevel5/BlurEditedMorph59.png,Stimuli/BlurLevel5/NumberedMorphs/BlurEditedMorph59.png,Stimuli/BlurLevel5/OriginalBlur/BlurEditedMorph59.png,Stimuli/BlurMorphTrio/EditedMorph59.png,010160right.gif,Stimuli/normal_thumbnails/59right.gif,,,,,0,0,0,0,0,66,66,58,,,,,,,,,,,,,,,,,,,,,,,50,67,1,8,2.475670172,0.347932752,59,Experiment,,,,,,,,,142,45,14,14,,,,,,,,,,,,,,,806.8603918,807.3597032,806.8603918,807.3597032,80.95238095,1575410940,1575410943,3.114116907,1575410938,1575410940,,,s5,1,33,m,resident,2019_Dec_03_1556,AdjustEyeTrack,3.1.5,60.77074048
51,Stimuli/Morph51.JPG,Stimuli/Morph51.png,Stimuli/BlurLevel5/BlurEditedMorph51,Stimuli/BlurLevel5/BlurEditedMorph51.png,Stimuli/BlurLevel5/NumberedMorphs/BlurEditedMorph51.png,Stimuli/BlurLevel5/OriginalBlur/BlurEditedMorph51.png,Stimuli/BlurMorphTrio/EditedMorph51.png,010146right.gif,Stimuli/normal_thumbnails/51right.gif,,,,,0,0,0,0,0,67,67,50,,,,,,,,,,,,,,,,,,,,,,,57,68,1,314,1.736645926,-1.798349501,51,Experiment,,,,,,,,,118,50,1,1,,,,,,,,,,,,,,,812.9992266,813.4942017,812.9992266,813.4942017,98.63945578,1575410946,1575410951,4.615777016,1575410943,1575410946,,,s5,1,33,m,resident,2019_Dec_03_1556,AdjustEyeTrack,3.1.5,60.77074048
123,Stimuli/Morph123.JPG,Stimuli/Morph123.png,Stimuli/BlurLevel5/BlurEditedMorph123,Stimuli/BlurLevel5/BlurEditedMorph123.png,Stimuli/BlurLevel5/NumberedMorphs/BlurEditedMorph123.png,Stimuli/BlurLevel5/OriginalBlur/BlurEditedMorph123.png,Stimuli/BlurMorphTrio/EditedMorph123.png,None,None,,,,,0,0,0,0,0,68,68,122,,,,,,,,,,,,,,,,,,,,,,,61,69,1,197,-2.39076189,-0.730929262,123,Experiment,,,,,,,,,117,132,-9,-9,,,,,,,,,,,,,,,820.6508783,821.1593473,820.6508783,821.1593473,87.75510204,1575410954,1575410965,11.48361278,1575410951,1575410954,,,s5,1,33,m,resident,2019_Dec_03_1556,AdjustEyeTrack,3.1.5,60.77074048
112,Stimuli/Morph112.JPG,Stimuli/Morph112.png,Stimuli/BlurLevel5/BlurEditedMorph112,Stimuli/BlurLevel5/BlurEditedMorph112.png,Stimuli/BlurLevel5/NumberedMorphs/BlurEditedMorph112.png,Stimuli/BlurLevel5/OriginalBlur/BlurEditedMorph112.png,Stimuli/BlurMorphTrio/EditedMorph112.png,None,None,,,,,0,0,0,0,0,69,69,111,,,,,,,,,,,,,,,,,,,,,,,40,70,1,90,1.53E-16,2.5,112,Experiment,,,,,,,,,117,128,-16,-16,,,,,,,,,,,,,,,835.3283932,835.8263259,835.3283932,835.8263259,78.23129252,1575410968,1575410972,3.132805824,1575410965,1575410968,,,s5,1,33,m,resident,2019_Dec_03_1556,AdjustEyeTrack,3.1.5,60.77074048
5,Stimuli/Morph5.JPG,Stimuli/Morph5.png,Stimuli/BlurLevel5/BlurEditedMorph5,Stimuli/BlurLevel5/BlurEditedMorph5.png,Stimuli/BlurLevel5/NumberedMorphs/BlurEditedMorph5.png,Stimuli/BlurLevel5/OriginalBlur/BlurEditedMorph5.png,Stimuli/BlurMorphTrio/EditedMorph5.png,010011right.gif,Stimuli/normal_thumbnails/5right.gif,,,,,0,0,0,0,0,70,70,4,,,,,,,,,,,,,,,,,,,,,,,78,71,1,315,1.767766953,-1.767766953,5,Experiment,,,,,,,,,46,136,-131,16,,,,,,,,,,,,,,,840.8933886,841.3920081,840.8933886,841.3920081,78.23129252,1575410974,1575410978,3.750864029,1575410972,1575410974,,,s5,1,33,m,resident,2019_Dec_03_1556,AdjustEyeTrack,3.1.5,60.77074048
45,Stimuli/Morph45.JPG,Stimuli/Morph45.png,Stimuli/BlurLevel5/BlurEditedMorph45,Stimuli/BlurLevel5/BlurEditedMorph45.png,Stimuli/BlurLevel5/NumberedMorphs/BlurEditedMorph45.png,Stimuli/BlurLevel5/OriginalBlur/BlurEditedMorph45.png,Stimuli/BlurMorphTrio/EditedMorph45.png,010127right.gif,Stimuli/normal_thumbnails/45right.gif,,,,,0,0,0,0,0,71,71,44,,,,,,,,,,,,,,,,,,,,,,,37,72,1,181,-2.499619238,-0.043631016,45,Experiment,,,,,,,,,56,44,1,1,,,,,,,,,,,,,,,847.5969526,848.0924388,847.5969526,848.0924388,98.63945578,1575410981,1575410983,1.984615803,1575410978,1575410981,,,s5,1,33,m,resident,2019_Dec_03_1556,AdjustEyeTrack,3.1.5,60.77074048
85,Stimuli/Morph85.JPG,Stimuli/Morph85.png,Stimuli/BlurLevel5/BlurEditedMorph85,Stimuli/BlurLevel5/BlurEditedMorph85.png,Stimuli/BlurLevel5/NumberedMorphs/BlurEditedMorph85.png,Stimuli/BlurLevel5/OriginalBlur/BlurEditedMorph85.png,Stimuli/BlurMorphTrio/EditedMorph85.png,020264right.gif,Stimuli/normal_thumbnails/85right.gif,,,,,0,0,0,0,0,72,72,84,,,,,,,,,,,,,,,,,,,,,,,68,73,1,329,2.142918252,-1.287595187,85,Experiment,,,,,,,,,105,111,-26,-26,,,,,,,,,,,,,,,852.3423371,852.8422343,852.3423371,852.8422343,64.62585034,1575410985,1575410988,2.582856894,1575410983,1575410985,,,s5,1,33,m,resident,2019_Dec_03_1556,AdjustEyeTrack,3.1.5,60.77074048
25,Stimuli/Morph25.JPG,Stimuli/Morph25.png,Stimuli/BlurLevel5/BlurEditedMorph25,Stimuli/BlurLevel5/BlurEditedMorph25.png,Stimuli/BlurLevel5/NumberedMorphs/BlurEditedMorph25.png,Stimuli/BlurLevel5/OriginalBlur/BlurEditedMorph25.png,Stimuli/BlurMorphTrio/EditedMorph25.png,010069right.gif,Stimuli/normal_thumbnails/25right.gif,,,,,0,0,0,0,0,73,73,24,,,,,,,,,,,,,,,,,,,,,,,66,74,1,339,2.333951066,-0.895919874,25,Experiment,,,,,,,,,132,34,-9,-9,,,,,,,,,,,,,,,857.3924096,857.8923093,857.3924096,857.8923093,87.75510204,1575410990,1575410996,5.753155947,1575410988,1575410990,,,s5,1,33,m,resident,2019_Dec_03_1556,AdjustEyeTrack,3.1.5,60.77074048
116,Stimuli/Morph116.JPG,Stimuli/Morph116.png,Stimuli/BlurLevel5/BlurEditedMorph116,Stimuli/BlurLevel5/BlurEditedMorph116.png,Stimuli/BlurLevel5/NumberedMorphs/BlurEditedMorph116.png,Stimuli/BlurLevel5/OriginalBlur/BlurEditedMorph116.png,Stimuli/BlurMorphTrio/EditedMorph116.png,None,None,,,,,0,0,0,0,0,74,74,115,,,,,,,,,,,,,,,,,,,,,,,80,75,1,306,1.469463131,-2.022542486,116,Experiment,,,,,,,,,137,105,11,11,,,,,,,,,,,,,,,865.5092746,866.0093375,865.5092746,866.0093375,85.03401361,1575410999,1575411003,4.366700172,1575410996,1575410999,,,s5,1,33,m,resident,2019_Dec_03_1556,AdjustEyeTrack,3.1.5,60.77074048
137,Stimuli/Morph137.JPG,Stimuli/Morph137.png,Stimuli/BlurLevel5/BlurEditedMorph137,Stimuli/BlurLevel5/BlurEditedMorph137.png,Stimuli/BlurLevel5/NumberedMorphs/BlurEditedMorph137.png,Stimuli/BlurLevel5/OriginalBlur/BlurEditedMorph137.png,Stimuli/BlurMorphTrio/EditedMorph137.png,None,None,,,,,0,0,0,0,0,75,75,136,,,,,,,,,,,,,,,,,,,,,,,48,76,1,37,1.996588775,1.504537558,137,Experiment,,,,,,,,,4,20,117,-30,,,,,,,,,,,,,,,872.4124865,872.9092797,872.4124865,872.9092797,59.18367347,1575411005,1575411008,2.983605146,1575411003,1575411005,,,s5,1,33,m,resident,2019_Dec_03_1556,AdjustEyeTrack,3.1.5,60.77074048
125,Stimuli/Morph125.JPG,Stimuli/Morph125.png,Stimuli/BlurLevel5/BlurEditedMorph125,Stimuli/BlurLevel5/BlurEditedMorph125.png,Stimuli/BlurLevel5/NumberedMorphs/BlurEditedMorph125.png,Stimuli/BlurLevel5/OriginalBlur/BlurEditedMorph125.png,Stimuli/BlurMorphTrio/EditedMorph125.png,None,None,,,,,0,0,0,0,0,76,76,124,,,,,,,,,,,,,,,,,,,,,,,4,77,1,110,-0.855050358,2.349231552,125,Experiment,,,,,,,,,29,107,18,18,,,,,,,,,,,,,,,878.6443827,879.1423864,878.6443827,879.1423864,75.51020408,1575411012,1575411016,4.34995985,1575411009,1575411012,,,s5,1,33,m,resident,2019_Dec_03_1556,AdjustEyeTrack,3.1.5,60.77074048
144,Stimuli/Morph144.JPG,Stimuli/Morph144.png,Stimuli/BlurLevel5/BlurEditedMorph144,Stimuli/BlurLevel5/BlurEditedMorph144.png,Stimuli/BlurLevel5/NumberedMorphs/BlurEditedMorph144.png,Stimuli/BlurLevel5/OriginalBlur/BlurEditedMorph144.png,Stimuli/BlurMorphTrio/EditedMorph144.png,None,None,,,,,0,0,0,0,0,77,77,143,,,,,,,,,,,,,,,,,,,,,,,16,78,1,205,-2.265769468,-1.056545654,144,Experiment,,,,,,,,,68,22,122,-25,,,,,,,,,,,,,,,885.9467578,886.4422308,885.9467578,886.4422308,65.98639456,1575411019,1575411024,4.965774059,1575411016,1575411019,,,s5,1,33,m,resident,2019_Dec_03_1556,AdjustEyeTrack,3.1.5,60.77074048
121,Stimuli/Morph121.JPG,Stimuli/Morph121.png,Stimuli/BlurLevel5/BlurEditedMorph121,Stimuli/BlurLevel5/BlurEditedMorph121.png,Stimuli/BlurLevel5/NumberedMorphs/BlurEditedMorph121.png,Stimuli/BlurLevel5/OriginalBlur/BlurEditedMorph121.png,Stimuli/BlurMorphTrio/EditedMorph121.png,None,None,,,,,0,0,0,0,0,78,78,120,,,,,,,,,,,,,,,,,,,,,,,17,79,1,320,1.915111108,-1.606969024,121,Experiment,,,,,,,,,36,117,4,4,,,,,,,,,,,,,,,893.944906,894.444308,893.944906,894.444308,94.55782313,1575411027,1575411031,3.699398994,1575411024,1575411027,,,s5,1,33,m,resident,2019_Dec_03_1556,AdjustEyeTrack,3.1.5,60.77074048
102,Stimuli/Morph102.JPG,Stimuli/Morph102.png,Stimuli/BlurLevel5/BlurEditedMorph102,Stimuli/BlurLevel5/BlurEditedMorph102.png,Stimuli/BlurLevel5/NumberedMorphs/BlurEditedMorph102.png,Stimuli/BlurLevel5/OriginalBlur/BlurEditedMorph102.png,Stimuli/BlurMorphTrio/EditedMorph102.png,None,None,,,,,0,0,0,0,0,79,79,101,,,,,,,,,,,,,,,,,,,,,,,44,80,1,27,2.22751631,1.134976249,102,Experiment,,,,,,,,,115,102,0,0,,,,,,,,,,,,,,,900.579493,901.0759231,900.579493,901.0759231,100,1575411034,1575411037,3.016680956,1575411031,1575411034,,,s5,1,33,m,resident,2019_Dec_03_1556,AdjustEyeTrack,3.1.5,60.77074048
62,Stimuli/Morph62.JPG,Stimuli/Morph62.png,Stimuli/BlurLevel5/BlurEditedMorph62,Stimuli/BlurLevel5/BlurEditedMorph62.png,Stimuli/BlurLevel5/NumberedMorphs/BlurEditedMorph62.png,Stimuli/BlurLevel5/OriginalBlur/BlurEditedMorph62.png,Stimuli/BlurMorphTrio/EditedMorph62.png,020205right.gif,Stimuli/normal_thumbnails/62right.gif,,,,,0,0,0,0,0,80,80,61,,,,,,,,,,,,,,,,,,,,,,,34,81,1,104,-0.604804739,2.425739316,62,Experiment,,,,,,,,,141,128,-66,-66,,,,,,,,,,,,,,,906.6092854,907.1082998,906.6092854,907.1082998,10.20408163,1575411040,1575411050,10.73461103,1575411037,1575411040,,,s5,1,33,m,resident,2019_Dec_03_1556,AdjustEyeTrack,3.1.5,60.77074048
17,Stimuli/Morph17.JPG,Stimuli/Morph17.png,Stimuli/BlurLevel5/BlurEditedMorph17,Stimuli/BlurLevel5/BlurEditedMorph17.png,Stimuli/BlurLevel5/NumberedMorphs/BlurEditedMorph17.png,Stimuli/BlurLevel5/OriginalBlur/BlurEditedMorph17.png,Stimuli/BlurMorphTrio/EditedMorph17.png,010036right.gif,Stimuli/normal_thumbnails/17right.gif,,,,,0,0,0,0,0,81,81,16,,,,,,,,,,,,,,,,,,,,,,,65,82,1,233,-1.504537558,-1.996588775,17,Experiment,,,,,,,,,70,21,-4,-4,,,,,,,,,,,,,,,919.964663,920.4599796,919.964663,920.4599796,94.55782313,1575411053,1575411060,7.068094254,1575411051,1575411053,,,s5,1,33,m,resident,2019_Dec_03_1556,AdjustEyeTrack,3.1.5,60.77074048
32,Stimuli/Morph32.JPG,Stimuli/Morph32.png,Stimuli/BlurLevel5/BlurEditedMorph32,Stimuli/BlurLevel5/BlurEditedMorph32.png,Stimuli/BlurLevel5/NumberedMorphs/BlurEditedMorph32.png,Stimuli/BlurLevel5/OriginalBlur/BlurEditedMorph32.png,Stimuli/BlurMorphTrio/EditedMorph32.png,010080right.gif,Stimuli/normal_thumbnails/32right.gif,,,,,0,0,0,0,0,82,82,31,,,,,,,,,,,,,,,,,,,,,,,53,83,1,254,-0.68909339,-2.40315424,32,Experiment,,,,,,,,,60,29,3,3,,,,,,,,,,,,,,,929.677247,930.1747736,929.677247,930.1747736,95.91836735,1575411063,1575411067,4.106401205,1575411060,1575411063,,,s5,1,33,m,resident,2019_Dec_03_1556,AdjustEyeTrack,3.1.5,60.77074048
4,Stimuli/Morph4.JPG,Stimuli/Morph4.png,Stimuli/BlurLevel5/BlurEditedMorph4,Stimuli/BlurLevel5/BlurEditedMorph4.png,Stimuli/BlurLevel5/NumberedMorphs/BlurEditedMorph4.png,Stimuli/BlurLevel5/OriginalBlur/BlurEditedMorph4.png,Stimuli/BlurMorphTrio/EditedMorph4.png,010010right.gif,Stimuli/normal_thumbnails/4right.gif,,,,,0,0,0,0,0,83,83,3,,,,,,,,,,,,,,,,,,,,,,,53,84,1,7,2.481365379,0.304673359,4,Experiment,,,,,,,,,111,12,-8,-8,,,,,,,,,,,,,,,936.2464401,936.7408978,936.2464401,936.7408978,89.11564626,1575411069,1575411077,7.384949923,1575411067,1575411069,,,s5,1,33,m,resident,2019_Dec_03_1556,AdjustEyeTrack,3.1.5,60.77074048
143,Stimuli/Morph143.JPG,Stimuli/Morph143.png,Stimuli/BlurLevel5/BlurEditedMorph143,Stimuli/BlurLevel5/BlurEditedMorph143.png,Stimuli/BlurLevel5/NumberedMorphs/BlurEditedMorph143.png,Stimuli/BlurLevel5/OriginalBlur/BlurEditedMorph143.png,Stimuli/BlurMorphTrio/EditedMorph143.png,None,None,,,,,0,0,0,0,0,84,84,142,,,,,,,,,,,,,,,,,,,,,,,7,85,1,77,0.562377636,2.435925162,143,Experiment,,,,,,,,,131,138,5,5,,,,,,,,,,,,,,,946.3771775,946.8741927,946.3771775,946.8741927,93.19727891,1575411079,1575411082,2.166425943,1575411077,1575411079,,,s5,1,33,m,resident,2019_Dec_03_1556,AdjustEyeTrack,3.1.5,60.77074048
85,Stimuli/Morph85.JPG,Stimuli/Morph85.png,Stimuli/BlurLevel5/BlurEditedMorph85,Stimuli/BlurLevel5/BlurEditedMorph85.png,Stimuli/BlurLevel5/NumberedMorphs/BlurEditedMorph85.png,Stimuli/BlurLevel5/OriginalBlur/BlurEditedMorph85.png,Stimuli/BlurMorphTrio/EditedMorph85.png,020264right.gif,Stimuli/normal_thumbnails/85right.gif,,,,,1,0,1,0,0,0,0,84,,,,,,,,,,,,,,,,,,,,,,,96,1,2,300,1.25,-2.165063509,85,Experiment,,,,,,,,,140,115,-30,-30,,,,,,,,,,,,,,,1009.109075,1009.607342,1009.109075,1009.607342,59.18367347,1575411142,1575411147,4.817543983,1575411139,1575411142,space,56.76601493,s5,1,33,m,resident,2019_Dec_03_1556,AdjustEyeTrack,3.1.5,60.77074048
11,Stimuli/Morph11.JPG,Stimuli/Morph11.png,Stimuli/BlurLevel5/BlurEditedMorph11,Stimuli/BlurLevel5/BlurEditedMorph11.png,Stimuli/BlurLevel5/NumberedMorphs/BlurEditedMorph11.png,Stimuli/BlurLevel5/OriginalBlur/BlurEditedMorph11.png,Stimuli/BlurMorphTrio/EditedMorph11.png,010024right.gif,Stimuli/normal_thumbnails/11right.gif,,,,,1,0,1,0,0,1,1,10,,,,,,,,,,,,,,,,,,,,,,,38,2,2,264,-0.261321158,-2.486304738,11,Experiment,,,,,,,,,22,24,-13,-13,,,,,,,,,,,,,,,1016.941096,1017.441691,1016.941096,1017.441691,82.31292517,1575411150,1575411154,3.784111023,1575411147,1575411150,,,s5,1,33,m,resident,2019_Dec_03_1556,AdjustEyeTrack,3.1.5,60.77074048
98,Stimuli/Morph98.JPG,Stimuli/Morph98.png,Stimuli/BlurLevel5/BlurEditedMorph98,Stimuli/BlurLevel5/BlurEditedMorph98.png,Stimuli/BlurLevel5/NumberedMorphs/BlurEditedMorph98.png,Stimuli/BlurLevel5/OriginalBlur/BlurEditedMorph98.png,Stimuli/BlurMorphTrio/EditedMorph98.png,020298right.gif,Stimuli/normal_thumbnails/98right.gif,,,,,1,0,1,0,0,2,2,97,,,,,,,,,,,,,,,,,,,,,,,68,3,2,264,-0.261321158,-2.486304738,98,Experiment,,,,,,,,,13,100,-2,-2,,,,,,,,,,,,,,,1023.431257,1023.923633,1023.431257,1023.923633,97.27891156,1575411156,1575411162,5.566614151,1575411154,1575411156,,,s5,1,33,m,resident,2019_Dec_03_1556,AdjustEyeTrack,3.1.5,60.77074048
14,Stimuli/Morph14.JPG,Stimuli/Morph14.png,Stimuli/BlurLevel5/BlurEditedMorph14,Stimuli/BlurLevel5/BlurEditedMorph14.png,Stimuli/BlurLevel5/NumberedMorphs/BlurEditedMorph14.png,Stimuli/BlurLevel5/OriginalBlur/BlurEditedMorph14.png,Stimuli/BlurMorphTrio/EditedMorph14.png,010030right.gif,Stimuli/normal_thumbnails/14right.gif,,,,,1,0,1,0,0,3,3,13,,,,,,,,,,,,,,,,,,,,,,,18,4,2,171,-2.469220851,0.391086163,14,Experiment,,,,,,,,,128,8,6,6,,,,,,,,,,,,,,,1031.263304,1031.757668,1031.263304,1031.757668,91.83673469,1575411164,1575411166,2.153382778,1575411162,1575411164,,,s5,1,33,m,resident,2019_Dec_03_1556,AdjustEyeTrack,3.1.5,60.77074048
119,Stimuli/Morph119.JPG,Stimuli/Morph119.png,Stimuli/BlurLevel5/BlurEditedMorph119,Stimuli/BlurLevel5/BlurEditedMorph119.png,Stimuli/BlurLevel5/NumberedMorphs/BlurEditedMorph119.png,Stimuli/BlurLevel5/OriginalBlur/BlurEditedMorph119.png,Stimuli/BlurMorphTrio/EditedMorph119.png,None,None,,,,,1,0,1,0,0,4,4,118,,,,,,,,,,,,,,,,,,,,,,,43,5,2,79,0.477022488,2.454067959,119,Experiment,,,,,,,,,88,105,14,14,,,,,,,,,,,,,,,1036.324962,1036.825453,1036.324962,1036.825453,80.95238095,1575411169,1575411172,2.283159018,1575411167,1575411169,,,s5,1,33,m,resident,2019_Dec_03_1556,AdjustEyeTrack,3.1.5,60.77074048
86,Stimuli/Morph86.JPG,Stimuli/Morph86.png,Stimuli/BlurLevel5/BlurEditedMorph86,Stimuli/BlurLevel5/BlurEditedMorph86.png,Stimuli/BlurLevel5/NumberedMorphs/BlurEditedMorph86.png,Stimuli/BlurLevel5/OriginalBlur/BlurEditedMorph86.png,Stimuli/BlurMorphTrio/EditedMorph86.png,020266right.gif,Stimuli/normal_thumbnails/86right.gif,,,,,1,0,1,0,0,5,5,85,,,,,,,,,,,,,,,,,,,,,,,88,6,2,202,-2.317959636,-0.936516484,86,Experiment,,,,,,,,,44,105,-19,-19,,,,,,,,,,,,,,,1041.12373,1041.623,1041.12373,1041.623,74.14965986,1575411174,1575411180,5.765329123,1575411172,1575411174,,,s5,1,33,m,resident,2019_Dec_03_1556,AdjustEyeTrack,3.1.5,60.77074048
38,Stimuli/Morph38.JPG,Stimuli/Morph38.png,Stimuli/BlurLevel5/BlurEditedMorph38,Stimuli/BlurLevel5/BlurEditedMorph38.png,Stimuli/BlurLevel5/NumberedMorphs/BlurEditedMorph38.png,Stimuli/BlurLevel5/OriginalBlur/BlurEditedMorph38.png,Stimuli/BlurMorphTrio/EditedMorph38.png,010108right.gif,Stimuli/normal_thumbnails/38right.gif,,,,,1,0,1,0,0,6,6,37,,,,,,,,,,,,,,,,,,,,,,,14,7,2,98,-0.347932752,2.475670172,38,Experiment,,,,,,,,,93,42,-4,-4,,,,,,,,,,,,,,,1049.925004,1050.422883,1049.925004,1050.422883,94.55782313,1575411183,1575411189,6.219951868,1575411180,1575411183,,,s5,1,33,m,resident,2019_Dec_03_1556,AdjustEyeTrack,3.1.5,60.77074048
130,Stimuli/Morph130.JPG,Stimuli/Morph130.png,Stimuli/BlurLevel5/BlurEditedMorph130,Stimuli/BlurLevel5/BlurEditedMorph130.png,Stimuli/BlurLevel5/NumberedMorphs/BlurEditedMorph130.png,Stimuli/BlurLevel5/OriginalBlur/BlurEditedMorph130.png,Stimuli/BlurMorphTrio/EditedMorph130.png,None,None,,,,,1,0,1,0,0,7,7,129,,,,,,,,,,,,,,,,,,,,,,,28,8,2,323,1.996588775,-1.504537558,130,Experiment,,,,,,,,,31,129,1,1,,,,,,,,,,,,,,,1059.226728,1059.722839,1059.226728,1059.722839,98.63945578,1575411192,1575411200,7.58225584,1575411189,1575411192,,,s5,1,33,m,resident,2019_Dec_03_1556,AdjustEyeTrack,3.1.5,60.77074048
16,Stimuli/Morph16.JPG,Stimuli/Morph16.png,Stimuli/BlurLevel5/BlurEditedMorph16,Stimuli/BlurLevel5/BlurEditedMorph16.png,Stimuli/BlurLevel5/NumberedMorphs/BlurEditedMorph16.png,Stimuli/BlurLevel5/OriginalBlur/BlurEditedMorph16.png,Stimuli/BlurMorphTrio/EditedMorph16.png,010034right.gif,Stimuli/normal_thumbnails/16right.gif,,,,,1,0,1,0,0,8,8,15,,,,,,,,,,,,,,,,,,,,,,,42,9,2,6,2.486304738,0.261321158,16,Experiment,,,,,,,,,83,14,2,2,,,,,,,,,,,,,,,1070.124761,1070.622618,1070.124761,1070.622618,97.27891156,1575411203,1575411208,4.450884104,1575411200,1575411203,,,s5,1,33,m,resident,2019_Dec_03_1556,AdjustEyeTrack,3.1.5,60.77074048
45,Stimuli/Morph45.JPG,Stimuli/Morph45.png,Stimuli/BlurLevel5/BlurEditedMorph45,Stimuli/BlurLevel5/BlurEditedMorph45.png,Stimuli/BlurLevel5/NumberedMorphs/BlurEditedMorph45.png,Stimuli/BlurLevel5/OriginalBlur/BlurEditedMorph45.png,Stimuli/BlurMorphTrio/EditedMorph45.png,010127right.gif,Stimuli/normal_thumbnails/45right.gif,,,,,1,0,1,0,0,9,9,44,,,,,,,,,,,,,,,,,,,,,,,43,10,2,50,1.606969024,1.915111108,45,Experiment,,,,,,,,,67,47,-2,-2,,,,,,,,,,,,,,,1077.524444,1078.055979,1077.524444,1078.055979,97.27891156,1575411211,1575411217,5.934779882,1575411208,1575411211,,,s5,1,33,m,resident,2019_Dec_03_1556,AdjustEyeTrack,3.1.5,60.77074048
92,Stimuli/Morph92.JPG,Stimuli/Morph92.png,Stimuli/BlurLevel5/BlurEditedMorph92,Stimuli/BlurLevel5/BlurEditedMorph92.png,Stimuli/BlurLevel5/NumberedMorphs/BlurEditedMorph92.png,Stimuli/BlurLevel5/OriginalBlur/BlurEditedMorph92.png,Stimuli/BlurMorphTrio/EditedMorph92.png,020277right.gif,Stimuli/normal_thumbnails/92right.gif,,,,,1,0,1,0,0,10,10,91,,,,,,,,,,,,,,,,,,,,,,,100,11,2,209,-2.186549268,-1.212024051,92,Experiment,,,,,,,,,82,110,-18,-18,,,,,,,,,,,,,,,1086.292625,1086.9779,1086.292625,1086.9779,75.51020408,1575411220,1575411225,4.917474031,1575411217,1575411220,,,s5,1,33,m,resident,2019_Dec_03_1556,AdjustEyeTrack,3.1.5,60.77074048
69,Stimuli/Morph69.JPG,Stimuli/Morph69.png,Stimuli/BlurLevel5/BlurEditedMorph69,Stimuli/BlurLevel5/BlurEditedMorph69.png,Stimuli/BlurLevel5/NumberedMorphs/BlurEditedMorph69.png,Stimuli/BlurLevel5/OriginalBlur/BlurEditedMorph69.png,Stimuli/BlurMorphTrio/EditedMorph69.png,020220right.gif,Stimuli/normal_thumbnails/69right.gif,,,,,1,0,1,0,0,11,11,68,,,,,,,,,,,,,,,,,,,,,,,67,12,2,17,2.39076189,0.730929262,69,Experiment,,,,,,,,,39,72,-3,-3,,,,,,,,,,,,,,,1094.588925,1095.307337,1094.588925,1095.307337,95.91836735,1575411228,1575411233,4.83590889,1575411225,1575411228,,,s5,1,33,m,resident,2019_Dec_03_1556,AdjustEyeTrack,3.1.5,60.77074048
115,Stimuli/Morph115.JPG,Stimuli/Morph115.png,Stimuli/BlurLevel5/BlurEditedMorph115,Stimuli/BlurLevel5/BlurEditedMorph115.png,Stimuli/BlurLevel5/NumberedMorphs/BlurEditedMorph115.png,Stimuli/BlurLevel5/OriginalBlur/BlurEditedMorph115.png,Stimuli/BlurMorphTrio/EditedMorph115.png,None,None,,,,,1,0,1,0,0,12,12,114,,,,,,,,,,,,,,,,,,,,,,,76,13,2,317,1.828384254,-1.7049959,115,Experiment,,,,,,,,,86,97,18,18,,,,,,,,,,,,,,,1101.960628,1102.45615,1101.960628,1102.45615,75.51020408,1575411235,1575411238,3.199335098,1575411233,1575411235,,,s5,1,33,m,resident,2019_Dec_03_1556,AdjustEyeTrack,3.1.5,60.77074048
25,Stimuli/Morph25.JPG,Stimuli/Morph25.png,Stimuli/BlurLevel5/BlurEditedMorph25,Stimuli/BlurLevel5/BlurEditedMorph25.png,Stimuli/BlurLevel5/NumberedMorphs/BlurEditedMorph25.png,Stimuli/BlurLevel5/OriginalBlur/BlurEditedMorph25.png,Stimuli/BlurMorphTrio/EditedMorph25.png,010069right.gif,Stimuli/normal_thumbnails/25right.gif,,,,,1,0,1,0,0,13,13,24,,,,,,,,,,,,,,,,,,,,,,,85,14,2,111,-0.895919874,2.333951066,25,Experiment,,,,,,,,,48,15,10,10,,,,,,,,,,,,,,,1107.76036,1108.390055,1107.76036,1108.390055,86.39455782,1575411241,1575411245,4.050662041,1575411239,1575411241,,,s5,1,33,m,resident,2019_Dec_03_1556,AdjustEyeTrack,3.1.5,60.77074048
50,Stimuli/Morph50.JPG,Stimuli/Morph50.png,Stimuli/BlurLevel5/BlurEditedMorph50,Stimuli/BlurLevel5/BlurEditedMorph50.png,Stimuli/BlurLevel5/NumberedMorphs/BlurEditedMorph50.png,Stimuli/BlurLevel5/OriginalBlur/BlurEditedMorph50.png,Stimuli/BlurMorphTrio/EditedMorph50.png,010142right.gif,Stimuli/normal_thumbnails/50right.gif,,,,,1,0,1,0,0,14,14,49,,,,,,,,,,,,,,,,,,,,,,,24,15,2,139,-1.886773951,1.640147572,50,Experiment,,,,,,,,,75,56,-6,-6,,,,,,,,,,,,,,,1115.007978,1115.656875,1115.007978,1115.656875,91.83673469,1575411248,1575411253,5.067430973,1575411246,1575411248,,,s5,1,33,m,resident,2019_Dec_03_1556,AdjustEyeTrack,3.1.5,60.77074048
145,Stimuli/Morph145.JPG,Stimuli/Morph145.png,Stimuli/BlurLevel5/BlurEditedMorph145,Stimuli/BlurLevel5/BlurEditedMorph145.png,Stimuli/BlurLevel5/NumberedMorphs/BlurEditedMorph145.png,Stimuli/BlurLevel5/OriginalBlur/BlurEditedMorph145.png,Stimuli/BlurMorphTrio/EditedMorph145.png,None,None,,,,,1,0,1,0,0,15,15,144,,,,,,,,,,,,,,,,,,,,,,,55,16,2,147,-2.09667642,1.361597588,145,Experiment,,,,,,,,,104,145,0,0,,,,,,,,,,,,,,,1123.3222,1123.888268,1123.3222,1123.888268,100,1575411257,1575411264,7.015414,1575411254,1575411257,,,s5,1,33,m,resident,2019_Dec_03_1556,AdjustEyeTrack,3.1.5,60.77074048
55,Stimuli/Morph55.JPG,Stimuli/Morph55.png,Stimuli/BlurLevel5/BlurEditedMorph55,Stimuli/BlurLevel5/BlurEditedMorph55.png,Stimuli/BlurLevel5/NumberedMorphs/BlurEditedMorph55.png,Stimuli/BlurLevel5/OriginalBlur/BlurEditedMorph55.png,Stimuli/BlurMorphTrio/EditedMorph55.png,010151right.gif,Stimuli/normal_thumbnails/55right.gif,,,,,1,0,1,0,0,16,16,54,,,,,,,,,,,,,,,,,,,,,,,83,17,2,233,-1.504537558,-1.996588775,55,Experiment,,,,,,,,,10,52,3,3,,,,,,,,,,,,,,,1133.756768,1134.255028,1133.756768,1134.255028,95.91836735,1575411267,1575411274,7.43551302,1575411264,1575411267,,,s5,1,33,m,resident,2019_Dec_03_1556,AdjustEyeTrack,3.1.5,60.77074048
60,Stimuli/Morph60.JPG,Stimuli/Morph60.png,Stimuli/BlurLevel5/BlurEditedMorph60,Stimuli/BlurLevel5/BlurEditedMorph60.png,Stimuli/BlurLevel5/NumberedMorphs/BlurEditedMorph60.png,Stimuli/BlurLevel5/OriginalBlur/BlurEditedMorph60.png,Stimuli/BlurMorphTrio/EditedMorph60.png,020200right.gif,Stimuli/normal_thumbnails/60right.gif,,,,,1,0,1,0,0,17,17,59,,,,,,,,,,,,,,,,,,,,,,,14,18,2,109,-0.813920386,2.363796439,60,Experiment,,,,,,,,,124,61,-1,-1,,,,,,,,,,,,,,,1144.288794,1144.855667,1144.288794,1144.855667,98.63945578,1575411278,1575411283,5.380275965,1575411275,1575411278,,,s5,1,33,m,resident,2019_Dec_03_1556,AdjustEyeTrack,3.1.5,60.77074048
13,Stimuli/Morph13.JPG,Stimuli/Morph13.png,Stimuli/BlurLevel5/BlurEditedMorph13,Stimuli/BlurLevel5/BlurEditedMorph13.png,Stimuli/BlurLevel5/NumberedMorphs/BlurEditedMorph13.png,Stimuli/BlurLevel5/OriginalBlur/BlurEditedMorph13.png,Stimuli/BlurMorphTrio/EditedMorph13.png,010027right.gif,Stimuli/normal_thumbnails/13right.gif,,,,,1,0,1,0,0,18,18,12,,,,,,,,,,,,,,,,,,,,,,,91,19,2,184,-2.493910126,-0.174391184,13,Experiment,,,,,,,,,128,33,-20,-20,,,,,,,,,,,,,,,1153.138988,1153.839256,1153.138988,1153.839256,72.78911565,1575411287,1575411292,5.200876951,1575411283,1575411287,,,s5,1,33,m,resident,2019_Dec_03_1556,AdjustEyeTrack,3.1.5,60.77074048
9,Stimuli/Morph9.JPG,Stimuli/Morph9.png,Stimuli/BlurLevel5/BlurEditedMorph9,Stimuli/BlurLevel5/BlurEditedMorph9.png,Stimuli/BlurLevel5/NumberedMorphs/BlurEditedMorph9.png,Stimuli/BlurLevel5/OriginalBlur/BlurEditedMorph9.png,Stimuli/BlurMorphTrio/EditedMorph9.png,010015right.gif,Stimuli/normal_thumbnails/9right.gif,,,,,1,0,1,0,0,19,19,8,,,,,,,,,,,,,,,,,,,,,,,6,20,2,41,1.886773951,1.640147572,9,Experiment,,,,,,,,,104,7,2,2,,,,,,,,,,,,,,,1161.758885,1162.30461,1161.758885,1162.30461,97.27891156,1575411295,1575411299,3.599673033,1575411292,1575411295,,,s5,1,33,m,resident,2019_Dec_03_1556,AdjustEyeTrack,3.1.5,60.77074048
30,Stimuli/Morph30.JPG,Stimuli/Morph30.png,Stimuli/BlurLevel5/BlurEditedMorph30,Stimuli/BlurLevel5/BlurEditedMorph30.png,Stimuli/BlurLevel5/NumberedMorphs/BlurEditedMorph30.png,Stimuli/BlurLevel5/OriginalBlur/BlurEditedMorph30.png,Stimuli/BlurMorphTrio/EditedMorph30.png,010076right.gif,Stimuli/normal_thumbnails/30right.gif,,,,,1,0,1,0,0,20,20,29,,,,,,,,,,,,,,,,,,,,,,,24,21,2,182,-2.498477068,-0.087248742,30,Experiment,,,,,,,,,110,29,1,1,,,,,,,,,,,,,,,1168.657438,1169.322192,1168.657438,1169.322192,98.63945578,1575411302,1575411305,3.449796915,1575411299,1575411302,,,s5,1,33,m,resident,2019_Dec_03_1556,AdjustEyeTrack,3.1.5,60.77074048
80,Stimuli/Morph80.JPG,Stimuli/Morph80.png,Stimuli/BlurLevel5/BlurEditedMorph80,Stimuli/BlurLevel5/BlurEditedMorph80.png,Stimuli/BlurLevel5/NumberedMorphs/BlurEditedMorph80.png,Stimuli/BlurLevel5/OriginalBlur/BlurEditedMorph80.png,Stimuli/BlurMorphTrio/EditedMorph80.png,020240right.gif,Stimuli/normal_thumbnails/80right.gif,,,,,1,0,1,0,0,21,21,79,,,,,,,,,,,,,,,,,,,,,,,11,22,2,245,-1.056545654,-2.265769468,80,Experiment,,,,,,,,,118,100,-20,-20,,,,,,,,,,,,,,,1176.008251,1176.622726,1176.008251,1176.622726,72.78911565,1575411309,1575411318,8.233077049,1575411306,1575411309,,,s5,1,33,m,resident,2019_Dec_03_1556,AdjustEyeTrack,3.1.5,60.77074048
91,Stimuli/Morph91.JPG,Stimuli/Morph91.png,Stimuli/BlurLevel5/BlurEditedMorph91,Stimuli/BlurLevel5/BlurEditedMorph91.png,Stimuli/BlurLevel5/NumberedMorphs/BlurEditedMorph91.png,Stimuli/BlurLevel5/OriginalBlur/BlurEditedMorph91.png,Stimuli/BlurMorphTrio/EditedMorph91.png,020276right.gif,Stimuli/normal_thumbnails/91right.gif,,,,,1,0,1,0,0,22,22,90,,,,,,,,,,,,,,,,,,,,,,,49,23,2,193,-2.435925162,-0.562377636,91,Experiment,,,,,,,,,128,105,-14,-14,,,,,,,,,,,,,,,1187.659739,1188.255709,1187.659739,1188.255709,80.95238095,1575411321,1575411324,3.064288139,1575411318,1575411321,,,s5,1,33,m,resident,2019_Dec_03_1556,AdjustEyeTrack,3.1.5,60.77074048
138,Stimuli/Morph138.JPG,Stimuli/Morph138.png,Stimuli/BlurLevel5/BlurEditedMorph138,Stimuli/BlurLevel5/BlurEditedMorph138.png,Stimuli/BlurLevel5/NumberedMorphs/BlurEditedMorph138.png,Stimuli/BlurLevel5/OriginalBlur/BlurEditedMorph138.png,Stimuli/BlurMorphTrio/EditedMorph138.png,None,None,,,,,1,0,1,0,0,23,23,137,,,,,,,,,,,,,,,,,,,,,,,32,24,2,227,-1.7049959,-1.828384254,138,Experiment,,,,,,,,,75,9,129,-18,,,,,,,,,,,,,,,1193.91095,1194.521301,1193.91095,1194.521301,75.51020408,1575411327,1575411335,7.299641132,1575411325,1575411327,,,s5,1,33,m,resident,2019_Dec_03_1556,AdjustEyeTrack,3.1.5,60.77074048
29,Stimuli/Morph29.JPG,Stimuli/Morph29.png,Stimuli/BlurLevel5/BlurEditedMorph29,Stimuli/BlurLevel5/BlurEditedMorph29.png,Stimuli/BlurLevel5/NumberedMorphs/BlurEditedMorph29.png,Stimuli/BlurLevel5/OriginalBlur/BlurEditedMorph29.png,Stimuli/BlurMorphTrio/EditedMorph29.png,010074right.gif,Stimuli/normal_thumbnails/29right.gif,,,,,1,0,1,0,0,24,24,28,,,,,,,,,,,,,,,,,,,,,,,34,25,2,120,-1.25,2.165063509,29,Experiment,,,,,,,,,37,19,10,10,,,,,,,,,,,,,,,1205.008352,1205.655047,1205.008352,1205.655047,86.39455782,1575411338,1575411344,5.867627859,1575411335,1575411338,,,s5,1,33,m,resident,2019_Dec_03_1556,AdjustEyeTrack,3.1.5,60.77074048
77,Stimuli/Morph77.JPG,Stimuli/Morph77.png,Stimuli/BlurLevel5/BlurEditedMorph77,Stimuli/BlurLevel5/BlurEditedMorph77.png,Stimuli/BlurLevel5/NumberedMorphs/BlurEditedMorph77.png,Stimuli/BlurLevel5/OriginalBlur/BlurEditedMorph77.png,Stimuli/BlurMorphTrio/EditedMorph77.png,020235right.gif,Stimuli/normal_thumbnails/77right.gif,,,,,1,0,1,0,0,25,25,76,,,,,,,,,,,,,,,,,,,,,,,38,26,2,45,1.767766953,1.767766953,77,Experiment,,,,,,,,,62,84,-7,-7,,,,,,,,,,,,,,,1213.731441,1214.290764,1213.731441,1214.290764,90.47619048,1575411347,1575411353,5.616829872,1575411344,1575411347,,,s5,1,33,m,resident,2019_Dec_03_1556,AdjustEyeTrack,3.1.5,60.77074048
22,Stimuli/Morph22.JPG,Stimuli/Morph22.png,Stimuli/BlurLevel5/BlurEditedMorph22,Stimuli/BlurLevel5/BlurEditedMorph22.png,Stimuli/BlurLevel5/NumberedMorphs/BlurEditedMorph22.png,Stimuli/BlurLevel5/OriginalBlur/BlurEditedMorph22.png,Stimuli/BlurMorphTrio/EditedMorph22.png,010055right.gif,Stimuli/normal_thumbnails/22right.gif,,,,,1,0,1,0,0,26,26,21,,,,,,,,,,,,,,,,,,,,,,,27,27,2,215,-2.047880111,-1.433941091,22,Experiment,,,,,,,,,125,15,7,7,,,,,,,,,,,,,,,1222.291265,1222.787619,1222.291265,1222.787619,90.47619048,1575411356,1575411358,2.21756506,1575411353,1575411356,,,s5,1,33,m,resident,2019_Dec_03_1556,AdjustEyeTrack,3.1.5,60.77074048
47,Stimuli/Morph47.JPG,Stimuli/Morph47.png,Stimuli/BlurLevel5/BlurEditedMorph47,Stimuli/BlurLevel5/BlurEditedMorph47.png,Stimuli/BlurLevel5/NumberedMorphs/BlurEditedMorph47.png,Stimuli/BlurLevel5/OriginalBlur/BlurEditedMorph47.png,Stimuli/BlurMorphTrio/EditedMorph47.png,010130right.gif,Stimuli/normal_thumbnails/47right.gif,,,,,1,0,1,0,0,27,27,46,,,,,,,,,,,,,,,,,,,,,,,37,28,2,142,-1.970026884,1.539153688,47,Experiment,,,,,,,,,146,52,-5,-5,,,,,,,,,,,,,,,1227.836938,1228.471814,1227.836938,1228.471814,93.19727891,1575411361,1575411368,7.184400082,1575411358,1575411361,,,s5,1,33,m,resident,2019_Dec_03_1556,AdjustEyeTrack,3.1.5,60.77074048
143,Stimuli/Morph143.JPG,Stimuli/Morph143.png,Stimuli/BlurLevel5/BlurEditedMorph143,Stimuli/BlurLevel5/BlurEditedMorph143.png,Stimuli/BlurLevel5/NumberedMorphs/BlurEditedMorph143.png,Stimuli/BlurLevel5/OriginalBlur/BlurEditedMorph143.png,Stimuli/BlurMorphTrio/EditedMorph143.png,None,None,,,,,1,0,1,0,0,28,28,142,,,,,,,,,,,,,,,,,,,,,,,87,29,2,348,2.445369002,-0.519779227,143,Experiment,,,,,,,,,85,147,-4,-4,,,,,,,,,,,,,,,1238.204284,1238.871643,1238.204284,1238.871643,94.55782313,1575411372,1575411378,6.901919842,1575411369,1575411372,,,s5,1,33,m,resident,2019_Dec_03_1556,AdjustEyeTrack,3.1.5,60.77074048
147,Stimuli/Morph147.JPG,Stimuli/Morph147.png,Stimuli/BlurLevel5/BlurEditedMorph147,Stimuli/BlurLevel5/BlurEditedMorph147.png,Stimuli/BlurLevel5/NumberedMorphs/BlurEditedMorph147.png,Stimuli/BlurLevel5/OriginalBlur/BlurEditedMorph147.png,Stimuli/BlurMorphTrio/EditedMorph147.png,None,None,,,,,1,0,1,0,0,29,29,146,,,,,,,,,,,,,,,,,,,,,,,98,30,2,35,2.047880111,1.433941091,147,Experiment,,,,,,,,,91,146,1,1,,,,,,,,,,,,,,,1248.454842,1249.070479,1248.454842,1249.070479,98.63945578,1575411382,1575411393,11.30051112,1575411379,1575411382,,,s5,1,33,m,resident,2019_Dec_03_1556,AdjustEyeTrack,3.1.5,60.77074048
97,Stimuli/Morph97.JPG,Stimuli/Morph97.png,Stimuli/BlurLevel5/BlurEditedMorph97,Stimuli/BlurLevel5/BlurEditedMorph97.png,Stimuli/BlurLevel5/NumberedMorphs/BlurEditedMorph97.png,Stimuli/BlurLevel5/OriginalBlur/BlurEditedMorph97.png,Stimuli/BlurMorphTrio/EditedMorph97.png,020294right.gif,Stimuli/normal_thumbnails/97right.gif,,,,,1,0,1,0,0,30,30,96,,,,,,,,,,,,,,,,,,,,,,,65,31,2,212,-2.12012024,-1.324798161,97,Experiment,,,,,,,,,117,102,-5,-5,,,,,,,,,,,,,,,1262.842451,1263.420806,1262.842451,1263.420806,93.19727891,1575411396,1575411399,2.41691184,1575411393,1575411396,,,s5,1,33,m,resident,2019_Dec_03_1556,AdjustEyeTrack,3.1.5,60.77074048
84,Stimuli/Morph84.JPG,Stimuli/Morph84.png,Stimuli/BlurLevel5/BlurEditedMorph84,Stimuli/BlurLevel5/BlurEditedMorph84.png,Stimuli/BlurLevel5/NumberedMorphs/BlurEditedMorph84.png,Stimuli/BlurLevel5/OriginalBlur/BlurEditedMorph84.png,Stimuli/BlurMorphTrio/EditedMorph84.png,020261right.gif,Stimuli/normal_thumbnails/84right.gif,,,,,1,0,1,0,0,31,31,83,,,,,,,,,,,,,,,,,,,,,,,46,32,2,125,-1.433941091,2.047880111,84,Experiment,,,,,,,,,82,76,8,8,,,,,,,,,,,,,,,1268.321237,1268.888581,1268.321237,1268.888581,89.11564626,1575411402,1575411405,3.666939974,1575411399,1575411402,,,s5,1,33,m,resident,2019_Dec_03_1556,AdjustEyeTrack,3.1.5,60.77074048
65,Stimuli/Morph65.JPG,Stimuli/Morph65.png,Stimuli/BlurLevel5/BlurEditedMorph65,Stimuli/BlurLevel5/BlurEditedMorph65.png,Stimuli/BlurLevel5/NumberedMorphs/BlurEditedMorph65.png,Stimuli/BlurLevel5/OriginalBlur/BlurEditedMorph65.png,Stimuli/BlurMorphTrio/EditedMorph65.png,020209right.gif,Stimuli/normal_thumbnails/65right.gif,,,,,1,0,1,0,0,32,32,64,,,,,,,,,,,,,,,,,,,,,,,89,33,2,59,1.287595187,2.142918252,65,Experiment,,,,,,,,,29,53,12,12,,,,,,,,,,,,,,,1275.338175,1276.001707,1275.338175,1276.001707,83.67346939,1575411409,1575411412,3.101383209,1575411406,1575411409,,,s5,1,33,m,resident,2019_Dec_03_1556,AdjustEyeTrack,3.1.5,60.77074048
49,Stimuli/Morph49.JPG,Stimuli/Morph49.png,Stimuli/BlurLevel5/BlurEditedMorph49,Stimuli/BlurLevel5/BlurEditedMorph49.png,Stimuli/BlurLevel5/NumberedMorphs/BlurEditedMorph49.png,Stimuli/BlurLevel5/OriginalBlur/BlurEditedMorph49.png,Stimuli/BlurMorphTrio/EditedMorph49.png,010135right.gif,Stimuli/normal_thumbnails/49right.gif,,,,,1,0,1,0,0,33,33,48,,,,,,,,,,,,,,,,,,,,,,,5,34,2,121,-1.287595187,2.142918252,49,Experiment,,,,,,,,,84,46,3,3,,,,,,,,,,,,,,,1281.471886,1282.036317,1281.471886,1282.036317,95.91836735,1575411415,1575411420,4.71629405,1575411412,1575411415,,,s5,1,33,m,resident,2019_Dec_03_1556,AdjustEyeTrack,3.1.5,60.77074048
44,Stimuli/Morph44.JPG,Stimuli/Morph44.png,Stimuli/BlurLevel5/BlurEditedMorph44,Stimuli/BlurLevel5/BlurEditedMorph44.png,Stimuli/BlurLevel5/NumberedMorphs/BlurEditedMorph44.png,Stimuli/BlurLevel5/OriginalBlur/BlurEditedMorph44.png,Stimuli/BlurMorphTrio/EditedMorph44.png,010126right.gif,Stimuli/normal_thumbnails/44right.gif,,,,,1,0,1,0,0,34,34,43,,,,,,,,,,,,,,,,,,,,,,,59,35,2,41,1.886773951,1.640147572,44,Experiment,,,,,,,,,117,51,-7,-7,,,,,,,,,,,,,,,1288.90455,1289.520857,1288.90455,1289.520857,90.47619048,1575411422,1575411427,4.952987909,1575411420,1575411422,,,s5,1,33,m,resident,2019_Dec_03_1556,AdjustEyeTrack,3.1.5,60.77074048
42,Stimuli/Morph42.JPG,Stimuli/Morph42.png,Stimuli/BlurLevel5/BlurEditedMorph42,Stimuli/BlurLevel5/BlurEditedMorph42.png,Stimuli/BlurLevel5/NumberedMorphs/BlurEditedMorph42.png,Stimuli/BlurLevel5/OriginalBlur/BlurEditedMorph42.png,Stimuli/BlurMorphTrio/EditedMorph42.png,010121right.gif,Stimuli/normal_thumbnails/42right.gif,,,,,1,0,1,0,0,35,35,41,,,,,,,,,,,,,,,,,,,,,,,75,36,2,18,2.377641291,0.772542486,42,Experiment,,,,,,,,,95,49,-7,-7,,,,,,,,,,,,,,,1296.655899,1297.304654,1296.655899,1297.304654,90.47619048,1575411430,1575411434,4.451455832,1575411427,1575411430,,,s5,1,33,m,resident,2019_Dec_03_1556,AdjustEyeTrack,3.1.5,60.77074048
52,Stimuli/Morph52.JPG,Stimuli/Morph52.png,Stimuli/BlurLevel5/BlurEditedMorph52,Stimuli/BlurLevel5/BlurEditedMorph52.png,Stimuli/BlurLevel5/NumberedMorphs/BlurEditedMorph52.png,Stimuli/BlurLevel5/OriginalBlur/BlurEditedMorph52.png,Stimuli/BlurMorphTrio/EditedMorph52.png,010148right.gif,Stimuli/normal_thumbnails/52right.gif,,,,,1,0,1,0,0,36,36,51,,,,,,,,,,,,,,,,,,,,,,,46,37,2,0,2.5,0,52,Experiment,,,,,,,,,128,51,1,1,,,,,,,,,,,,,,,1303.806167,1304.40451,1303.806167,1304.40451,98.63945578,1575411437,1575411441,4.124949932,1575411435,1575411437,,,s5,1,33,m,resident,2019_Dec_03_1556,AdjustEyeTrack,3.1.5,60.77074048
37,Stimuli/Morph37.JPG,Stimuli/Morph37.png,Stimuli/BlurLevel5/BlurEditedMorph37,Stimuli/BlurLevel5/BlurEditedMorph37.png,Stimuli/BlurLevel5/NumberedMorphs/BlurEditedMorph37.png,Stimuli/BlurLevel5/OriginalBlur/BlurEditedMorph37.png,Stimuli/BlurMorphTrio/EditedMorph37.png,010097right.gif,Stimuli/normal_thumbnails/37right.gif,,,,,1,0,1,0,0,37,37,36,,,,,,,,,,,,,,,,,,,,,,,41,38,2,121,-1.287595187,2.142918252,37,Experiment,,,,,,,,,90,49,-12,-12,,,,,,,,,,,,,,,1311.340692,1311.888407,1311.340692,1311.888407,83.67346939,1575411444,1575411449,4.901309013,1575411442,1575411444,,,s5,1,33,m,resident,2019_Dec_03_1556,AdjustEyeTrack,3.1.5,60.77074048
3,Stimuli/Morph3.JPG,Stimuli/Morph3.png,Stimuli/BlurLevel5/BlurEditedMorph3,Stimuli/BlurLevel5/BlurEditedMorph3.png,Stimuli/BlurLevel5/NumberedMorphs/BlurEditedMorph3.png,Stimuli/BlurLevel5/OriginalBlur/BlurEditedMorph3.png,Stimuli/BlurMorphTrio/EditedMorph3.png,010009right.gif,Stimuli/normal_thumbnails/3right.gif,,,,,1,0,1,0,0,38,38,2,,,,,,,,,,,,,,,,,,,,,,,14,39,2,220,-1.915111108,-1.606969024,3,Experiment,,,,,,,,,14,127,-124,23,,,,,,,,,,,,,,,1319.472039,1320.003373,1319.472039,1320.003373,68.70748299,1575411453,1575411458,5.849625111,1575411450,1575411453,,,s5,1,33,m,resident,2019_Dec_03_1556,AdjustEyeTrack,3.1.5,60.77074048
20,Stimuli/Morph20.JPG,Stimuli/Morph20.png,Stimuli/BlurLevel5/BlurEditedMorph20,Stimuli/BlurLevel5/BlurEditedMorph20.png,Stimuli/BlurLevel5/NumberedMorphs/BlurEditedMorph20.png,Stimuli/BlurLevel5/OriginalBlur/BlurEditedMorph20.png,Stimuli/BlurMorphTrio/EditedMorph20.png,010046right.gif,Stimuli/normal_thumbnails/20right.gif,,,,,1,0,1,0,0,39,39,19,,,,,,,,,,,,,,,,,,,,,,,64,40,2,326,2.072593931,-1.397982259,20,Experiment,,,,,,,,,129,146,-126,21,,,,,,,,,,,,,,,1328.219403,1328.872008,1328.219403,1328.872008,71.42857143,1575411462,1575411463,1.899563074,1575411459,1575411462,,,s5,1,33,m,resident,2019_Dec_03_1556,AdjustEyeTrack,3.1.5,60.77074048
1,Stimuli/Morph1.JPG,Stimuli/Morph1.png,Stimuli/BlurLevel5/BlurEditedMorph1,Stimuli/BlurLevel5/BlurEditedMorph1.png,Stimuli/BlurLevel5/NumberedMorphs/BlurEditedMorph1.png,Stimuli/BlurLevel5/OriginalBlur/BlurEditedMorph1.png,Stimuli/BlurMorphTrio/EditedMorph1.png,010003right.gif,Stimuli/normal_thumbnails/1right.gif,,,,,1,0,1,0,0,40,40,0,,,,,,,,,,,,,,,,,,,,,,,79,41,2,190,-2.462019383,-0.434120444,1,Experiment,,,,,,,,,80,139,-138,9,,,,,,,,,,,,,,,1333.371843,1333.919059,1333.371843,1333.919059,87.75510204,1575411467,1575411471,4.683246136,1575411464,1575411467,,,s5,1,33,m,resident,2019_Dec_03_1556,AdjustEyeTrack,3.1.5,60.77074048
136,Stimuli/Morph136.JPG,Stimuli/Morph136.png,Stimuli/BlurLevel5/BlurEditedMorph136,Stimuli/BlurLevel5/BlurEditedMorph136.png,Stimuli/BlurLevel5/NumberedMorphs/BlurEditedMorph136.png,Stimuli/BlurLevel5/OriginalBlur/BlurEditedMorph136.png,Stimuli/BlurMorphTrio/EditedMorph136.png,None,None,,,,,1,0,1,0,0,41,41,135,,,,,,,,,,,,,,,,,,,,,,,93,42,2,155,-2.265769468,1.056545654,136,Experiment,,,,,,,,,30,147,-11,-11,,,,,,,,,,,,,,,1341.406188,1342.069466,1341.406188,1342.069466,85.03401361,1575411475,1575411482,6.917705297,1575411472,1575411475,,,s5,1,33,m,resident,2019_Dec_03_1556,AdjustEyeTrack,3.1.5,60.77074048
27,Stimuli/Morph27.JPG,Stimuli/Morph27.png,Stimuli/BlurLevel5/BlurEditedMorph27,Stimuli/BlurLevel5/BlurEditedMorph27.png,Stimuli/BlurLevel5/NumberedMorphs/BlurEditedMorph27.png,Stimuli/BlurLevel5/OriginalBlur/BlurEditedMorph27.png,Stimuli/BlurMorphTrio/EditedMorph27.png,010072right.gif,Stimuli/normal_thumbnails/27right.gif,,,,,1,0,1,0,0,42,42,26,,,,,,,,,,,,,,,,,,,,,,,26,43,2,259,-0.477022488,-2.454067959,27,Experiment,,,,,,,,,70,6,21,21,,,,,,,,,,,,,,,1351.737629,1352.369446,1351.737629,1352.369446,71.42857143,1575411485,1575411493,8.232573271,1575411482,1575411485,,,s5,1,33,m,resident,2019_Dec_03_1556,AdjustEyeTrack,3.1.5,60.77074048
34,Stimuli/Morph34.JPG,Stimuli/Morph34.png,Stimuli/BlurLevel5/BlurEditedMorph34,Stimuli/BlurLevel5/BlurEditedMorph34.png,Stimuli/BlurLevel5/NumberedMorphs/BlurEditedMorph34.png,Stimuli/BlurLevel5/OriginalBlur/BlurEditedMorph34.png,Stimuli/BlurMorphTrio/EditedMorph34.png,010090right.gif,Stimuli/normal_thumbnails/34right.gif,,,,,1,0,1,0,0,43,43,33,,,,,,,,,,,,,,,,,,,,,,,75,44,2,89,0.043631016,2.499619238,34,Experiment,,,,,,,,,68,36,-2,-2,,,,,,,,,,,,,,,1363.071206,1363.685234,1363.071206,1363.685234,97.27891156,1575411496,1575411502,6.250126123,1575411494,1575411496,,,s5,1,33,m,resident,2019_Dec_03_1556,AdjustEyeTrack,3.1.5,60.77074048
64,Stimuli/Morph64.JPG,Stimuli/Morph64.png,Stimuli/BlurLevel5/BlurEditedMorph64,Stimuli/BlurLevel5/BlurEditedMorph64.png,Stimuli/BlurLevel5/NumberedMorphs/BlurEditedMorph64.png,Stimuli/BlurLevel5/OriginalBlur/BlurEditedMorph64.png,Stimuli/BlurMorphTrio/EditedMorph64.png,020208right.gif,Stimuli/normal_thumbnails/64right.gif,,,,,1,0,1,0,0,44,44,63,,,,,,,,,,,,,,,,,,,,,,,73,45,2,200,-2.349231552,-0.855050358,64,Experiment,,,,,,,,,135,60,4,4,,,,,,,,,,,,,,,1372.337649,1373.052279,1372.337649,1373.052279,94.55782313,1575411506,1575411509,3.533657312,1575411503,1575411506,,,s5,1,33,m,resident,2019_Dec_03_1556,AdjustEyeTrack,3.1.5,60.77074048
6,Stimuli/Morph6.JPG,Stimuli/Morph6.png,Stimuli/BlurLevel5/BlurEditedMorph6,Stimuli/BlurLevel5/BlurEditedMorph6.png,Stimuli/BlurLevel5/NumberedMorphs/BlurEditedMorph6.png,Stimuli/BlurLevel5/OriginalBlur/BlurEditedMorph6.png,Stimuli/BlurMorphTrio/EditedMorph6.png,010012right.gif,Stimuli/normal_thumbnails/6right.gif,,,,,1,0,1,0,0,45,45,5,,,,,,,,,,,,,,,,,,,,,,,80,46,2,287,0.730929262,-2.39076189,6,Experiment,,,,,,,,,14,6,0,0,,,,,,,,,,,,,,,1378.789215,1379.402507,1378.789215,1379.402507,100,1575411512,1575411517,5.250120163,1575411510,1575411512,,,s5,1,33,m,resident,2019_Dec_03_1556,AdjustEyeTrack,3.1.5,60.77074048
40,Stimuli/Morph40.JPG,Stimuli/Morph40.png,Stimuli/BlurLevel5/BlurEditedMorph40,Stimuli/BlurLevel5/BlurEditedMorph40.png,Stimuli/BlurLevel5/NumberedMorphs/BlurEditedMorph40.png,Stimuli/BlurLevel5/OriginalBlur/BlurEditedMorph40.png,Stimuli/BlurMorphTrio/EditedMorph40.png,010110right.gif,Stimuli/normal_thumbnails/40right.gif,,,,,1,0,1,0,0,46,46,39,,,,,,,,,,,,,,,,,,,,,,,91,47,2,46,1.736645926,1.798349501,40,Experiment,,,,,,,,,91,40,0,0,,,,,,,,,,,,,,,1387.189997,1387.769936,1387.189997,1387.769936,100,1575411520,1575411524,4.116228104,1575411518,1575411520,,,s5,1,33,m,resident,2019_Dec_03_1556,AdjustEyeTrack,3.1.5,60.77074048
2,Stimuli/Morph2.JPG,Stimuli/Morph2.png,Stimuli/BlurLevel5/BlurEditedMorph2,Stimuli/BlurLevel5/BlurEditedMorph2.png,Stimuli/BlurLevel5/NumberedMorphs/BlurEditedMorph2.png,Stimuli/BlurLevel5/OriginalBlur/BlurEditedMorph2.png,Stimuli/BlurMorphTrio/EditedMorph2.png,010006right.gif,Stimuli/normal_thumbnails/2right.gif,,,,,1,0,1,0,0,47,47,1,,,,,,,,,,,,,,,,,,,,,,,52,48,2,106,-0.68909339,2.40315424,2,Experiment,,,,,,,,,54,2,0,0,,,,,,,,,,,,,,,1394.371235,1394.901722,1394.371235,1394.901722,100,1575411528,1575411533,5.716888666,1575411525,1575411528,,,s5,1,33,m,resident,2019_Dec_03_1556,AdjustEyeTrack,3.1.5,60.77074048
107,Stimuli/Morph107.JPG,Stimuli/Morph107.png,Stimuli/BlurLevel5/BlurEditedMorph107,Stimuli/BlurLevel5/BlurEditedMorph107.png,Stimuli/BlurLevel5/NumberedMorphs/BlurEditedMorph107.png,Stimuli/BlurLevel5/OriginalBlur/BlurEditedMorph107.png,Stimuli/BlurMorphTrio/EditedMorph107.png,None,None,,,,,1,0,1,0,0,48,48,106,,,,,,,,,,,,,,,,,,,,,,,19,49,2,40,1.915111108,1.606969024,107,Experiment,,,,,,,,,7,101,6,6,,,,,,,,,,,,,,,1403.156459,1403.751502,1403.156459,1403.751502,91.83673469,1575411536,1575411541,4.200974941,1575411534,1575411536,,,s5,1,33,m,resident,2019_Dec_03_1556,AdjustEyeTrack,3.1.5,60.77074048
12,Stimuli/Morph12.JPG,Stimuli/Morph12.png,Stimuli/BlurLevel5/BlurEditedMorph12,Stimuli/BlurLevel5/BlurEditedMorph12.png,Stimuli/BlurLevel5/NumberedMorphs/BlurEditedMorph12.png,Stimuli/BlurLevel5/OriginalBlur/BlurEditedMorph12.png,Stimuli/BlurMorphTrio/EditedMorph12.png,010026right.gif,Stimuli/normal_thumbnails/12right.gif,,,,,1,0,1,0,0,49,49,11,,,,,,,,,,,,,,,,,,,,,,,93,50,2,99,-0.391086163,2.469220851,12,Experiment,,,,,,,,,57,3,9,9,,,,,,,,,,,,,,,1411.424949,1412.001054,1411.424949,1412.001054,87.75510204,1575411545,1575411549,4.799537897,1575411541,1575411545,,,s5,1,33,m,resident,2019_Dec_03_1556,AdjustEyeTrack,3.1.5,60.77074048
48,Stimuli/Morph48.JPG,Stimuli/Morph48.png,Stimuli/BlurLevel5/BlurEditedMorph48,Stimuli/BlurLevel5/BlurEditedMorph48.png,Stimuli/BlurLevel5/NumberedMorphs/BlurEditedMorph48.png,Stimuli/BlurLevel5/OriginalBlur/BlurEditedMorph48.png,Stimuli/BlurMorphTrio/EditedMorph48.png,010131right.gif,Stimuli/normal_thumbnails/48right.gif,,,,,1,0,1,0,0,50,50,47,,,,,,,,,,,,,,,,,,,,,,,51,51,2,211,-2.142918252,-1.287595187,48,Experiment,,,,,,,,,83,51,-3,-3,,,,,,,,,,,,,,,1419.656369,1420.318943,1419.656369,1420.318943,95.91836735,1575411553,1575411557,4.083654881,1575411550,1575411553,,,s5,1,33,m,resident,2019_Dec_03_1556,AdjustEyeTrack,3.1.5,60.77074048
68,Stimuli/Morph68.JPG,Stimuli/Morph68.png,Stimuli/BlurLevel5/BlurEditedMorph68,Stimuli/BlurLevel5/BlurEditedMorph68.png,Stimuli/BlurLevel5/NumberedMorphs/BlurEditedMorph68.png,Stimuli/BlurLevel5/OriginalBlur/BlurEditedMorph68.png,Stimuli/BlurMorphTrio/EditedMorph68.png,020218right.gif,Stimuli/normal_thumbnails/68right.gif,,,,,1,0,1,0,0,51,51,67,,,,,,,,,,,,,,,,,,,,,,,34,52,2,68,0.936516484,2.317959636,68,Experiment,,,,,,,,,87,65,3,3,,,,,,,,,,,,,,,1427.601373,1428.103094,1427.601373,1428.103094,95.91836735,1575411561,1575411565,4.699469805,1575411558,1575411561,,,s5,1,33,m,resident,2019_Dec_03_1556,AdjustEyeTrack,3.1.5,60.77074048
117,Stimuli/Morph117.JPG,Stimuli/Morph117.png,Stimuli/BlurLevel5/BlurEditedMorph117,Stimuli/BlurLevel5/BlurEditedMorph117.png,Stimuli/BlurLevel5/NumberedMorphs/BlurEditedMorph117.png,Stimuli/BlurLevel5/OriginalBlur/BlurEditedMorph117.png,Stimuli/BlurMorphTrio/EditedMorph117.png,None,None,,,,,1,0,1,0,0,52,52,116,,,,,,,,,,,,,,,,,,,,,,,32,53,2,19,2.363796439,0.813920386,117,Experiment,,,,,,,,,124,109,8,8,,,,,,,,,,,,,,,1435.118174,1435.785053,1435.118174,1435.785053,89.11564626,1575411569,1575411574,5.033982992,1575411566,1575411569,,,s5,1,33,m,resident,2019_Dec_03_1556,AdjustEyeTrack,3.1.5,60.77074048
123,Stimuli/Morph123.JPG,Stimuli/Morph123.png,Stimuli/BlurLevel5/BlurEditedMorph123,Stimuli/BlurLevel5/BlurEditedMorph123.png,Stimuli/BlurLevel5/NumberedMorphs/BlurEditedMorph123.png,Stimuli/BlurLevel5/OriginalBlur/BlurEditedMorph123.png,Stimuli/BlurMorphTrio/EditedMorph123.png,None,None,,,,,1,0,1,0,0,53,53,122,,,,,,,,,,,,,,,,,,,,,,,74,54,2,159,-2.333951066,0.895919874,123,Experiment,,,,,,,,,54,109,14,14,,,,,,,,,,,,,,,1443.717979,1444.218123,1443.717979,1444.218123,80.95238095,1575411577,1575411581,3.883459091,1575411574,1575411577,,,s5,1,33,m,resident,2019_Dec_03_1556,AdjustEyeTrack,3.1.5,60.77074048
43,Stimuli/Morph43.JPG,Stimuli/Morph43.png,Stimuli/BlurLevel5/BlurEditedMorph43,Stimuli/BlurLevel5/BlurEditedMorph43.png,Stimuli/BlurLevel5/NumberedMorphs/BlurEditedMorph43.png,Stimuli/BlurLevel5/OriginalBlur/BlurEditedMorph43.png,Stimuli/BlurMorphTrio/EditedMorph43.png,010124right.gif,Stimuli/normal_thumbnails/43right.gif,,,,,1,0,1,0,0,54,54,42,,,,,,,,,,,,,,,,,,,,,,,41,55,2,159,-2.333951066,0.895919874,43,Experiment,,,,,,,,,108,52,-9,-9,,,,,,,,,,,,,,,1450.721881,1451.402387,1450.721881,1451.402387,87.75510204,1575411584,1575411591,6.532415152,1575411581,1575411584,,,s5,1,33,m,resident,2019_Dec_03_1556,AdjustEyeTrack,3.1.5,60.77074048
108,Stimuli/Morph108.JPG,Stimuli/Morph108.png,Stimuli/BlurLevel5/BlurEditedMorph108,Stimuli/BlurLevel5/BlurEditedMorph108.png,Stimuli/BlurLevel5/NumberedMorphs/BlurEditedMorph108.png,Stimuli/BlurLevel5/OriginalBlur/BlurEditedMorph108.png,Stimuli/BlurMorphTrio/EditedMorph108.png,None,None,,,,,1,0,1,0,0,55,55,107,,,,,,,,,,,,,,,,,,,,,,,37,56,2,225,-1.767766953,-1.767766953,108,Experiment,,,,,,,,,115,111,-3,-3,,,,,,,,,,,,,,,1460.50781,1461.01786,1460.50781,1461.01786,95.91836735,1575411594,1575411597,2.700412989,1575411591,1575411594,,,s5,1,33,m,resident,2019_Dec_03_1556,AdjustEyeTrack,3.1.5,60.77074048
81,Stimuli/Morph81.JPG,Stimuli/Morph81.png,Stimuli/BlurLevel5/BlurEditedMorph81,Stimuli/BlurLevel5/BlurEditedMorph81.png,Stimuli/BlurLevel5/NumberedMorphs/BlurEditedMorph81.png,Stimuli/BlurLevel5/OriginalBlur/BlurEditedMorph81.png,Stimuli/BlurMorphTrio/EditedMorph81.png,020245right.gif,Stimuli/normal_thumbnails/81right.gif,,,,,1,0,1,0,0,56,56,80,,,,,,,,,,,,,,,,,,,,,,,93,57,2,259,-0.477022488,-2.454067959,81,Experiment,,,,,,,,,59,121,-40,-40,,,,,,,,,,,,,,,1466.918639,1467.535899,1466.918639,1467.535899,45.57823129,1575411600,1575411605,4.201420784,1575411597,1575411600,,,s5,1,33,m,resident,2019_Dec_03_1556,AdjustEyeTrack,3.1.5,60.77074048
101,Stimuli/Morph101.JPG,Stimuli/Morph101.png,Stimuli/BlurLevel5/BlurEditedMorph101,Stimuli/BlurLevel5/BlurEditedMorph101.png,Stimuli/BlurLevel5/NumberedMorphs/BlurEditedMorph101.png,Stimuli/BlurLevel5/OriginalBlur/BlurEditedMorph101.png,Stimuli/BlurMorphTrio/EditedMorph101.png,None,None,,,,,1,0,1,0,0,57,57,100,,,,,,,,,,,,,,,,,,,,,,,69,58,2,284,0.604804739,-2.425739316,101,Experiment,,,,,,,,,66,96,5,5,,,,,,,,,,,,,,,1475.052511,1475.703165,1475.052511,1475.703165,93.19727891,1575411608,1575411611,2.41390729,1575411605,1575411608,,,s5,1,33,m,resident,2019_Dec_03_1556,AdjustEyeTrack,3.1.5,60.77074048
134,Stimuli/Morph134.JPG,Stimuli/Morph134.png,Stimuli/BlurLevel5/BlurEditedMorph134,Stimuli/BlurLevel5/BlurEditedMorph134.png,Stimuli/BlurLevel5/NumberedMorphs/BlurEditedMorph134.png,Stimuli/BlurLevel5/OriginalBlur/BlurEditedMorph134.png,Stimuli/BlurMorphTrio/EditedMorph134.png,None,None,,,,,1,0,1,0,0,58,58,133,,,,,,,,,,,,,,,,,,,,,,,100,59,2,73,0.730929262,2.39076189,134,Experiment,,,,,,,,,102,140,-6,-6,,,,,,,,,,,,,,,1480.719902,1481.434156,1480.719902,1481.434156,91.83673469,1575411614,1575411620,5.500750065,1575411611,1575411614,,,s5,1,33,m,resident,2019_Dec_03_1556,AdjustEyeTrack,3.1.5,60.77074048
57,Stimuli/Morph57.JPG,Stimuli/Morph57.png,Stimuli/BlurLevel5/BlurEditedMorph57,Stimuli/BlurLevel5/BlurEditedMorph57.png,Stimuli/BlurLevel5/NumberedMorphs/BlurEditedMorph57.png,Stimuli/BlurLevel5/OriginalBlur/BlurEditedMorph57.png,Stimuli/BlurMorphTrio/EditedMorph57.png,010158right.gif,Stimuli/normal_thumbnails/57right.gif,,,,,1,0,1,0,0,59,59,56,,,,,,,,,,,,,,,,,,,,,,,86,60,2,65,1.056545654,2.265769468,57,Experiment,,,,,,,,,52,59,-2,-2,,,,,,,,,,,,,,,1489.734045,1490.235759,1489.734045,1490.235759,97.27891156,1575411623,1575411626,3.281378031,1575411620,1575411623,,,s5,1,33,m,resident,2019_Dec_03_1556,AdjustEyeTrack,3.1.5,60.77074048
