stimulusID,stimulus_JPG,stimulusPath,stimulusPath2,stimulusPath3,stimulusPath4,stimulusPath5,stimulusPath6,xRayOriginal,xRayPath,Training.thisRepN,Training.thisTrialN,Training.thisN,Training.thisIndex,Blocks.thisRepN,Blocks.thisTrialN,Blocks.thisN,Blocks.thisIndex,Trials.thisRepN,Trials.thisTrialN,Trials.thisN,Trials.thisIndex,text_2.started,text_2.stopped,image.started,image.stopped,image_2.started,image_2.stopped,image_3.started,image_3.stopped,image_4.started,image_4.stopped,image_6.started,image_6.stopped,image_7.started,image_7.stopped,image_8.started,image_8.stopped,image_9.started,image_9.stopped,image_10.started,image_10.stopped,image_12.started,image_12.stopped,xrayID,trialNumber,blockNumber,stimLocationDeg,stimXCoord,stimYCoord,stimulusID,blockType,trainingXray.started,trainingXray.stopped,trainingTumors.started,trainingTumors.stopped,trainingScore%,startTrainingRespTime,endTrainingRespTime,trainingRT,morphTrack,morphID,errorRaw,errorCorrected,startTrainingStimTime,endTrainingStimTime,key_resp_3.keys,key_resp_3.rt,text.started,text.stopped,text_3.started,text_3.stopped,text_4.started,text_4.stopped,key_resp_5.keys,key_resp_5.rt,key_resp_5.started,key_resp_5.stopped,xray1.started,xray1.stopped,tumors.started,tumors.stopped,trialCorrect%,startRespTime,endRespTime,RT,startStimTime,endStimTime,key_resp.keys,key_resp.rt,participant,session,age,gender,status,date,expName,psychopyVersion,frameRate
13,Stimuli/Morph13.JPG,Stimuli/Morph13.png,Stimuli/BlurLevel5/BlurEditedMorph13,Stimuli/BlurLevel5/BlurEditedMorph13.png,Stimuli/BlurLevel5/NumberedMorphs/BlurEditedMorph13.png,Stimuli/BlurLevel5/OriginalBlur/BlurEditedMorph13.png,Stimuli/BlurMorphTrio/EditedMorph13.png,010027right.gif,Stimuli/normal_thumbnails/13right.gif,0,0,0,12,,,,,,,,,50.67525288,None,50.67525288,None,50.67525288,None,50.67525288,None,50.67525288,None,50.67525288,None,50.67525288,None,50.67525288,None,50.67525288,None,50.67525288,None,50.67525288,None,64,-100,-100,347,2.435925162,-0.562377636,13,training,74.17972297,74.68813621,74.17972297,74.68813621,14.28571429,1575471792,1575471797,5.669670105,84,97,-84,63,1575471789,1575471792,space,8.459295709,,,,,,,,,,,,,,,,,,,,,,,S6,1,51,m,expert radiologist,2019_Dec_04_0902,AdjustEyeTrack,3.1.5,59.98039169
132,Stimuli/Morph132.JPG,Stimuli/Morph132.png,Stimuli/BlurLevel5/BlurEditedMorph132,Stimuli/BlurLevel5/BlurEditedMorph132.png,Stimuli/BlurLevel5/NumberedMorphs/BlurEditedMorph132.png,Stimuli/BlurLevel5/OriginalBlur/BlurEditedMorph132.png,Stimuli/BlurMorphTrio/EditedMorph132.png,None,None,0,1,1,131,,,,,,,,,,,,,,,,,,,,,,,,,,,,,,,14,-100,-100,169,-2.454067959,0.477022488,132,training,91.1037223,91.60402168,91.1037223,91.60402168,85.03401361,1575471809,1575471812,3.384143829,113,121,11,11,1575471806,1575471809,space,5.085982814,,,,,,,,,,,,,,,,,,,,,,,S6,1,51,m,expert radiologist,2019_Dec_04_0902,AdjustEyeTrack,3.1.5,59.98039169
18,Stimuli/Morph18.JPG,Stimuli/Morph18.png,Stimuli/BlurLevel5/BlurEditedMorph18,Stimuli/BlurLevel5/BlurEditedMorph18.png,Stimuli/BlurLevel5/NumberedMorphs/BlurEditedMorph18.png,Stimuli/BlurLevel5/OriginalBlur/BlurEditedMorph18.png,Stimuli/BlurMorphTrio/EditedMorph18.png,010039right.gif,Stimuli/normal_thumbnails/18right.gif,0,2,2,17,,,,,,,,,,,,,,,,,,,,,,,,,,,,,,,55,-100,-100,298,1.173678907,-2.207368982,18,training,102.0225693,102.5364967,102.0225693,102.5364967,74.14965986,1575471820,1575471827,7.566048861,146,146,-128,19,1575471817,1575471820,space,5.14607244,,,,,,,,,,,,,,,,,,,,,,,S6,1,51,m,expert radiologist,2019_Dec_04_0902,AdjustEyeTrack,3.1.5,59.98039169
47,Stimuli/Morph47.JPG,Stimuli/Morph47.png,Stimuli/BlurLevel5/BlurEditedMorph47,Stimuli/BlurLevel5/BlurEditedMorph47.png,Stimuli/BlurLevel5/NumberedMorphs/BlurEditedMorph47.png,Stimuli/BlurLevel5/OriginalBlur/BlurEditedMorph47.png,Stimuli/BlurMorphTrio/EditedMorph47.png,010130right.gif,Stimuli/normal_thumbnails/47right.gif,0,3,3,46,,,,,,,,,,,,,,,,,,,,,,,,,,,,,,,23,-100,-100,195,-2.414814566,-0.647047613,47,training,117.6712155,118.1704428,117.6712155,118.1704428,86.39455782,1575471835,1575471838,2.68311286,120,37,10,10,1575471832,1575471835,space,2.397933601,,,,,,,,,,,,,,,,,,,,,,,S6,1,51,m,expert radiologist,2019_Dec_04_0902,AdjustEyeTrack,3.1.5,59.98039169
9,Stimuli/Morph9.JPG,Stimuli/Morph9.png,Stimuli/BlurLevel5/BlurEditedMorph9,Stimuli/BlurLevel5/BlurEditedMorph9.png,Stimuli/BlurLevel5/NumberedMorphs/BlurEditedMorph9.png,Stimuli/BlurLevel5/OriginalBlur/BlurEditedMorph9.png,Stimuli/BlurMorphTrio/EditedMorph9.png,010015right.gif,Stimuli/normal_thumbnails/9right.gif,0,4,4,8,,,,,,,,,,,,,,,,,,,,,,,,,,,,,,,17,-100,-100,18,2.377641291,0.772542486,9,training,125.4120158,125.9366464,125.4120158,125.9366464,87.75510204,1575471843,1575471845,1.666760921,18,18,-9,-9,1575471840,1575471843,space,1.199901105,,,,,,,,,,,,,,,,,,,,,,,S6,1,51,m,expert radiologist,2019_Dec_04_0902,AdjustEyeTrack,3.1.5,59.98039169
79,Stimuli/Morph79.JPG,Stimuli/Morph79.png,Stimuli/BlurLevel5/BlurEditedMorph79,Stimuli/BlurLevel5/BlurEditedMorph79.png,Stimuli/BlurLevel5/NumberedMorphs/BlurEditedMorph79.png,Stimuli/BlurLevel5/OriginalBlur/BlurEditedMorph79.png,Stimuli/BlurMorphTrio/EditedMorph79.png,020239right.gif,Stimuli/normal_thumbnails/79right.gif,0,5,5,78,,,,,,,,,,,,,,,,,,,,,,,,,,,,,,,87,-100,-100,145,-2.047880111,1.433941091,79,training,130.9401141,131.4381266,130.9401141,131.4381266,23.80952381,1575471848,1575471854,5.983420849,45,135,-56,-56,1575471846,1575471848,space,8.013047883,,,,,,,,,,,,,,,,,,,,,,,S6,1,51,m,expert radiologist,2019_Dec_04_0902,AdjustEyeTrack,3.1.5,59.98039169
71,Stimuli/Morph71.JPG,Stimuli/Morph71.png,Stimuli/BlurLevel5/BlurEditedMorph71,Stimuli/BlurLevel5/BlurEditedMorph71.png,Stimuli/BlurLevel5/NumberedMorphs/BlurEditedMorph71.png,Stimuli/BlurLevel5/OriginalBlur/BlurEditedMorph71.png,Stimuli/BlurMorphTrio/EditedMorph71.png,020225right.gif,Stimuli/normal_thumbnails/71right.gif,0,6,6,70,,,,,,,,,,,,,,,,,,,,,,,,,,,,,,,52,-100,-100,74,0.68909339,2.40315424,71,training,147.1690901,147.6866922,147.1690901,147.6866922,83.67346939,1575471865,1575471867,2.366801023,18,83,-12,-12,1575471863,1575471865,space,1.247981965,,,,,,,,,,,,,,,,,,,,,,,S6,1,51,m,expert radiologist,2019_Dec_04_0902,AdjustEyeTrack,3.1.5,59.98039169
113,Stimuli/Morph113.JPG,Stimuli/Morph113.png,Stimuli/BlurLevel5/BlurEditedMorph113,Stimuli/BlurLevel5/BlurEditedMorph113.png,Stimuli/BlurLevel5/NumberedMorphs/BlurEditedMorph113.png,Stimuli/BlurLevel5/OriginalBlur/BlurEditedMorph113.png,Stimuli/BlurMorphTrio/EditedMorph113.png,None,None,0,7,7,112,,,,,,,,,,,,,,,,,,,,,,,,,,,,,,,78,-100,-100,76,0.604804739,2.425739316,113,training,153.2720603,153.7871812,153.2720603,153.7871812,83.67346939,1575471871,1575471878,6.73309207,147,125,-12,-12,1575471868,1575471871,space,1.746099721,,,,,,,,,,,,,,,,,,,,,,,S6,1,51,m,expert radiologist,2019_Dec_04_0902,AdjustEyeTrack,3.1.5,59.98039169
72,Stimuli/Morph72.JPG,Stimuli/Morph72.png,Stimuli/BlurLevel5/BlurEditedMorph72,Stimuli/BlurLevel5/BlurEditedMorph72.png,Stimuli/BlurLevel5/NumberedMorphs/BlurEditedMorph72.png,Stimuli/BlurLevel5/OriginalBlur/BlurEditedMorph72.png,Stimuli/BlurMorphTrio/EditedMorph72.png,020227right.gif,Stimuli/normal_thumbnails/72right.gif,0,8,8,71,,,,,,,,,,,,,,,,,,,,,,,,,,,,,,,10,-100,-100,15,2.414814566,0.647047613,72,training,164.3859331,164.8854801,164.3859331,164.8854801,91.83673469,1575471882,1575471889,6.649566889,46,78,-6,-6,1575471879,1575471882,space,1.266716448,,,,,,,,,,,,,,,,,,,,,,,S6,1,51,m,expert radiologist,2019_Dec_04_0902,AdjustEyeTrack,3.1.5,59.98039169
21,Stimuli/Morph21.JPG,Stimuli/Morph21.png,Stimuli/BlurLevel5/BlurEditedMorph21,Stimuli/BlurLevel5/BlurEditedMorph21.png,Stimuli/BlurLevel5/NumberedMorphs/BlurEditedMorph21.png,Stimuli/BlurLevel5/OriginalBlur/BlurEditedMorph21.png,Stimuli/BlurMorphTrio/EditedMorph21.png,010049right.gif,Stimuli/normal_thumbnails/21right.gif,0,9,9,20,,,,,,,,,,,,,,,,,,,,,,,,,,,,,,,52,-100,-100,237,-1.361597588,-2.09667642,21,training,174.4945587,175.0189293,174.4945587,175.0189293,85.03401361,1575471892,1575471894,1.815850973,129,32,-11,-11,1575471890,1575471892,space,0.984150367,,,,,,,,,,,,,,,,,,,,,,,S6,1,51,m,expert radiologist,2019_Dec_04_0902,AdjustEyeTrack,3.1.5,59.98039169
,,,,,,,,,,,,,,,,,,,,,,,,,,,,,,,,,,,,,,,,,,,,,-100,-100,,,,,training,,,,,,,,,,,,,,,,,178.9853969,None,178.9853969,None,178.9853969,None,space,5.001861925,178.9853969,None,,,,,,,,,,,,,S6,1,51,m,expert radiologist,2019_Dec_04_0902,AdjustEyeTrack,3.1.5,59.98039169
118,Stimuli/Morph118.JPG,Stimuli/Morph118.png,Stimuli/BlurLevel5/BlurEditedMorph118,Stimuli/BlurLevel5/BlurEditedMorph118.png,Stimuli/BlurLevel5/NumberedMorphs/BlurEditedMorph118.png,Stimuli/BlurLevel5/OriginalBlur/BlurEditedMorph118.png,Stimuli/BlurMorphTrio/EditedMorph118.png,None,None,,,,,0,0,0,0,0,0,0,117,,,,,,,,,,,,,,,,,,,,,,,42,1,1,349,2.454067959,-0.477022488,118,Experiment,,,,,,,,,64,122,-4,-4,,,,,,,,,,,,,,,185.8282241,186.3365788,185.8282241,186.3365788,94.55782313,1575471903,1575471906,3.065667152,1575471900,1575471903,,,S6,1,51,m,expert radiologist,2019_Dec_04_0902,AdjustEyeTrack,3.1.5,59.98039169
30,Stimuli/Morph30.JPG,Stimuli/Morph30.png,Stimuli/BlurLevel5/BlurEditedMorph30,Stimuli/BlurLevel5/BlurEditedMorph30.png,Stimuli/BlurLevel5/NumberedMorphs/BlurEditedMorph30.png,Stimuli/BlurLevel5/OriginalBlur/BlurEditedMorph30.png,Stimuli/BlurMorphTrio/EditedMorph30.png,010076right.gif,Stimuli/normal_thumbnails/30right.gif,,,,,0,0,0,0,0,1,1,29,,,,,,,,,,,,,,,,,,,,,,,51,2,1,238,-1.324798161,-2.12012024,30,Experiment,,,,,,,,,30,32,-2,-2,,,,,,,,,,,,,,,191.9321857,192.4552063,191.9321857,192.4552063,97.27891156,1575471909,1575471912,2.583747149,1575471907,1575471909,,,S6,1,51,m,expert radiologist,2019_Dec_04_0902,AdjustEyeTrack,3.1.5,59.98039169
80,Stimuli/Morph80.JPG,Stimuli/Morph80.png,Stimuli/BlurLevel5/BlurEditedMorph80,Stimuli/BlurLevel5/BlurEditedMorph80.png,Stimuli/BlurLevel5/NumberedMorphs/BlurEditedMorph80.png,Stimuli/BlurLevel5/OriginalBlur/BlurEditedMorph80.png,Stimuli/BlurMorphTrio/EditedMorph80.png,020240right.gif,Stimuli/normal_thumbnails/80right.gif,,,,,0,0,0,0,0,2,2,79,,,,,,,,,,,,,,,,,,,,,,,19,3,1,100,-0.434120444,2.462019383,80,Experiment,,,,,,,,,18,122,-42,-42,,,,,,,,,,,,,,,197.8032495,198.4560418,197.8032495,198.4560418,42.85714286,1575471915,1575471923,7.867426157,1575471912,1575471915,,,S6,1,51,m,expert radiologist,2019_Dec_04_0902,AdjustEyeTrack,3.1.5,59.98039169
41,Stimuli/Morph41.JPG,Stimuli/Morph41.png,Stimuli/BlurLevel5/BlurEditedMorph41,Stimuli/BlurLevel5/BlurEditedMorph41.png,Stimuli/BlurLevel5/NumberedMorphs/BlurEditedMorph41.png,Stimuli/BlurLevel5/OriginalBlur/BlurEditedMorph41.png,Stimuli/BlurMorphTrio/EditedMorph41.png,010112right.gif,Stimuli/normal_thumbnails/41right.gif,,,,,0,0,0,0,0,3,3,40,,,,,,,,,,,,,,,,,,,,,,,47,4,1,234,-1.469463131,-2.022542486,41,Experiment,,,,,,,,,41,41,0,0,,,,,,,,,,,,,,,208.952664,209.4525732,208.952664,209.4525732,100,1575471926,1575471927,0.950078249,1575471924,1575471926,,,S6,1,51,m,expert radiologist,2019_Dec_04_0902,AdjustEyeTrack,3.1.5,59.98039169
122,Stimuli/Morph122.JPG,Stimuli/Morph122.png,Stimuli/BlurLevel5/BlurEditedMorph122,Stimuli/BlurLevel5/BlurEditedMorph122.png,Stimuli/BlurLevel5/NumberedMorphs/BlurEditedMorph122.png,Stimuli/BlurLevel5/OriginalBlur/BlurEditedMorph122.png,Stimuli/BlurMorphTrio/EditedMorph122.png,None,None,,,,,0,0,0,0,0,4,4,121,,,,,,,,,,,,,,,,,,,,,,,45,5,1,116,-1.095927867,2.246985116,122,Experiment,,,,,,,,,83,131,-9,-9,,,,,,,,,,,,,,,212.5231206,213.0351763,212.5231206,213.0351763,87.75510204,1575471930,1575471935,4.533398151,1575471928,1575471930,,,S6,1,51,m,expert radiologist,2019_Dec_04_0902,AdjustEyeTrack,3.1.5,59.98039169
7,Stimuli/Morph7.JPG,Stimuli/Morph7.png,Stimuli/BlurLevel5/BlurEditedMorph7,Stimuli/BlurLevel5/BlurEditedMorph7.png,Stimuli/BlurLevel5/NumberedMorphs/BlurEditedMorph7.png,Stimuli/BlurLevel5/OriginalBlur/BlurEditedMorph7.png,Stimuli/BlurMorphTrio/EditedMorph7.png,010013right.gif,Stimuli/normal_thumbnails/7right.gif,,,,,0,0,0,0,0,5,5,6,,,,,,,,,,,,,,,,,,,,,,,17,6,1,121,-1.287595187,2.142918252,7,Experiment,,,,,,,,,62,25,-18,-18,,,,,,,,,,,,,,,220.1783714,220.6679907,220.1783714,220.6679907,75.51020408,1575471938,1575471943,5.467114925,1575471935,1575471938,,,S6,1,51,m,expert radiologist,2019_Dec_04_0902,AdjustEyeTrack,3.1.5,59.98039169
63,Stimuli/Morph63.JPG,Stimuli/Morph63.png,Stimuli/BlurLevel5/BlurEditedMorph63,Stimuli/BlurLevel5/BlurEditedMorph63.png,Stimuli/BlurLevel5/NumberedMorphs/BlurEditedMorph63.png,Stimuli/BlurLevel5/OriginalBlur/BlurEditedMorph63.png,Stimuli/BlurMorphTrio/EditedMorph63.png,020206right.gif,Stimuli/normal_thumbnails/63right.gif,,,,,0,0,0,0,0,6,6,62,,,,,,,,,,,,,,,,,,,,,,,64,7,1,126,-1.469463131,2.022542486,63,Experiment,,,,,,,,,66,66,-3,-3,,,,,,,,,,,,,,,228.0726766,228.5862704,228.0726766,228.5862704,95.91836735,1575471946,1575471947,0.932450056,1575471943,1575471946,,,S6,1,51,m,expert radiologist,2019_Dec_04_0902,AdjustEyeTrack,3.1.5,59.98039169
53,Stimuli/Morph53.JPG,Stimuli/Morph53.png,Stimuli/BlurLevel5/BlurEditedMorph53,Stimuli/BlurLevel5/BlurEditedMorph53.png,Stimuli/BlurLevel5/NumberedMorphs/BlurEditedMorph53.png,Stimuli/BlurLevel5/OriginalBlur/BlurEditedMorph53.png,Stimuli/BlurMorphTrio/EditedMorph53.png,010149right.gif,Stimuli/normal_thumbnails/53right.gif,,,,,0,0,0,0,0,7,7,52,,,,,,,,,,,,,,,,,,,,,,,84,8,1,280,0.434120444,-2.462019383,53,Experiment,,,,,,,,,45,69,-16,-16,,,,,,,,,,,,,,,231.7354638,232.2361021,231.7354638,232.2361021,78.23129252,1575471949,1575471952,2.283324003,1575471947,1575471949,,,S6,1,51,m,expert radiologist,2019_Dec_04_0902,AdjustEyeTrack,3.1.5,59.98039169
25,Stimuli/Morph25.JPG,Stimuli/Morph25.png,Stimuli/BlurLevel5/BlurEditedMorph25,Stimuli/BlurLevel5/BlurEditedMorph25.png,Stimuli/BlurLevel5/NumberedMorphs/BlurEditedMorph25.png,Stimuli/BlurLevel5/OriginalBlur/BlurEditedMorph25.png,Stimuli/BlurMorphTrio/EditedMorph25.png,010069right.gif,Stimuli/normal_thumbnails/25right.gif,,,,,0,0,0,0,0,8,8,24,,,,,,,,,,,,,,,,,,,,,,,10,9,1,212,-2.12012024,-1.324798161,25,Experiment,,,,,,,,,3,25,0,0,,,,,,,,,,,,,,,237.0349971,237.5358943,237.0349971,237.5358943,100,1575471955,1575471956,1.917104006,1575471952,1575471955,,,S6,1,51,m,expert radiologist,2019_Dec_04_0902,AdjustEyeTrack,3.1.5,59.98039169
4,Stimuli/Morph4.JPG,Stimuli/Morph4.png,Stimuli/BlurLevel5/BlurEditedMorph4,Stimuli/BlurLevel5/BlurEditedMorph4.png,Stimuli/BlurLevel5/NumberedMorphs/BlurEditedMorph4.png,Stimuli/BlurLevel5/OriginalBlur/BlurEditedMorph4.png,Stimuli/BlurMorphTrio/EditedMorph4.png,010010right.gif,Stimuli/normal_thumbnails/4right.gif,,,,,0,0,0,0,0,9,9,3,,,,,,,,,,,,,,,,,,,,,,,61,10,1,112,-0.936516484,2.317959636,4,Experiment,,,,,,,,,89,10,-6,-6,,,,,,,,,,,,,,,242.1045852,242.601096,242.1045852,242.601096,91.83673469,1575471960,1575471963,2.915892839,1575471957,1575471960,,,S6,1,51,m,expert radiologist,2019_Dec_04_0902,AdjustEyeTrack,3.1.5,59.98039169
65,Stimuli/Morph65.JPG,Stimuli/Morph65.png,Stimuli/BlurLevel5/BlurEditedMorph65,Stimuli/BlurLevel5/BlurEditedMorph65.png,Stimuli/BlurLevel5/NumberedMorphs/BlurEditedMorph65.png,Stimuli/BlurLevel5/OriginalBlur/BlurEditedMorph65.png,Stimuli/BlurMorphTrio/EditedMorph65.png,020209right.gif,Stimuli/normal_thumbnails/65right.gif,,,,,0,0,0,0,0,10,10,64,,,,,,,,,,,,,,,,,,,,,,,7,11,1,37,1.996588775,1.504537558,65,Experiment,,,,,,,,,140,78,-13,-13,,,,,,,,,,,,,,,247.723796,248.2359505,247.723796,248.2359505,82.31292517,1575471965,1575471968,2.50001502,1575471963,1575471965,,,S6,1,51,m,expert radiologist,2019_Dec_04_0902,AdjustEyeTrack,3.1.5,59.98039169
119,Stimuli/Morph119.JPG,Stimuli/Morph119.png,Stimuli/BlurLevel5/BlurEditedMorph119,Stimuli/BlurLevel5/BlurEditedMorph119.png,Stimuli/BlurLevel5/NumberedMorphs/BlurEditedMorph119.png,Stimuli/BlurLevel5/OriginalBlur/BlurEditedMorph119.png,Stimuli/BlurMorphTrio/EditedMorph119.png,None,None,,,,,0,0,0,0,0,11,11,118,,,,,,,,,,,,,,,,,,,,,,,33,12,1,28,2.207368982,1.173678907,119,Experiment,,,,,,,,,76,126,-7,-7,,,,,,,,,,,,,,,253.0357301,253.5353491,253.0357301,253.5353491,90.47619048,1575471971,1575471974,2.940575123,1575471968,1575471971,,,S6,1,51,m,expert radiologist,2019_Dec_04_0902,AdjustEyeTrack,3.1.5,59.98039169
27,Stimuli/Morph27.JPG,Stimuli/Morph27.png,Stimuli/BlurLevel5/BlurEditedMorph27,Stimuli/BlurLevel5/BlurEditedMorph27.png,Stimuli/BlurLevel5/NumberedMorphs/BlurEditedMorph27.png,Stimuli/BlurLevel5/OriginalBlur/BlurEditedMorph27.png,Stimuli/BlurMorphTrio/EditedMorph27.png,010072right.gif,Stimuli/normal_thumbnails/27right.gif,,,,,0,0,0,0,0,12,12,26,,,,,,,,,,,,,,,,,,,,,,,49,13,1,190,-2.462019383,-0.434120444,27,Experiment,,,,,,,,,27,27,0,0,,,,,,,,,,,,,,,258.7920201,259.284584,258.7920201,259.284584,100,1575471976,1575471977,0.68257308,1575471974,1575471976,,,S6,1,51,m,expert radiologist,2019_Dec_04_0902,AdjustEyeTrack,3.1.5,59.98039169
40,Stimuli/Morph40.JPG,Stimuli/Morph40.png,Stimuli/BlurLevel5/BlurEditedMorph40,Stimuli/BlurLevel5/BlurEditedMorph40.png,Stimuli/BlurLevel5/NumberedMorphs/BlurEditedMorph40.png,Stimuli/BlurLevel5/OriginalBlur/BlurEditedMorph40.png,Stimuli/BlurMorphTrio/EditedMorph40.png,010110right.gif,Stimuli/normal_thumbnails/40right.gif,,,,,0,0,0,0,0,13,13,39,,,,,,,,,,,,,,,,,,,,,,,72,14,1,256,-0.604804739,-2.425739316,40,Experiment,,,,,,,,,104,34,6,6,,,,,,,,,,,,,,,261.9031254,262.4014395,261.9031254,262.4014395,91.83673469,1575471979,1575471984,4.282800198,1575471977,1575471979,,,S6,1,51,m,expert radiologist,2019_Dec_04_0902,AdjustEyeTrack,3.1.5,59.98039169
67,Stimuli/Morph67.JPG,Stimuli/Morph67.png,Stimuli/BlurLevel5/BlurEditedMorph67,Stimuli/BlurLevel5/BlurEditedMorph67.png,Stimuli/BlurLevel5/NumberedMorphs/BlurEditedMorph67.png,Stimuli/BlurLevel5/OriginalBlur/BlurEditedMorph67.png,Stimuli/BlurMorphTrio/EditedMorph67.png,020217right.gif,Stimuli/normal_thumbnails/67right.gif,,,,,0,0,0,0,0,14,14,66,,,,,,,,,,,,,,,,,,,,,,,69,15,1,107,-0.730929262,2.39076189,67,Experiment,,,,,,,,,3,73,-6,-6,,,,,,,,,,,,,,,269.1560754,269.6503607,269.1560754,269.6503607,91.83673469,1575471987,1575471989,2.265603065,1575471984,1575471987,,,S6,1,51,m,expert radiologist,2019_Dec_04_0902,AdjustEyeTrack,3.1.5,59.98039169
114,Stimuli/Morph114.JPG,Stimuli/Morph114.png,Stimuli/BlurLevel5/BlurEditedMorph114,Stimuli/BlurLevel5/BlurEditedMorph114.png,Stimuli/BlurLevel5/NumberedMorphs/BlurEditedMorph114.png,Stimuli/BlurLevel5/OriginalBlur/BlurEditedMorph114.png,Stimuli/BlurMorphTrio/EditedMorph114.png,None,None,,,,,0,0,0,0,0,15,15,113,,,,,,,,,,,,,,,,,,,,,,,37,16,1,218,-1.970026884,-1.539153688,114,Experiment,,,,,,,,,86,123,-9,-9,,,,,,,,,,,,,,,273.9683296,274.4675682,273.9683296,274.4675682,87.75510204,1575471992,1575471994,2.382749796,1575471989,1575471991,,,S6,1,51,m,expert radiologist,2019_Dec_04_0902,AdjustEyeTrack,3.1.5,59.98039169
32,Stimuli/Morph32.JPG,Stimuli/Morph32.png,Stimuli/BlurLevel5/BlurEditedMorph32,Stimuli/BlurLevel5/BlurEditedMorph32.png,Stimuli/BlurLevel5/NumberedMorphs/BlurEditedMorph32.png,Stimuli/BlurLevel5/OriginalBlur/BlurEditedMorph32.png,Stimuli/BlurMorphTrio/EditedMorph32.png,010080right.gif,Stimuli/normal_thumbnails/32right.gif,,,,,0,0,0,0,0,16,16,31,,,,,,,,,,,,,,,,,,,,,,,67,17,1,245,-1.056545654,-2.265769468,32,Experiment,,,,,,,,,124,34,-2,-2,,,,,,,,,,,,,,,279.3353163,279.8353639,279.3353163,279.8353639,97.27891156,1575471997,1575472000,2.915477991,1575471994,1575471997,,,S6,1,51,m,expert radiologist,2019_Dec_04_0902,AdjustEyeTrack,3.1.5,59.98039169
38,Stimuli/Morph38.JPG,Stimuli/Morph38.png,Stimuli/BlurLevel5/BlurEditedMorph38,Stimuli/BlurLevel5/BlurEditedMorph38.png,Stimuli/BlurLevel5/NumberedMorphs/BlurEditedMorph38.png,Stimuli/BlurLevel5/OriginalBlur/BlurEditedMorph38.png,Stimuli/BlurMorphTrio/EditedMorph38.png,010108right.gif,Stimuli/normal_thumbnails/38right.gif,,,,,0,0,0,0,0,17,17,37,,,,,,,,,,,,,,,,,,,,,,,13,18,1,317,1.828384254,-1.7049959,38,Experiment,,,,,,,,,113,36,2,2,,,,,,,,,,,,,,,285.1431657,285.6521942,285.1431657,285.6521942,97.27891156,1575472003,1575472006,3.181303024,1575472000,1575472003,,,S6,1,51,m,expert radiologist,2019_Dec_04_0902,AdjustEyeTrack,3.1.5,59.98039169
126,Stimuli/Morph126.JPG,Stimuli/Morph126.png,Stimuli/BlurLevel5/BlurEditedMorph126,Stimuli/BlurLevel5/BlurEditedMorph126.png,Stimuli/BlurLevel5/NumberedMorphs/BlurEditedMorph126.png,Stimuli/BlurLevel5/OriginalBlur/BlurEditedMorph126.png,Stimuli/BlurMorphTrio/EditedMorph126.png,None,None,,,,,0,0,0,0,0,18,18,125,,,,,,,,,,,,,,,,,,,,,,,54,19,1,280,0.434120444,-2.462019383,126,Experiment,,,,,,,,,24,3,123,-24,,,,,,,,,,,,,,,291.0845165,291.5854676,291.0845165,291.5854676,67.34693878,1575472009,1575472019,10.365942,1575472006,1575472009,,,S6,1,51,m,expert radiologist,2019_Dec_04_0902,AdjustEyeTrack,3.1.5,59.98039169
93,Stimuli/Morph93.JPG,Stimuli/Morph93.png,Stimuli/BlurLevel5/BlurEditedMorph93,Stimuli/BlurLevel5/BlurEditedMorph93.png,Stimuli/BlurLevel5/NumberedMorphs/BlurEditedMorph93.png,Stimuli/BlurLevel5/OriginalBlur/BlurEditedMorph93.png,Stimuli/BlurMorphTrio/EditedMorph93.png,020280right.gif,Stimuli/normal_thumbnails/93right.gif,,,,,0,0,0,0,0,19,19,92,,,,,,,,,,,,,,,,,,,,,,,4,20,1,325,2.047880111,-1.433941091,93,Experiment,,,,,,,,,44,110,-17,-17,,,,,,,,,,,,,,,304.4508312,304.9690033,304.4508312,304.9690033,76.8707483,1575472022,1575472025,2.649294853,1575472019,1575472022,,,S6,1,51,m,expert radiologist,2019_Dec_04_0902,AdjustEyeTrack,3.1.5,59.98039169
3,Stimuli/Morph3.JPG,Stimuli/Morph3.png,Stimuli/BlurLevel5/BlurEditedMorph3,Stimuli/BlurLevel5/BlurEditedMorph3.png,Stimuli/BlurLevel5/NumberedMorphs/BlurEditedMorph3.png,Stimuli/BlurLevel5/OriginalBlur/BlurEditedMorph3.png,Stimuli/BlurMorphTrio/EditedMorph3.png,010009right.gif,Stimuli/normal_thumbnails/3right.gif,,,,,0,0,0,0,0,20,20,2,,,,,,,,,,,,,,,,,,,,,,,13,21,1,93,-0.130839891,2.496573837,3,Experiment,,,,,,,,,134,134,-131,16,,,,,,,,,,,,,,,309.8250195,310.3337923,309.8250195,310.3337923,78.23129252,1575472027,1575472028,0.798570156,1575472025,1575472027,,,S6,1,51,m,expert radiologist,2019_Dec_04_0902,AdjustEyeTrack,3.1.5,59.98039169
19,Stimuli/Morph19.JPG,Stimuli/Morph19.png,Stimuli/BlurLevel5/BlurEditedMorph19,Stimuli/BlurLevel5/BlurEditedMorph19.png,Stimuli/BlurLevel5/NumberedMorphs/BlurEditedMorph19.png,Stimuli/BlurLevel5/OriginalBlur/BlurEditedMorph19.png,Stimuli/BlurMorphTrio/EditedMorph19.png,010045right.gif,Stimuli/normal_thumbnails/19right.gif,,,,,0,0,0,0,0,21,21,18,,,,,,,,,,,,,,,,,,,,,,,17,22,1,168,-2.445369002,0.519779227,19,Experiment,,,,,,,,,21,14,5,5,,,,,,,,,,,,,,,313.5788838,314.0835608,313.5788838,314.0835608,93.19727891,1575472031,1575472034,2.568594933,1575472028,1575472031,,,S6,1,51,m,expert radiologist,2019_Dec_04_0902,AdjustEyeTrack,3.1.5,59.98039169
146,Stimuli/Morph146.JPG,Stimuli/Morph146.png,Stimuli/BlurLevel5/BlurEditedMorph146,Stimuli/BlurLevel5/BlurEditedMorph146.png,Stimuli/BlurLevel5/NumberedMorphs/BlurEditedMorph146.png,Stimuli/BlurLevel5/OriginalBlur/BlurEditedMorph146.png,Stimuli/BlurMorphTrio/EditedMorph146.png,None,None,,,,,0,0,0,0,0,22,22,145,,,,,,,,,,,,,,,,,,,,,,,37,23,1,321,1.942864904,-1.573300978,146,Experiment,,,,,,,,,121,138,8,8,,,,,,,,,,,,,,,319.0817961,319.5933618,319.0817961,319.5933618,89.11564626,1575472037,1575472040,3.766495943,1575472034,1575472037,,,S6,1,51,m,expert radiologist,2019_Dec_04_0902,AdjustEyeTrack,3.1.5,59.98039169
42,Stimuli/Morph42.JPG,Stimuli/Morph42.png,Stimuli/BlurLevel5/BlurEditedMorph42,Stimuli/BlurLevel5/BlurEditedMorph42.png,Stimuli/BlurLevel5/NumberedMorphs/BlurEditedMorph42.png,Stimuli/BlurLevel5/OriginalBlur/BlurEditedMorph42.png,Stimuli/BlurMorphTrio/EditedMorph42.png,010121right.gif,Stimuli/normal_thumbnails/42right.gif,,,,,0,0,0,0,0,23,23,41,,,,,,,,,,,,,,,,,,,,,,,30,24,1,42,1.857862064,1.672826516,42,Experiment,,,,,,,,,68,38,4,4,,,,,,,,,,,,,,,325.3224835,325.833174,325.3224835,325.833174,94.55782313,1575472043,1575472050,7.133964777,1575472041,1575472043,,,S6,1,51,m,expert radiologist,2019_Dec_04_0902,AdjustEyeTrack,3.1.5,59.98039169
95,Stimuli/Morph95.JPG,Stimuli/Morph95.png,Stimuli/BlurLevel5/BlurEditedMorph95,Stimuli/BlurLevel5/BlurEditedMorph95.png,Stimuli/BlurLevel5/NumberedMorphs/BlurEditedMorph95.png,Stimuli/BlurLevel5/OriginalBlur/BlurEditedMorph95.png,Stimuli/BlurMorphTrio/EditedMorph95.png,020287right.gif,Stimuli/normal_thumbnails/95right.gif,,,,,0,0,0,0,0,24,24,94,,,,,,,,,,,,,,,,,,,,,,,33,25,1,327,2.09667642,-1.361597588,95,Experiment,,,,,,,,,104,118,-23,-23,,,,,,,,,,,,,,,335.2523901,335.7663865,335.2523901,335.7663865,68.70748299,1575472053,1575472059,6.433248043,1575472050,1575472053,,,S6,1,51,m,expert radiologist,2019_Dec_04_0902,AdjustEyeTrack,3.1.5,59.98039169
20,Stimuli/Morph20.JPG,Stimuli/Morph20.png,Stimuli/BlurLevel5/BlurEditedMorph20,Stimuli/BlurLevel5/BlurEditedMorph20.png,Stimuli/BlurLevel5/NumberedMorphs/BlurEditedMorph20.png,Stimuli/BlurLevel5/OriginalBlur/BlurEditedMorph20.png,Stimuli/BlurMorphTrio/EditedMorph20.png,010046right.gif,Stimuli/normal_thumbnails/20right.gif,,,,,0,0,0,0,0,25,25,19,,,,,,,,,,,,,,,,,,,,,,,81,26,1,26,2.246985116,1.095927867,20,Experiment,,,,,,,,,27,27,-7,-7,,,,,,,,,,,,,,,344.284555,344.8028465,344.284555,344.8028465,90.47619048,1575472062,1575472066,3.878899813,1575472060,1575472062,,,S6,1,51,m,expert radiologist,2019_Dec_04_0902,AdjustEyeTrack,3.1.5,59.98039169
74,Stimuli/Morph74.JPG,Stimuli/Morph74.png,Stimuli/BlurLevel5/BlurEditedMorph74,Stimuli/BlurLevel5/BlurEditedMorph74.png,Stimuli/BlurLevel5/NumberedMorphs/BlurEditedMorph74.png,Stimuli/BlurLevel5/OriginalBlur/BlurEditedMorph74.png,Stimuli/BlurMorphTrio/EditedMorph74.png,020232right.gif,Stimuli/normal_thumbnails/74right.gif,,,,,0,0,0,0,0,26,26,73,,,,,,,,,,,,,,,,,,,,,,,46,27,1,224,-1.798349501,-1.736645926,74,Experiment,,,,,,,,,54,104,-30,-30,,,,,,,,,,,,,,,350.833805,351.3344421,350.833805,351.3344421,59.18367347,1575472068,1575472073,4.150201797,1575472066,1575472068,,,S6,1,51,m,expert radiologist,2019_Dec_04_0902,AdjustEyeTrack,3.1.5,59.98039169
115,Stimuli/Morph115.JPG,Stimuli/Morph115.png,Stimuli/BlurLevel5/BlurEditedMorph115,Stimuli/BlurLevel5/BlurEditedMorph115.png,Stimuli/BlurLevel5/NumberedMorphs/BlurEditedMorph115.png,Stimuli/BlurLevel5/OriginalBlur/BlurEditedMorph115.png,Stimuli/BlurMorphTrio/EditedMorph115.png,None,None,,,,,0,0,0,0,0,27,27,114,,,,,,,,,,,,,,,,,,,,,,,70,28,1,222,-1.857862064,-1.672826516,115,Experiment,,,,,,,,,38,106,9,9,,,,,,,,,,,,,,,357.6166386,358.1163421,357.6166386,358.1163421,87.75510204,1575472075,1575472079,4.232722998,1575472073,1575472075,,,S6,1,51,m,expert radiologist,2019_Dec_04_0902,AdjustEyeTrack,3.1.5,59.98039169
105,Stimuli/Morph105.JPG,Stimuli/Morph105.png,Stimuli/BlurLevel5/BlurEditedMorph105,Stimuli/BlurLevel5/BlurEditedMorph105.png,Stimuli/BlurLevel5/NumberedMorphs/BlurEditedMorph105.png,Stimuli/BlurLevel5/OriginalBlur/BlurEditedMorph105.png,Stimuli/BlurMorphTrio/EditedMorph105.png,None,None,,,,,0,0,0,0,0,28,28,104,,,,,,,,,,,,,,,,,,,,,,,18,29,1,273,0.130839891,-2.496573837,105,Experiment,,,,,,,,,102,102,3,3,,,,,,,,,,,,,,,364.0896773,364.6006013,364.0896773,364.6006013,95.91836735,1575472082,1575472082,0.699873924,1575472080,1575472082,,,S6,1,51,m,expert radiologist,2019_Dec_04_0902,AdjustEyeTrack,3.1.5,59.98039169
61,Stimuli/Morph61.JPG,Stimuli/Morph61.png,Stimuli/BlurLevel5/BlurEditedMorph61,Stimuli/BlurLevel5/BlurEditedMorph61.png,Stimuli/BlurLevel5/NumberedMorphs/BlurEditedMorph61.png,Stimuli/BlurLevel5/OriginalBlur/BlurEditedMorph61.png,Stimuli/BlurMorphTrio/EditedMorph61.png,020201right.gif,Stimuli/normal_thumbnails/61right.gif,,,,,0,0,0,0,0,29,29,60,,,,,,,,,,,,,,,,,,,,,,,28,30,1,229,-1.640147572,-1.886773951,61,Experiment,,,,,,,,,15,69,-8,-8,,,,,,,,,,,,,,,367.8222415,368.3172244,367.8222415,368.3172244,89.11564626,1575472085,1575472087,2.116488934,1575472083,1575472085,,,S6,1,51,m,expert radiologist,2019_Dec_04_0902,AdjustEyeTrack,3.1.5,59.98039169
141,Stimuli/Morph141.JPG,Stimuli/Morph141.png,Stimuli/BlurLevel5/BlurEditedMorph141,Stimuli/BlurLevel5/BlurEditedMorph141.png,Stimuli/BlurLevel5/NumberedMorphs/BlurEditedMorph141.png,Stimuli/BlurLevel5/OriginalBlur/BlurEditedMorph141.png,Stimuli/BlurMorphTrio/EditedMorph141.png,None,None,,,,,0,0,0,0,0,30,30,140,,,,,,,,,,,,,,,,,,,,,,,60,31,1,288,0.772542486,-2.377641291,141,Experiment,,,,,,,,,50,139,2,2,,,,,,,,,,,,,,,372.6836747,373.1992324,372.6836747,373.1992324,97.27891156,1575472090,1575472093,2.583212137,1575472088,1575472090,,,S6,1,51,m,expert radiologist,2019_Dec_04_0902,AdjustEyeTrack,3.1.5,59.98039169
6,Stimuli/Morph6.JPG,Stimuli/Morph6.png,Stimuli/BlurLevel5/BlurEditedMorph6,Stimuli/BlurLevel5/BlurEditedMorph6.png,Stimuli/BlurLevel5/NumberedMorphs/BlurEditedMorph6.png,Stimuli/BlurLevel5/OriginalBlur/BlurEditedMorph6.png,Stimuli/BlurMorphTrio/EditedMorph6.png,010012right.gif,Stimuli/normal_thumbnails/6right.gif,,,,,0,0,0,0,0,31,31,5,,,,,,,,,,,,,,,,,,,,,,,39,32,1,102,-0.519779227,2.445369002,6,Experiment,,,,,,,,,109,142,-136,11,,,,,,,,,,,,,,,378.2911672,378.785583,378.2911672,378.785583,85.03401361,1575472096,1575472098,2.33227396,1575472093,1575472096,,,S6,1,51,m,expert radiologist,2019_Dec_04_0902,AdjustEyeTrack,3.1.5,59.98039169
88,Stimuli/Morph88.JPG,Stimuli/Morph88.png,Stimuli/BlurLevel5/BlurEditedMorph88,Stimuli/BlurLevel5/BlurEditedMorph88.png,Stimuli/BlurLevel5/NumberedMorphs/BlurEditedMorph88.png,Stimuli/BlurLevel5/OriginalBlur/BlurEditedMorph88.png,Stimuli/BlurMorphTrio/EditedMorph88.png,020271right.gif,Stimuli/normal_thumbnails/88right.gif,,,,,0,0,0,0,0,32,32,87,,,,,,,,,,,,,,,,,,,,,,,49,33,1,330,2.165063509,-1.25,88,Experiment,,,,,,,,,50,98,-10,-10,,,,,,,,,,,,,,,383.266459,383.7675612,383.266459,383.7675612,86.39455782,1575472101,1575472103,2.334174395,1575472099,1575472101,,,S6,1,51,m,expert radiologist,2019_Dec_04_0902,AdjustEyeTrack,3.1.5,59.98039169
132,Stimuli/Morph132.JPG,Stimuli/Morph132.png,Stimuli/BlurLevel5/BlurEditedMorph132,Stimuli/BlurLevel5/BlurEditedMorph132.png,Stimuli/BlurLevel5/NumberedMorphs/BlurEditedMorph132.png,Stimuli/BlurLevel5/OriginalBlur/BlurEditedMorph132.png,Stimuli/BlurMorphTrio/EditedMorph132.png,None,None,,,,,0,0,0,0,0,33,33,131,,,,,,,,,,,,,,,,,,,,,,,90,34,1,109,-0.813920386,2.363796439,132,Experiment,,,,,,,,,139,139,-7,-7,,,,,,,,,,,,,,,388.0725541,388.5659575,388.0725541,388.5659575,90.47619048,1575472106,1575472106,0.784891129,1575472103,1575472106,,,S6,1,51,m,expert radiologist,2019_Dec_04_0902,AdjustEyeTrack,3.1.5,59.98039169
85,Stimuli/Morph85.JPG,Stimuli/Morph85.png,Stimuli/BlurLevel5/BlurEditedMorph85,Stimuli/BlurLevel5/BlurEditedMorph85.png,Stimuli/BlurLevel5/NumberedMorphs/BlurEditedMorph85.png,Stimuli/BlurLevel5/OriginalBlur/BlurEditedMorph85.png,Stimuli/BlurMorphTrio/EditedMorph85.png,020264right.gif,Stimuli/normal_thumbnails/85right.gif,,,,,0,0,0,0,0,34,34,84,,,,,,,,,,,,,,,,,,,,,,,33,35,1,234,-1.469463131,-2.022542486,85,Experiment,,,,,,,,,122,97,-12,-12,,,,,,,,,,,,,,,391.650383,392.1511107,391.650383,392.1511107,83.67346939,1575472109,1575472114,4.366019249,1575472107,1575472109,,,S6,1,51,m,expert radiologist,2019_Dec_04_0902,AdjustEyeTrack,3.1.5,59.98039169
104,Stimuli/Morph104.JPG,Stimuli/Morph104.png,Stimuli/BlurLevel5/BlurEditedMorph104,Stimuli/BlurLevel5/BlurEditedMorph104.png,Stimuli/BlurLevel5/NumberedMorphs/BlurEditedMorph104.png,Stimuli/BlurLevel5/OriginalBlur/BlurEditedMorph104.png,Stimuli/BlurMorphTrio/EditedMorph104.png,None,None,,,,,0,0,0,0,0,35,35,103,,,,,,,,,,,,,,,,,,,,,,,15,36,1,281,0.477022488,-2.454067959,104,Experiment,,,,,,,,,110,110,-6,-6,,,,,,,,,,,,,,,398.8054869,399.3157733,398.8054869,399.3157733,91.83673469,1575472116,1575472117,0.58605814,1575472114,1575472116,,,S6,1,51,m,expert radiologist,2019_Dec_04_0902,AdjustEyeTrack,3.1.5,59.98039169
145,Stimuli/Morph145.JPG,Stimuli/Morph145.png,Stimuli/BlurLevel5/BlurEditedMorph145,Stimuli/BlurLevel5/BlurEditedMorph145.png,Stimuli/BlurLevel5/NumberedMorphs/BlurEditedMorph145.png,Stimuli/BlurLevel5/OriginalBlur/BlurEditedMorph145.png,Stimuli/BlurMorphTrio/EditedMorph145.png,None,None,,,,,0,0,0,0,0,36,36,144,,,,,,,,,,,,,,,,,,,,,,,72,37,1,354,2.486304738,-0.261321158,145,Experiment,,,,,,,,,2,2,143,-4,,,,,,,,,,,,,,,402.2213849,402.7157145,402.2213849,402.7157145,94.55782313,1575472120,1575472121,1.600089312,1575472117,1575472120,,,S6,1,51,m,expert radiologist,2019_Dec_04_0902,AdjustEyeTrack,3.1.5,59.98039169
125,Stimuli/Morph125.JPG,Stimuli/Morph125.png,Stimuli/BlurLevel5/BlurEditedMorph125,Stimuli/BlurLevel5/BlurEditedMorph125.png,Stimuli/BlurLevel5/NumberedMorphs/BlurEditedMorph125.png,Stimuli/BlurLevel5/OriginalBlur/BlurEditedMorph125.png,Stimuli/BlurMorphTrio/EditedMorph125.png,None,None,,,,,0,0,0,0,0,37,37,124,,,,,,,,,,,,,,,,,,,,,,,48,38,1,118,-1.173678907,2.207368982,125,Experiment,,,,,,,,,108,108,17,17,,,,,,,,,,,,,,,406.493025,407.0010599,406.493025,407.0010599,76.8707483,1575472124,1575472125,0.533875942,1575472122,1575472124,,,S6,1,51,m,expert radiologist,2019_Dec_04_0902,AdjustEyeTrack,3.1.5,59.98039169
16,Stimuli/Morph16.JPG,Stimuli/Morph16.png,Stimuli/BlurLevel5/BlurEditedMorph16,Stimuli/BlurLevel5/BlurEditedMorph16.png,Stimuli/BlurLevel5/NumberedMorphs/BlurEditedMorph16.png,Stimuli/BlurLevel5/OriginalBlur/BlurEditedMorph16.png,Stimuli/BlurMorphTrio/EditedMorph16.png,010034right.gif,Stimuli/normal_thumbnails/16right.gif,,,,,0,0,0,0,0,38,38,15,,,,,,,,,,,,,,,,,,,,,,,71,39,1,117,-1.134976249,2.22751631,16,Experiment,,,,,,,,,21,21,-5,-5,,,,,,,,,,,,,,,409.392439,409.8995481,409.392439,409.8995481,93.19727891,1575472127,1575472128,0.637362957,1575472125,1575472127,,,S6,1,51,m,expert radiologist,2019_Dec_04_0902,AdjustEyeTrack,3.1.5,59.98039169
10,Stimuli/Morph10.JPG,Stimuli/Morph10.png,Stimuli/BlurLevel5/BlurEditedMorph10,Stimuli/BlurLevel5/BlurEditedMorph10.png,Stimuli/BlurLevel5/NumberedMorphs/BlurEditedMorph10.png,Stimuli/BlurLevel5/OriginalBlur/BlurEditedMorph10.png,Stimuli/BlurMorphTrio/EditedMorph10.png,010016right.gif,Stimuli/normal_thumbnails/10right.gif,,,,,0,0,0,0,0,39,39,9,,,,,,,,,,,,,,,,,,,,,,,69,40,1,98,-0.347932752,2.475670172,10,Experiment,,,,,,,,,14,14,-4,-4,,,,,,,,,,,,,,,412.7208058,413.2337777,412.7208058,413.2337777,94.55782313,1575472130,1575472131,0.431332111,1575472128,1575472130,,,S6,1,51,m,expert radiologist,2019_Dec_04_0902,AdjustEyeTrack,3.1.5,59.98039169
116,Stimuli/Morph116.JPG,Stimuli/Morph116.png,Stimuli/BlurLevel5/BlurEditedMorph116,Stimuli/BlurLevel5/BlurEditedMorph116.png,Stimuli/BlurLevel5/NumberedMorphs/BlurEditedMorph116.png,Stimuli/BlurLevel5/OriginalBlur/BlurEditedMorph116.png,Stimuli/BlurMorphTrio/EditedMorph116.png,None,None,,,,,0,0,0,0,0,40,40,115,,,,,,,,,,,,,,,,,,,,,,,55,41,1,215,-2.047880111,-1.433941091,116,Experiment,,,,,,,,,29,105,11,11,,,,,,,,,,,,,,,415.7519456,416.2496692,415.7519456,416.2496692,85.03401361,1575472133,1575472138,4.450863838,1575472131,1575472133,,,S6,1,51,m,expert radiologist,2019_Dec_04_0902,AdjustEyeTrack,3.1.5,59.98039169
106,Stimuli/Morph106.JPG,Stimuli/Morph106.png,Stimuli/BlurLevel5/BlurEditedMorph106,Stimuli/BlurLevel5/BlurEditedMorph106.png,Stimuli/BlurLevel5/NumberedMorphs/BlurEditedMorph106.png,Stimuli/BlurLevel5/OriginalBlur/BlurEditedMorph106.png,Stimuli/BlurMorphTrio/EditedMorph106.png,None,None,,,,,0,0,0,0,0,41,41,105,,,,,,,,,,,,,,,,,,,,,,,47,42,1,178,-2.498477068,0.087248742,106,Experiment,,,,,,,,,141,110,-4,-4,,,,,,,,,,,,,,,423.5543558,424.0509392,423.5543558,424.0509392,94.55782313,1575472141,1575472143,2.13215065,1575472138,1575472141,,,S6,1,51,m,expert radiologist,2019_Dec_04_0902,AdjustEyeTrack,3.1.5,59.98039169
117,Stimuli/Morph117.JPG,Stimuli/Morph117.png,Stimuli/BlurLevel5/BlurEditedMorph117,Stimuli/BlurLevel5/BlurEditedMorph117.png,Stimuli/BlurLevel5/NumberedMorphs/BlurEditedMorph117.png,Stimuli/BlurLevel5/OriginalBlur/BlurEditedMorph117.png,Stimuli/BlurMorphTrio/EditedMorph117.png,None,None,,,,,0,0,0,0,0,42,42,116,,,,,,,,,,,,,,,,,,,,,,,28,43,1,58,1.324798161,2.12012024,117,Experiment,,,,,,,,,10,126,-9,-9,,,,,,,,,,,,,,,428.668207,429.1845165,428.668207,429.1845165,87.75510204,1575472146,1575472149,2.649943113,1575472144,1575472146,,,S6,1,51,m,expert radiologist,2019_Dec_04_0902,AdjustEyeTrack,3.1.5,59.98039169
136,Stimuli/Morph136.JPG,Stimuli/Morph136.png,Stimuli/BlurLevel5/BlurEditedMorph136,Stimuli/BlurLevel5/BlurEditedMorph136.png,Stimuli/BlurLevel5/NumberedMorphs/BlurEditedMorph136.png,Stimuli/BlurLevel5/OriginalBlur/BlurEditedMorph136.png,Stimuli/BlurMorphTrio/EditedMorph136.png,None,None,,,,,0,0,0,0,0,43,43,135,,,,,,,,,,,,,,,,,,,,,,,91,44,1,272,0.087248742,-2.498477068,136,Experiment,,,,,,,,,90,123,13,13,,,,,,,,,,,,,,,434.3541655,434.8497769,434.3541655,434.8497769,82.31292517,1575472152,1575472157,5.014852285,1575472149,1575472152,,,S6,1,51,m,expert radiologist,2019_Dec_04_0902,AdjustEyeTrack,3.1.5,59.98039169
39,Stimuli/Morph39.JPG,Stimuli/Morph39.png,Stimuli/BlurLevel5/BlurEditedMorph39,Stimuli/BlurLevel5/BlurEditedMorph39.png,Stimuli/BlurLevel5/NumberedMorphs/BlurEditedMorph39.png,Stimuli/BlurLevel5/OriginalBlur/BlurEditedMorph39.png,Stimuli/BlurMorphTrio/EditedMorph39.png,010109right.gif,Stimuli/normal_thumbnails/39right.gif,,,,,0,0,0,0,0,44,44,38,,,,,,,,,,,,,,,,,,,,,,,44,45,1,99,-0.391086163,2.469220851,39,Experiment,,,,,,,,,139,37,2,2,,,,,,,,,,,,,,,441.8731793,442.3816833,441.8731793,442.3816833,97.27891156,1575472159,1575472162,2.437196016,1575472157,1575472159,,,S6,1,51,m,expert radiologist,2019_Dec_04_0902,AdjustEyeTrack,3.1.5,59.98039169
102,Stimuli/Morph102.JPG,Stimuli/Morph102.png,Stimuli/BlurLevel5/BlurEditedMorph102,Stimuli/BlurLevel5/BlurEditedMorph102.png,Stimuli/BlurLevel5/NumberedMorphs/BlurEditedMorph102.png,Stimuli/BlurLevel5/OriginalBlur/BlurEditedMorph102.png,Stimuli/BlurMorphTrio/EditedMorph102.png,None,None,,,,,0,0,0,0,0,45,45,101,,,,,,,,,,,,,,,,,,,,,,,61,46,1,113,-0.976827821,2.301262134,102,Experiment,,,,,,,,,68,97,5,5,,,,,,,,,,,,,,,447.2181691,447.7148224,447.2181691,447.7148224,93.19727891,1575472165,1575472167,2.367892981,1575472162,1575472165,,,S6,1,51,m,expert radiologist,2019_Dec_04_0902,AdjustEyeTrack,3.1.5,59.98039169
73,Stimuli/Morph73.JPG,Stimuli/Morph73.png,Stimuli/BlurLevel5/BlurEditedMorph73,Stimuli/BlurLevel5/BlurEditedMorph73.png,Stimuli/BlurLevel5/NumberedMorphs/BlurEditedMorph73.png,Stimuli/BlurLevel5/OriginalBlur/BlurEditedMorph73.png,Stimuli/BlurMorphTrio/EditedMorph73.png,020230right.gif,Stimuli/normal_thumbnails/73right.gif,,,,,0,0,0,0,0,46,46,72,,,,,,,,,,,,,,,,,,,,,,,42,47,1,202,-2.317959636,-0.936516484,73,Experiment,,,,,,,,,49,63,10,10,,,,,,,,,,,,,,,452.8168333,453.3325248,452.8168333,453.3325248,86.39455782,1575472170,1575472176,6.117704153,1575472167,1575472170,,,S6,1,51,m,expert radiologist,2019_Dec_04_0902,AdjustEyeTrack,3.1.5,59.98039169
35,Stimuli/Morph35.JPG,Stimuli/Morph35.png,Stimuli/BlurLevel5/BlurEditedMorph35,Stimuli/BlurLevel5/BlurEditedMorph35.png,Stimuli/BlurLevel5/NumberedMorphs/BlurEditedMorph35.png,Stimuli/BlurLevel5/OriginalBlur/BlurEditedMorph35.png,Stimuli/BlurMorphTrio/EditedMorph35.png,010094right.gif,Stimuli/normal_thumbnails/35right.gif,,,,,0,0,0,0,0,47,47,34,,,,,,,,,,,,,,,,,,,,,,,31,48,1,102,-0.519779227,2.445369002,35,Experiment,,,,,,,,,41,38,-3,-3,,,,,,,,,,,,,,,461.859363,462.3654241,461.859363,462.3654241,95.91836735,1575472179,1575472185,5.251429796,1575472177,1575472179,,,S6,1,51,m,expert radiologist,2019_Dec_04_0902,AdjustEyeTrack,3.1.5,59.98039169
45,Stimuli/Morph45.JPG,Stimuli/Morph45.png,Stimuli/BlurLevel5/BlurEditedMorph45,Stimuli/BlurLevel5/BlurEditedMorph45.png,Stimuli/BlurLevel5/NumberedMorphs/BlurEditedMorph45.png,Stimuli/BlurLevel5/OriginalBlur/BlurEditedMorph45.png,Stimuli/BlurMorphTrio/EditedMorph45.png,010127right.gif,Stimuli/normal_thumbnails/45right.gif,,,,,0,0,0,0,0,48,48,44,,,,,,,,,,,,,,,,,,,,,,,5,49,1,193,-2.435925162,-0.562377636,45,Experiment,,,,,,,,,140,42,3,3,,,,,,,,,,,,,,,469.7429366,470.2483045,469.7429366,470.2483045,95.91836735,1575472187,1575472191,4.16688776,1575472185,1575472187,,,S6,1,51,m,expert radiologist,2019_Dec_04_0902,AdjustEyeTrack,3.1.5,59.98039169
124,Stimuli/Morph124.JPG,Stimuli/Morph124.png,Stimuli/BlurLevel5/BlurEditedMorph124,Stimuli/BlurLevel5/BlurEditedMorph124.png,Stimuli/BlurLevel5/NumberedMorphs/BlurEditedMorph124.png,Stimuli/BlurLevel5/OriginalBlur/BlurEditedMorph124.png,Stimuli/BlurMorphTrio/EditedMorph124.png,None,None,,,,,0,0,0,0,0,49,49,123,,,,,,,,,,,,,,,,,,,,,,,100,50,1,251,-0.813920386,-2.363796439,124,Experiment,,,,,,,,,7,130,-6,-6,,,,,,,,,,,,,,,476.7029687,477.2170961,476.7029687,477.2170961,91.83673469,1575472194,1575472200,5.916579247,1575472192,1575472194,,,S6,1,51,m,expert radiologist,2019_Dec_04_0902,AdjustEyeTrack,3.1.5,59.98039169
15,Stimuli/Morph15.JPG,Stimuli/Morph15.png,Stimuli/BlurLevel5/BlurEditedMorph15,Stimuli/BlurLevel5/BlurEditedMorph15.png,Stimuli/BlurLevel5/NumberedMorphs/BlurEditedMorph15.png,Stimuli/BlurLevel5/OriginalBlur/BlurEditedMorph15.png,Stimuli/BlurMorphTrio/EditedMorph15.png,010031right.gif,Stimuli/normal_thumbnails/15right.gif,,,,,0,0,0,0,0,50,50,14,,,,,,,,,,,,,,,,,,,,,,,53,51,1,137,-1.828384254,1.7049959,15,Experiment,,,,,,,,,122,24,-9,-9,,,,,,,,,,,,,,,485.6727562,486.1656211,485.6727562,486.1656211,87.75510204,1575472203,1575472206,2.749968767,1575472200,1575472203,,,S6,1,51,m,expert radiologist,2019_Dec_04_0902,AdjustEyeTrack,3.1.5,59.98039169
103,Stimuli/Morph103.JPG,Stimuli/Morph103.png,Stimuli/BlurLevel5/BlurEditedMorph103,Stimuli/BlurLevel5/BlurEditedMorph103.png,Stimuli/BlurLevel5/NumberedMorphs/BlurEditedMorph103.png,Stimuli/BlurLevel5/OriginalBlur/BlurEditedMorph103.png,Stimuli/BlurMorphTrio/EditedMorph103.png,None,None,,,,,0,0,0,0,0,51,51,102,,,,,,,,,,,,,,,,,,,,,,,39,52,1,128,-1.539153688,1.970026884,103,Experiment,,,,,,,,,99,94,9,9,,,,,,,,,,,,,,,491.2728901,491.7832599,491.2728901,491.7832599,87.75510204,1575472209,1575472211,2.184194088,1575472206,1575472209,,,S6,1,51,m,expert radiologist,2019_Dec_04_0902,AdjustEyeTrack,3.1.5,59.98039169
87,Stimuli/Morph87.JPG,Stimuli/Morph87.png,Stimuli/BlurLevel5/BlurEditedMorph87,Stimuli/BlurLevel5/BlurEditedMorph87.png,Stimuli/BlurLevel5/NumberedMorphs/BlurEditedMorph87.png,Stimuli/BlurLevel5/OriginalBlur/BlurEditedMorph87.png,Stimuli/BlurMorphTrio/EditedMorph87.png,020270right.gif,Stimuli/normal_thumbnails/87right.gif,,,,,0,0,0,0,0,52,52,86,,,,,,,,,,,,,,,,,,,,,,,86,53,1,56,1.397982259,2.072593931,87,Experiment,,,,,,,,,7,106,-19,-19,,,,,,,,,,,,,,,496.4666625,496.9718814,496.4666625,496.9718814,74.14965986,1575472214,1575472217,3.216856241,1575472211,1575472214,,,S6,1,51,m,expert radiologist,2019_Dec_04_0902,AdjustEyeTrack,3.1.5,59.98039169
36,Stimuli/Morph36.JPG,Stimuli/Morph36.png,Stimuli/BlurLevel5/BlurEditedMorph36,Stimuli/BlurLevel5/BlurEditedMorph36.png,Stimuli/BlurLevel5/NumberedMorphs/BlurEditedMorph36.png,Stimuli/BlurLevel5/OriginalBlur/BlurEditedMorph36.png,Stimuli/BlurMorphTrio/EditedMorph36.png,010095right.gif,Stimuli/normal_thumbnails/36right.gif,,,,,0,0,0,0,0,53,53,35,,,,,,,,,,,,,,,,,,,,,,,89,54,1,137,-1.828384254,1.7049959,36,Experiment,,,,,,,,,125,36,0,0,,,,,,,,,,,,,,,502.1481235,502.6499776,502.1481235,502.6499776,100,1575472220,1575472222,2.084932804,1575472217,1575472220,,,S6,1,51,m,expert radiologist,2019_Dec_04_0902,AdjustEyeTrack,3.1.5,59.98039169
112,Stimuli/Morph112.JPG,Stimuli/Morph112.png,Stimuli/BlurLevel5/BlurEditedMorph112,Stimuli/BlurLevel5/BlurEditedMorph112.png,Stimuli/BlurLevel5/NumberedMorphs/BlurEditedMorph112.png,Stimuli/BlurLevel5/OriginalBlur/BlurEditedMorph112.png,Stimuli/BlurMorphTrio/EditedMorph112.png,None,None,,,,,0,0,0,0,0,54,54,111,,,,,,,,,,,,,,,,,,,,,,,58,55,1,111,-0.895919874,2.333951066,112,Experiment,,,,,,,,,102,104,8,8,,,,,,,,,,,,,,,506.647727,507.1480177,506.647727,507.1480177,89.11564626,1575472224,1575472227,2.334727287,1575472222,1575472224,,,S6,1,51,m,expert radiologist,2019_Dec_04_0902,AdjustEyeTrack,3.1.5,59.98039169
9,Stimuli/Morph9.JPG,Stimuli/Morph9.png,Stimuli/BlurLevel5/BlurEditedMorph9,Stimuli/BlurLevel5/BlurEditedMorph9.png,Stimuli/BlurLevel5/NumberedMorphs/BlurEditedMorph9.png,Stimuli/BlurLevel5/OriginalBlur/BlurEditedMorph9.png,Stimuli/BlurMorphTrio/EditedMorph9.png,010015right.gif,Stimuli/normal_thumbnails/9right.gif,,,,,0,0,0,0,0,55,55,8,,,,,,,,,,,,,,,,,,,,,,,73,56,1,281,0.477022488,-2.454067959,9,Experiment,,,,,,,,,95,140,-131,16,,,,,,,,,,,,,,,511.6145115,512.1320541,511.6145115,512.1320541,78.23129252,1575472229,1575472236,6.932897091,1575472227,1575472229,,,S6,1,51,m,expert radiologist,2019_Dec_04_0902,AdjustEyeTrack,3.1.5,59.98039169
101,Stimuli/Morph101.JPG,Stimuli/Morph101.png,Stimuli/BlurLevel5/BlurEditedMorph101,Stimuli/BlurLevel5/BlurEditedMorph101.png,Stimuli/BlurLevel5/NumberedMorphs/BlurEditedMorph101.png,Stimuli/BlurLevel5/OriginalBlur/BlurEditedMorph101.png,Stimuli/BlurMorphTrio/EditedMorph101.png,None,None,,,,,0,0,0,0,0,56,56,100,,,,,,,,,,,,,,,,,,,,,,,76,57,1,222,-1.857862064,-1.672826516,101,Experiment,,,,,,,,,21,89,12,12,,,,,,,,,,,,,,,520.8901262,521.3803824,520.8901262,521.3803824,83.67346939,1575472238,1575472242,3.377217054,1575472236,1575472238,,,S6,1,51,m,expert radiologist,2019_Dec_04_0902,AdjustEyeTrack,3.1.5,59.98039169
24,Stimuli/Morph24.JPG,Stimuli/Morph24.png,Stimuli/BlurLevel5/BlurEditedMorph24,Stimuli/BlurLevel5/BlurEditedMorph24.png,Stimuli/BlurLevel5/NumberedMorphs/BlurEditedMorph24.png,Stimuli/BlurLevel5/OriginalBlur/BlurEditedMorph24.png,Stimuli/BlurMorphTrio/EditedMorph24.png,010068right.gif,Stimuli/normal_thumbnails/24right.gif,,,,,0,0,0,0,0,57,57,23,,,,,,,,,,,,,,,,,,,,,,,99,58,1,93,-0.130839891,2.496573837,24,Experiment,,,,,,,,,78,28,-4,-4,,,,,,,,,,,,,,,526.7851542,527.2805416,526.7851542,527.2805416,94.55782313,1575472244,1575472247,2.916901112,1575472242,1575472244,,,S6,1,51,m,expert radiologist,2019_Dec_04_0902,AdjustEyeTrack,3.1.5,59.98039169
64,Stimuli/Morph64.JPG,Stimuli/Morph64.png,Stimuli/BlurLevel5/BlurEditedMorph64,Stimuli/BlurLevel5/BlurEditedMorph64.png,Stimuli/BlurLevel5/NumberedMorphs/BlurEditedMorph64.png,Stimuli/BlurLevel5/OriginalBlur/BlurEditedMorph64.png,Stimuli/BlurMorphTrio/EditedMorph64.png,020208right.gif,Stimuli/normal_thumbnails/64right.gif,,,,,0,0,0,0,0,58,58,63,,,,,,,,,,,,,,,,,,,,,,,85,59,1,209,-2.186549268,-1.212024051,64,Experiment,,,,,,,,,86,70,-6,-6,,,,,,,,,,,,,,,532.2983896,532.7995009,532.2983896,532.7995009,91.83673469,1575472250,1575472257,6.885111809,1575472248,1575472250,,,S6,1,51,m,expert radiologist,2019_Dec_04_0902,AdjustEyeTrack,3.1.5,59.98039169
139,Stimuli/Morph139.JPG,Stimuli/Morph139.png,Stimuli/BlurLevel5/BlurEditedMorph139,Stimuli/BlurLevel5/BlurEditedMorph139.png,Stimuli/BlurLevel5/NumberedMorphs/BlurEditedMorph139.png,Stimuli/BlurLevel5/OriginalBlur/BlurEditedMorph139.png,Stimuli/BlurMorphTrio/EditedMorph139.png,None,None,,,,,0,0,0,0,0,59,59,138,,,,,,,,,,,,,,,,,,,,,,,18,60,1,1,2.499619238,0.043631016,139,Experiment,,,,,,,,,144,144,-5,-5,,,,,,,,,,,,,,,541.6507356,542.1473264,541.6507356,542.1473264,93.19727891,1575472259,1575472260,0.901005268,1575472257,1575472259,,,S6,1,51,m,expert radiologist,2019_Dec_04_0902,AdjustEyeTrack,3.1.5,59.98039169
83,Stimuli/Morph83.JPG,Stimuli/Morph83.png,Stimuli/BlurLevel5/BlurEditedMorph83,Stimuli/BlurLevel5/BlurEditedMorph83.png,Stimuli/BlurLevel5/NumberedMorphs/BlurEditedMorph83.png,Stimuli/BlurLevel5/OriginalBlur/BlurEditedMorph83.png,Stimuli/BlurMorphTrio/EditedMorph83.png,020259right.gif,Stimuli/normal_thumbnails/83right.gif,,,,,0,0,0,0,0,60,60,82,,,,,,,,,,,,,,,,,,,,,,,49,61,1,16,2.40315424,0.68909339,83,Experiment,,,,,,,,,62,88,-5,-5,,,,,,,,,,,,,,,545.499932,546.0135804,545.499932,546.0135804,93.19727891,1575472263,1575472265,1.667090893,1575472260,1575472263,,,S6,1,51,m,expert radiologist,2019_Dec_04_0902,AdjustEyeTrack,3.1.5,59.98039169
135,Stimuli/Morph135.JPG,Stimuli/Morph135.png,Stimuli/BlurLevel5/BlurEditedMorph135,Stimuli/BlurLevel5/BlurEditedMorph135.png,Stimuli/BlurLevel5/NumberedMorphs/BlurEditedMorph135.png,Stimuli/BlurLevel5/OriginalBlur/BlurEditedMorph135.png,Stimuli/BlurMorphTrio/EditedMorph135.png,None,None,,,,,0,0,0,0,0,61,61,134,,,,,,,,,,,,,,,,,,,,,,,44,62,1,46,1.736645926,1.798349501,135,Experiment,,,,,,,,,1,141,-6,-6,,,,,,,,,,,,,,,549.7377047,550.2476264,549.7377047,550.2476264,91.83673469,1575472267,1575472269,2.052603245,1575472265,1575472267,,,S6,1,51,m,expert radiologist,2019_Dec_04_0902,AdjustEyeTrack,3.1.5,59.98039169
70,Stimuli/Morph70.JPG,Stimuli/Morph70.png,Stimuli/BlurLevel5/BlurEditedMorph70,Stimuli/BlurLevel5/BlurEditedMorph70.png,Stimuli/BlurLevel5/NumberedMorphs/BlurEditedMorph70.png,Stimuli/BlurLevel5/OriginalBlur/BlurEditedMorph70.png,Stimuli/BlurMorphTrio/EditedMorph70.png,020221right.gif,Stimuli/normal_thumbnails/70right.gif,,,,,0,0,0,0,0,62,62,69,,,,,,,,,,,,,,,,,,,,,,,73,63,1,318,1.857862064,-1.672826516,70,Experiment,,,,,,,,,57,57,13,13,,,,,,,,,,,,,,,554.6322158,555.1477303,554.6322158,555.1477303,82.31292517,1575472272,1575472273,0.816348314,1575472270,1575472272,,,S6,1,51,m,expert radiologist,2019_Dec_04_0902,AdjustEyeTrack,3.1.5,59.98039169
49,Stimuli/Morph49.JPG,Stimuli/Morph49.png,Stimuli/BlurLevel5/BlurEditedMorph49,Stimuli/BlurLevel5/BlurEditedMorph49.png,Stimuli/BlurLevel5/NumberedMorphs/BlurEditedMorph49.png,Stimuli/BlurLevel5/OriginalBlur/BlurEditedMorph49.png,Stimuli/BlurMorphTrio/EditedMorph49.png,010135right.gif,Stimuli/normal_thumbnails/49right.gif,,,,,0,0,0,0,0,63,63,48,,,,,,,,,,,,,,,,,,,,,,,34,64,1,202,-2.317959636,-0.936516484,49,Experiment,,,,,,,,,108,55,-6,-6,,,,,,,,,,,,,,,558.5824758,559.0826692,558.5824758,559.0826692,91.83673469,1575472276,1575472279,3.000522137,1575472273,1575472276,,,S6,1,51,m,expert radiologist,2019_Dec_04_0902,AdjustEyeTrack,3.1.5,59.98039169
142,Stimuli/Morph142.JPG,Stimuli/Morph142.png,Stimuli/BlurLevel5/BlurEditedMorph142,Stimuli/BlurLevel5/BlurEditedMorph142.png,Stimuli/BlurLevel5/NumberedMorphs/BlurEditedMorph142.png,Stimuli/BlurLevel5/OriginalBlur/BlurEditedMorph142.png,Stimuli/BlurMorphTrio/EditedMorph142.png,None,None,,,,,0,0,0,0,0,64,64,141,,,,,,,,,,,,,,,,,,,,,,,75,65,1,295,1.056545654,-2.265769468,142,Experiment,,,,,,,,,55,141,1,1,,,,,,,,,,,,,,,564.1054542,564.6142295,564.1054542,564.6142295,98.63945578,1575472282,1575472285,2.933582783,1575472280,1575472282,,,S6,1,51,m,expert radiologist,2019_Dec_04_0902,AdjustEyeTrack,3.1.5,59.98039169
90,Stimuli/Morph90.JPG,Stimuli/Morph90.png,Stimuli/BlurLevel5/BlurEditedMorph90,Stimuli/BlurLevel5/BlurEditedMorph90.png,Stimuli/BlurLevel5/NumberedMorphs/BlurEditedMorph90.png,Stimuli/BlurLevel5/OriginalBlur/BlurEditedMorph90.png,Stimuli/BlurMorphTrio/EditedMorph90.png,020275right.gif,Stimuli/normal_thumbnails/90right.gif,,,,,0,0,0,0,0,65,65,89,,,,,,,,,,,,,,,,,,,,,,,32,66,1,252,-0.772542486,-2.377641291,90,Experiment,,,,,,,,,102,102,-12,-12,,,,,,,,,,,,,,,569.7805708,570.2802675,569.7805708,570.2802675,83.67346939,1575472287,1575472288,0.596808195,1575472285,1575472287,,,S6,1,51,m,expert radiologist,2019_Dec_04_0902,AdjustEyeTrack,3.1.5,59.98039169
92,Stimuli/Morph92.JPG,Stimuli/Morph92.png,Stimuli/BlurLevel5/BlurEditedMorph92,Stimuli/BlurLevel5/BlurEditedMorph92.png,Stimuli/BlurLevel5/NumberedMorphs/BlurEditedMorph92.png,Stimuli/BlurLevel5/OriginalBlur/BlurEditedMorph92.png,Stimuli/BlurMorphTrio/EditedMorph92.png,020277right.gif,Stimuli/normal_thumbnails/92right.gif,,,,,0,0,0,0,0,66,66,91,,,,,,,,,,,,,,,,,,,,,,,33,67,1,204,-2.283863644,-1.016841608,92,Experiment,,,,,,,,,143,94,-2,-2,,,,,,,,,,,,,,,573.1172956,573.615056,573.1172956,573.615056,97.27891156,1575472291,1575472292,1.717251778,1575472288,1575472291,,,S6,1,51,m,expert radiologist,2019_Dec_04_0902,AdjustEyeTrack,3.1.5,59.98039169
55,Stimuli/Morph55.JPG,Stimuli/Morph55.png,Stimuli/BlurLevel5/BlurEditedMorph55,Stimuli/BlurLevel5/BlurEditedMorph55.png,Stimuli/BlurLevel5/NumberedMorphs/BlurEditedMorph55.png,Stimuli/BlurLevel5/OriginalBlur/BlurEditedMorph55.png,Stimuli/BlurMorphTrio/EditedMorph55.png,010151right.gif,Stimuli/normal_thumbnails/55right.gif,,,,,0,0,0,0,0,67,67,54,,,,,,,,,,,,,,,,,,,,,,,1,68,1,148,-2.12012024,1.324798161,55,Experiment,,,,,,,,,5,71,-16,-16,,,,,,,,,,,,,,,576.8064092,577.2973529,576.8064092,577.2973529,78.23129252,1575472294,1575472297,3.082366943,1575472293,1575472294,,,S6,1,51,m,expert radiologist,2019_Dec_04_0902,AdjustEyeTrack,3.1.5,59.98039169
78,Stimuli/Morph78.JPG,Stimuli/Morph78.png,Stimuli/BlurLevel5/BlurEditedMorph78,Stimuli/BlurLevel5/BlurEditedMorph78.png,Stimuli/BlurLevel5/NumberedMorphs/BlurEditedMorph78.png,Stimuli/BlurLevel5/OriginalBlur/BlurEditedMorph78.png,Stimuli/BlurMorphTrio/EditedMorph78.png,020238right.gif,Stimuli/normal_thumbnails/78right.gif,,,,,0,0,0,0,0,68,68,77,,,,,,,,,,,,,,,,,,,,,,,87,69,1,93,-0.130839891,2.496573837,78,Experiment,,,,,,,,,44,83,-5,-5,,,,,,,,,,,,,,,582.6636852,583.1629906,582.6636852,583.1629906,93.19727891,1575472300,1575472303,2.900014877,1575472298,1575472300,,,S6,1,51,m,expert radiologist,2019_Dec_04_0902,AdjustEyeTrack,3.1.5,59.98039169
1,Stimuli/Morph1.JPG,Stimuli/Morph1.png,Stimuli/BlurLevel5/BlurEditedMorph1,Stimuli/BlurLevel5/BlurEditedMorph1.png,Stimuli/BlurLevel5/NumberedMorphs/BlurEditedMorph1.png,Stimuli/BlurLevel5/OriginalBlur/BlurEditedMorph1.png,Stimuli/BlurMorphTrio/EditedMorph1.png,010003right.gif,Stimuli/normal_thumbnails/1right.gif,,,,,0,0,0,0,0,69,69,0,,,,,,,,,,,,,,,,,,,,,,,37,70,1,340,2.349231552,-0.855050358,1,Experiment,,,,,,,,,25,2,-1,-1,,,,,,,,,,,,,,,588.2815716,588.7803688,588.2815716,588.7803688,98.63945578,1575472306,1575472309,2.966994286,1575472303,1575472306,,,S6,1,51,m,expert radiologist,2019_Dec_04_0902,AdjustEyeTrack,3.1.5,59.98039169
121,Stimuli/Morph121.JPG,Stimuli/Morph121.png,Stimuli/BlurLevel5/BlurEditedMorph121,Stimuli/BlurLevel5/BlurEditedMorph121.png,Stimuli/BlurLevel5/NumberedMorphs/BlurEditedMorph121.png,Stimuli/BlurLevel5/OriginalBlur/BlurEditedMorph121.png,Stimuli/BlurMorphTrio/EditedMorph121.png,None,None,,,,,0,0,0,0,0,70,70,120,,,,,,,,,,,,,,,,,,,,,,,37,71,1,221,-1.886773951,-1.640147572,121,Experiment,,,,,,,,,22,123,-2,-2,,,,,,,,,,,,,,,593.620359,594.1138911,593.620359,594.1138911,97.27891156,1575472311,1575472314,2.664976835,1575472309,1575472311,,,S6,1,51,m,expert radiologist,2019_Dec_04_0902,AdjustEyeTrack,3.1.5,59.98039169
22,Stimuli/Morph22.JPG,Stimuli/Morph22.png,Stimuli/BlurLevel5/BlurEditedMorph22,Stimuli/BlurLevel5/BlurEditedMorph22.png,Stimuli/BlurLevel5/NumberedMorphs/BlurEditedMorph22.png,Stimuli/BlurLevel5/OriginalBlur/BlurEditedMorph22.png,Stimuli/BlurMorphTrio/EditedMorph22.png,010055right.gif,Stimuli/normal_thumbnails/22right.gif,,,,,0,0,0,0,0,71,71,21,,,,,,,,,,,,,,,,,,,,,,,32,72,1,42,1.857862064,1.672826516,22,Experiment,,,,,,,,,55,26,-4,-4,,,,,,,,,,,,,,,598.7806868,599.2793923,598.7806868,599.2793923,94.55782313,1575472316,1575472320,3.183340073,1575472314,1575472316,,,S6,1,51,m,expert radiologist,2019_Dec_04_0902,AdjustEyeTrack,3.1.5,59.98039169
147,Stimuli/Morph147.JPG,Stimuli/Morph147.png,Stimuli/BlurLevel5/BlurEditedMorph147,Stimuli/BlurLevel5/BlurEditedMorph147.png,Stimuli/BlurLevel5/NumberedMorphs/BlurEditedMorph147.png,Stimuli/BlurLevel5/OriginalBlur/BlurEditedMorph147.png,Stimuli/BlurMorphTrio/EditedMorph147.png,None,None,,,,,0,0,0,0,0,72,72,146,,,,,,,,,,,,,,,,,,,,,,,31,73,1,54,1.469463131,2.022542486,147,Experiment,,,,,,,,,50,139,8,8,,,,,,,,,,,,,,,604.8303247,605.3492024,604.8303247,605.3492024,89.11564626,1575472322,1575472325,2.601057053,1575472320,1575472322,,,S6,1,51,m,expert radiologist,2019_Dec_04_0902,AdjustEyeTrack,3.1.5,59.98039169
75,Stimuli/Morph75.JPG,Stimuli/Morph75.png,Stimuli/BlurLevel5/BlurEditedMorph75,Stimuli/BlurLevel5/BlurEditedMorph75.png,Stimuli/BlurLevel5/NumberedMorphs/BlurEditedMorph75.png,Stimuli/BlurLevel5/OriginalBlur/BlurEditedMorph75.png,Stimuli/BlurMorphTrio/EditedMorph75.png,020233right.gif,Stimuli/normal_thumbnails/75right.gif,,,,,0,0,0,0,0,73,73,74,,,,,,,,,,,,,,,,,,,,,,,39,74,1,236,-1.397982259,-2.072593931,75,Experiment,,,,,,,,,2,76,-1,-1,,,,,,,,,,,,,,,610.0022936,610.4960518,610.0022936,610.4960518,98.63945578,1575472328,1575472330,2.116895914,1575472325,1575472328,,,S6,1,51,m,expert radiologist,2019_Dec_04_0902,AdjustEyeTrack,3.1.5,59.98039169
81,Stimuli/Morph81.JPG,Stimuli/Morph81.png,Stimuli/BlurLevel5/BlurEditedMorph81,Stimuli/BlurLevel5/BlurEditedMorph81.png,Stimuli/BlurLevel5/NumberedMorphs/BlurEditedMorph81.png,Stimuli/BlurLevel5/OriginalBlur/BlurEditedMorph81.png,Stimuli/BlurMorphTrio/EditedMorph81.png,020245right.gif,Stimuli/normal_thumbnails/81right.gif,,,,,0,0,0,0,0,74,74,80,,,,,,,,,,,,,,,,,,,,,,,47,75,1,156,-2.283863644,1.016841608,81,Experiment,,,,,,,,,130,81,0,0,,,,,,,,,,,,,,,615.3869173,615.8965386,615.3869173,615.8965386,100,1575472333,1575472335,2.500432014,1575472330,1575472333,,,S6,1,51,m,expert radiologist,2019_Dec_04_0902,AdjustEyeTrack,3.1.5,59.98039169
62,Stimuli/Morph62.JPG,Stimuli/Morph62.png,Stimuli/BlurLevel5/BlurEditedMorph62,Stimuli/BlurLevel5/BlurEditedMorph62.png,Stimuli/BlurLevel5/NumberedMorphs/BlurEditedMorph62.png,Stimuli/BlurLevel5/OriginalBlur/BlurEditedMorph62.png,Stimuli/BlurMorphTrio/EditedMorph62.png,020205right.gif,Stimuli/normal_thumbnails/62right.gif,,,,,0,0,0,0,0,75,75,61,,,,,,,,,,,,,,,,,,,,,,,9,76,1,173,-2.481365379,0.304673359,62,Experiment,,,,,,,,,92,75,-13,-13,,,,,,,,,,,,,,,620.2974392,620.7971271,620.2974392,620.7971271,82.31292517,1575472338,1575472340,2.432651043,1575472336,1575472338,,,S6,1,51,m,expert radiologist,2019_Dec_04_0902,AdjustEyeTrack,3.1.5,59.98039169
96,Stimuli/Morph96.JPG,Stimuli/Morph96.png,Stimuli/BlurLevel5/BlurEditedMorph96,Stimuli/BlurLevel5/BlurEditedMorph96.png,Stimuli/BlurLevel5/NumberedMorphs/BlurEditedMorph96.png,Stimuli/BlurLevel5/OriginalBlur/BlurEditedMorph96.png,Stimuli/BlurMorphTrio/EditedMorph96.png,020292right.gif,Stimuli/normal_thumbnails/96right.gif,,,,,0,0,0,0,0,76,76,95,,,,,,,,,,,,,,,,,,,,,,,32,77,1,51,1.573300978,1.942864904,96,Experiment,,,,,,,,,61,90,6,6,,,,,,,,,,,,,,,625.1488876,625.6630552,625.1488876,625.6630552,91.83673469,1575472343,1575472345,2.166854858,1575472341,1575472343,,,S6,1,51,m,expert radiologist,2019_Dec_04_0902,AdjustEyeTrack,3.1.5,59.98039169
130,Stimuli/Morph130.JPG,Stimuli/Morph130.png,Stimuli/BlurLevel5/BlurEditedMorph130,Stimuli/BlurLevel5/BlurEditedMorph130.png,Stimuli/BlurLevel5/NumberedMorphs/BlurEditedMorph130.png,Stimuli/BlurLevel5/OriginalBlur/BlurEditedMorph130.png,Stimuli/BlurMorphTrio/EditedMorph130.png,None,None,,,,,0,0,0,0,0,77,77,129,,,,,,,,,,,,,,,,,,,,,,,19,78,1,88,0.087248742,2.498477068,130,Experiment,,,,,,,,,28,5,125,-22,,,,,,,,,,,,,,,630.0670807,630.5626818,630.0670807,630.5626818,70.06802721,1575472348,1575472355,7.53322506,1575472345,1575472348,,,S6,1,51,m,expert radiologist,2019_Dec_04_0902,AdjustEyeTrack,3.1.5,59.98039169
76,Stimuli/Morph76.JPG,Stimuli/Morph76.png,Stimuli/BlurLevel5/BlurEditedMorph76,Stimuli/BlurLevel5/BlurEditedMorph76.png,Stimuli/BlurLevel5/NumberedMorphs/BlurEditedMorph76.png,Stimuli/BlurLevel5/OriginalBlur/BlurEditedMorph76.png,Stimuli/BlurMorphTrio/EditedMorph76.png,020234right.gif,Stimuli/normal_thumbnails/76right.gif,,,,,0,0,0,0,0,78,78,75,,,,,,,,,,,,,,,,,,,,,,,22,79,1,29,2.186549268,1.212024051,76,Experiment,,,,,,,,,143,76,0,0,,,,,,,,,,,,,,,640.3822557,640.8989614,640.3822557,640.8989614,100,1575472358,1575472360,2.150969982,1575472355,1575472358,,,S6,1,51,m,expert radiologist,2019_Dec_04_0902,AdjustEyeTrack,3.1.5,59.98039169
129,Stimuli/Morph129.JPG,Stimuli/Morph129.png,Stimuli/BlurLevel5/BlurEditedMorph129,Stimuli/BlurLevel5/BlurEditedMorph129.png,Stimuli/BlurLevel5/NumberedMorphs/BlurEditedMorph129.png,Stimuli/BlurLevel5/OriginalBlur/BlurEditedMorph129.png,Stimuli/BlurMorphTrio/EditedMorph129.png,None,None,,,,,0,0,0,0,0,79,79,128,,,,,,,,,,,,,,,,,,,,,,,59,80,1,22,2.317959636,0.936516484,129,Experiment,,,,,,,,,11,131,-2,-2,,,,,,,,,,,,,,,644.9889058,645.4960967,644.9889058,645.4960967,97.27891156,1575472363,1575472365,2.616601706,1575472360,1575472363,,,S6,1,51,m,expert radiologist,2019_Dec_04_0902,AdjustEyeTrack,3.1.5,59.98039169
77,Stimuli/Morph77.JPG,Stimuli/Morph77.png,Stimuli/BlurLevel5/BlurEditedMorph77,Stimuli/BlurLevel5/BlurEditedMorph77.png,Stimuli/BlurLevel5/NumberedMorphs/BlurEditedMorph77.png,Stimuli/BlurLevel5/OriginalBlur/BlurEditedMorph77.png,Stimuli/BlurMorphTrio/EditedMorph77.png,020235right.gif,Stimuli/normal_thumbnails/77right.gif,,,,,0,0,0,0,0,80,80,76,,,,,,,,,,,,,,,,,,,,,,,70,81,1,349,2.454067959,-0.477022488,77,Experiment,,,,,,,,,118,78,-1,-1,,,,,,,,,,,,,,,650.1838581,650.697467,650.1838581,650.697467,98.63945578,1575472368,1575472369,1.566644907,1575472365,1575472368,,,S6,1,51,m,expert radiologist,2019_Dec_04_0902,AdjustEyeTrack,3.1.5,59.98039169
43,Stimuli/Morph43.JPG,Stimuli/Morph43.png,Stimuli/BlurLevel5/BlurEditedMorph43,Stimuli/BlurLevel5/BlurEditedMorph43.png,Stimuli/BlurLevel5/NumberedMorphs/BlurEditedMorph43.png,Stimuli/BlurLevel5/OriginalBlur/BlurEditedMorph43.png,Stimuli/BlurMorphTrio/EditedMorph43.png,010124right.gif,Stimuli/normal_thumbnails/43right.gif,,,,,0,0,0,0,0,81,81,42,,,,,,,,,,,,,,,,,,,,,,,19,82,1,86,0.174391184,2.493910126,43,Experiment,,,,,,,,,83,66,-23,-23,,,,,,,,,,,,,,,654.429756,654.9461121,654.429756,654.9461121,68.70748299,1575472372,1575472374,2.217508078,1575472370,1575472372,,,S6,1,51,m,expert radiologist,2019_Dec_04_0902,AdjustEyeTrack,3.1.5,59.98039169
131,Stimuli/Morph131.JPG,Stimuli/Morph131.png,Stimuli/BlurLevel5/BlurEditedMorph131,Stimuli/BlurLevel5/BlurEditedMorph131.png,Stimuli/BlurLevel5/NumberedMorphs/BlurEditedMorph131.png,Stimuli/BlurLevel5/OriginalBlur/BlurEditedMorph131.png,Stimuli/BlurMorphTrio/EditedMorph131.png,None,None,,,,,0,0,0,0,0,82,82,130,,,,,,,,,,,,,,,,,,,,,,,85,83,1,253,-0.730929262,-2.39076189,131,Experiment,,,,,,,,,78,143,-12,-12,,,,,,,,,,,,,,,659.1977779,659.7140265,659.1977779,659.7140265,83.67346939,1575472377,1575472379,2.417482138,1575472374,1575472377,,,S6,1,51,m,expert radiologist,2019_Dec_04_0902,AdjustEyeTrack,3.1.5,59.98039169
79,Stimuli/Morph79.JPG,Stimuli/Morph79.png,Stimuli/BlurLevel5/BlurEditedMorph79,Stimuli/BlurLevel5/BlurEditedMorph79.png,Stimuli/BlurLevel5/NumberedMorphs/BlurEditedMorph79.png,Stimuli/BlurLevel5/OriginalBlur/BlurEditedMorph79.png,Stimuli/BlurMorphTrio/EditedMorph79.png,020239right.gif,Stimuli/normal_thumbnails/79right.gif,,,,,0,0,0,0,0,83,83,78,,,,,,,,,,,,,,,,,,,,,,,45,84,1,5,2.490486745,0.217889357,79,Experiment,,,,,,,,,8,86,-7,-7,,,,,,,,,,,,,,,663.9628481,664.4652774,663.9628481,664.4652774,90.47619048,1575472382,1575472383,1.966405869,1575472379,1575472381,,,S6,1,51,m,expert radiologist,2019_Dec_04_0902,AdjustEyeTrack,3.1.5,59.98039169
71,Stimuli/Morph71.JPG,Stimuli/Morph71.png,Stimuli/BlurLevel5/BlurEditedMorph71,Stimuli/BlurLevel5/BlurEditedMorph71.png,Stimuli/BlurLevel5/NumberedMorphs/BlurEditedMorph71.png,Stimuli/BlurLevel5/OriginalBlur/BlurEditedMorph71.png,Stimuli/BlurMorphTrio/EditedMorph71.png,020225right.gif,Stimuli/normal_thumbnails/71right.gif,,,,,0,0,0,0,0,84,84,70,,,,,,,,,,,,,,,,,,,,,,,2,85,1,344,2.40315424,-0.68909339,71,Experiment,,,,,,,,,137,81,-10,-10,,,,,,,,,,,,,,,668.6292384,669.1295127,668.6292384,669.1295127,86.39455782,1575472386,1575472389,2.349914074,1575472384,1575472386,,,S6,1,51,m,expert radiologist,2019_Dec_04_0902,AdjustEyeTrack,3.1.5,59.98039169
121,Stimuli/Morph121.JPG,Stimuli/Morph121.png,Stimuli/BlurLevel5/BlurEditedMorph121,Stimuli/BlurLevel5/BlurEditedMorph121.png,Stimuli/BlurLevel5/NumberedMorphs/BlurEditedMorph121.png,Stimuli/BlurLevel5/OriginalBlur/BlurEditedMorph121.png,Stimuli/BlurMorphTrio/EditedMorph121.png,None,None,,,,,1,0,1,0,0,0,0,120,,,,,,,,,,,,,,,,,,,,,,,83,1,2,40,1.915111108,1.606969024,121,Experiment,,,,,,,,,137,128,-7,-7,,,,,,,,,,,,,,,724.0161791,724.5112822,724.0161791,724.5112822,90.47619048,1575472442,1575472446,4.783437252,1575472439,1575472442,space,50.24016011,S6,1,51,m,expert radiologist,2019_Dec_04_0902,AdjustEyeTrack,3.1.5,59.98039169
44,Stimuli/Morph44.JPG,Stimuli/Morph44.png,Stimuli/BlurLevel5/BlurEditedMorph44,Stimuli/BlurLevel5/BlurEditedMorph44.png,Stimuli/BlurLevel5/NumberedMorphs/BlurEditedMorph44.png,Stimuli/BlurLevel5/OriginalBlur/BlurEditedMorph44.png,Stimuli/BlurMorphTrio/EditedMorph44.png,010126right.gif,Stimuli/normal_thumbnails/44right.gif,,,,,1,0,1,0,0,1,1,43,,,,,,,,,,,,,,,,,,,,,,,64,2,2,167,-2.435925162,0.562377636,44,Experiment,,,,,,,,,91,82,-38,-38,,,,,,,,,,,,,,,731.5303604,732.0287256,731.5303604,732.0287256,48.29931973,1575472449,1575472452,3.112930059,1575472447,1575472449,,,S6,1,51,m,expert radiologist,2019_Dec_04_0902,AdjustEyeTrack,3.1.5,59.98039169
34,Stimuli/Morph34.JPG,Stimuli/Morph34.png,Stimuli/BlurLevel5/BlurEditedMorph34,Stimuli/BlurLevel5/BlurEditedMorph34.png,Stimuli/BlurLevel5/NumberedMorphs/BlurEditedMorph34.png,Stimuli/BlurLevel5/OriginalBlur/BlurEditedMorph34.png,Stimuli/BlurMorphTrio/EditedMorph34.png,010090right.gif,Stimuli/normal_thumbnails/34right.gif,,,,,1,0,1,0,0,2,2,33,,,,,,,,,,,,,,,,,,,,,,,75,3,2,325,2.047880111,-1.433941091,34,Experiment,,,,,,,,,42,34,0,0,,,,,,,,,,,,,,,737.2612133,737.7794499,737.2612133,737.7794499,100,1575472455,1575472457,1.949868202,1575472452,1575472455,,,S6,1,51,m,expert radiologist,2019_Dec_04_0902,AdjustEyeTrack,3.1.5,59.98039169
66,Stimuli/Morph66.JPG,Stimuli/Morph66.png,Stimuli/BlurLevel5/BlurEditedMorph66,Stimuli/BlurLevel5/BlurEditedMorph66.png,Stimuli/BlurLevel5/NumberedMorphs/BlurEditedMorph66.png,Stimuli/BlurLevel5/OriginalBlur/BlurEditedMorph66.png,Stimuli/BlurMorphTrio/EditedMorph66.png,020212right.gif,Stimuli/normal_thumbnails/66right.gif,,,,,1,0,1,0,0,3,3,65,,,,,,,,,,,,,,,,,,,,,,,35,4,2,351,2.469220851,-0.391086163,66,Experiment,,,,,,,,,2,79,-13,-13,,,,,,,,,,,,,,,741.6614926,742.1611427,741.6614926,742.1611427,82.31292517,1575472459,1575472461,2.003879786,1575472457,1575472459,,,S6,1,51,m,expert radiologist,2019_Dec_04_0902,AdjustEyeTrack,3.1.5,59.98039169
99,Stimuli/Morph99.JPG,Stimuli/Morph99.png,Stimuli/BlurLevel5/BlurEditedMorph99,Stimuli/BlurLevel5/BlurEditedMorph99.png,Stimuli/BlurLevel5/NumberedMorphs/BlurEditedMorph99.png,Stimuli/BlurLevel5/OriginalBlur/BlurEditedMorph99.png,Stimuli/BlurMorphTrio/EditedMorph99.png,020299right.gif,Stimuli/normal_thumbnails/99right.gif,,,,,1,0,1,0,0,4,4,98,,,,,,,,,,,,,,,,,,,,,,,94,5,2,53,1.504537558,1.996588775,99,Experiment,,,,,,,,,30,98,1,1,,,,,,,,,,,,,,,746.8330714,747.3454981,746.8330714,747.3454981,98.63945578,1575472464,1575472467,2.473473072,1575472461,1575472464,,,S6,1,51,m,expert radiologist,2019_Dec_04_0902,AdjustEyeTrack,3.1.5,59.98039169
140,Stimuli/Morph140.JPG,Stimuli/Morph140.png,Stimuli/BlurLevel5/BlurEditedMorph140,Stimuli/BlurLevel5/BlurEditedMorph140.png,Stimuli/BlurLevel5/NumberedMorphs/BlurEditedMorph140.png,Stimuli/BlurLevel5/OriginalBlur/BlurEditedMorph140.png,Stimuli/BlurMorphTrio/EditedMorph140.png,None,None,,,,,1,0,1,0,0,5,5,139,,,,,,,,,,,,,,,,,,,,,,,94,6,2,36,2.022542486,1.469463131,140,Experiment,,,,,,,,,4,4,136,-11,,,,,,,,,,,,,,,751.8610123,752.3785444,751.8610123,752.3785444,85.03401361,1575472469,1575472470,1.050815105,1575472467,1575472469,,,S6,1,51,m,expert radiologist,2019_Dec_04_0902,AdjustEyeTrack,3.1.5,59.98039169
124,Stimuli/Morph124.JPG,Stimuli/Morph124.png,Stimuli/BlurLevel5/BlurEditedMorph124,Stimuli/BlurLevel5/BlurEditedMorph124.png,Stimuli/BlurLevel5/NumberedMorphs/BlurEditedMorph124.png,Stimuli/BlurLevel5/OriginalBlur/BlurEditedMorph124.png,Stimuli/BlurMorphTrio/EditedMorph124.png,None,None,,,,,1,0,1,0,0,6,6,123,,,,,,,,,,,,,,,,,,,,,,,56,7,2,350,2.462019383,-0.434120444,124,Experiment,,,,,,,,,120,120,4,4,,,,,,,,,,,,,,,756.078986,756.578181,756.078986,756.578181,94.55782313,1575472474,1575472474,0.733412981,1575472471,1575472474,,,S6,1,51,m,expert radiologist,2019_Dec_04_0902,AdjustEyeTrack,3.1.5,59.98039169
1,Stimuli/Morph1.JPG,Stimuli/Morph1.png,Stimuli/BlurLevel5/BlurEditedMorph1,Stimuli/BlurLevel5/BlurEditedMorph1.png,Stimuli/BlurLevel5/NumberedMorphs/BlurEditedMorph1.png,Stimuli/BlurLevel5/OriginalBlur/BlurEditedMorph1.png,Stimuli/BlurMorphTrio/EditedMorph1.png,010003right.gif,Stimuli/normal_thumbnails/1right.gif,,,,,1,0,1,0,0,7,7,0,,,,,,,,,,,,,,,,,,,,,,,26,8,2,332,2.207368982,-1.173678907,1,Experiment,,,,,,,,,54,139,-138,9,,,,,,,,,,,,,,,759.3777304,759.8773383,759.3777304,759.8773383,87.75510204,1575472477,1575472479,2.183623075,1575472475,1575472477,,,S6,1,51,m,expert radiologist,2019_Dec_04_0902,AdjustEyeTrack,3.1.5,59.98039169
117,Stimuli/Morph117.JPG,Stimuli/Morph117.png,Stimuli/BlurLevel5/BlurEditedMorph117,Stimuli/BlurLevel5/BlurEditedMorph117.png,Stimuli/BlurLevel5/NumberedMorphs/BlurEditedMorph117.png,Stimuli/BlurLevel5/OriginalBlur/BlurEditedMorph117.png,Stimuli/BlurMorphTrio/EditedMorph117.png,None,None,,,,,1,0,1,0,0,8,8,116,,,,,,,,,,,,,,,,,,,,,,,93,9,2,354,2.486304738,-0.261321158,117,Experiment,,,,,,,,,99,99,18,18,,,,,,,,,,,,,,,764.617966,765.1110378,764.617966,765.1110378,75.51020408,1575472482,1575472483,0.699082851,1575472479,1575472482,,,S6,1,51,m,expert radiologist,2019_Dec_04_0902,AdjustEyeTrack,3.1.5,59.98039169
90,Stimuli/Morph90.JPG,Stimuli/Morph90.png,Stimuli/BlurLevel5/BlurEditedMorph90,Stimuli/BlurLevel5/BlurEditedMorph90.png,Stimuli/BlurLevel5/NumberedMorphs/BlurEditedMorph90.png,Stimuli/BlurLevel5/OriginalBlur/BlurEditedMorph90.png,Stimuli/BlurMorphTrio/EditedMorph90.png,020275right.gif,Stimuli/normal_thumbnails/90right.gif,,,,,1,0,1,0,0,9,9,89,,,,,,,,,,,,,,,,,,,,,,,79,10,2,79,0.477022488,2.454067959,90,Experiment,,,,,,,,,129,97,-7,-7,,,,,,,,,,,,,,,767.9173875,768.4286173,767.9173875,768.4286173,90.47619048,1575472485,1575472489,3.100002766,1575472483,1575472485,,,S6,1,51,m,expert radiologist,2019_Dec_04_0902,AdjustEyeTrack,3.1.5,59.98039169
112,Stimuli/Morph112.JPG,Stimuli/Morph112.png,Stimuli/BlurLevel5/BlurEditedMorph112,Stimuli/BlurLevel5/BlurEditedMorph112.png,Stimuli/BlurLevel5/NumberedMorphs/BlurEditedMorph112.png,Stimuli/BlurLevel5/OriginalBlur/BlurEditedMorph112.png,Stimuli/BlurMorphTrio/EditedMorph112.png,None,None,,,,,1,0,1,0,0,10,10,111,,,,,,,,,,,,,,,,,,,,,,,37,11,2,98,-0.347932752,2.475670172,112,Experiment,,,,,,,,,91,91,21,21,,,,,,,,,,,,,,,773.8862597,774.3805863,773.8862597,774.3805863,71.42857143,1575472491,1575472493,1.401150942,1575472489,1575472491,,,S6,1,51,m,expert radiologist,2019_Dec_04_0902,AdjustEyeTrack,3.1.5,59.98039169
82,Stimuli/Morph82.JPG,Stimuli/Morph82.png,Stimuli/BlurLevel5/BlurEditedMorph82,Stimuli/BlurLevel5/BlurEditedMorph82.png,Stimuli/BlurLevel5/NumberedMorphs/BlurEditedMorph82.png,Stimuli/BlurLevel5/OriginalBlur/BlurEditedMorph82.png,Stimuli/BlurMorphTrio/EditedMorph82.png,020247right.gif,Stimuli/normal_thumbnails/82right.gif,,,,,1,0,1,0,0,11,11,81,,,,,,,,,,,,,,,,,,,,,,,41,12,2,107,-0.730929262,2.39076189,82,Experiment,,,,,,,,,83,83,-1,-1,,,,,,,,,,,,,,,778.1624101,778.6605429,778.1624101,778.6605429,98.63945578,1575472496,1575472497,0.934084177,1575472493,1575472496,,,S6,1,51,m,expert radiologist,2019_Dec_04_0902,AdjustEyeTrack,3.1.5,59.98039169
142,Stimuli/Morph142.JPG,Stimuli/Morph142.png,Stimuli/BlurLevel5/BlurEditedMorph142,Stimuli/BlurLevel5/BlurEditedMorph142.png,Stimuli/BlurLevel5/NumberedMorphs/BlurEditedMorph142.png,Stimuli/BlurLevel5/OriginalBlur/BlurEditedMorph142.png,Stimuli/BlurMorphTrio/EditedMorph142.png,None,None,,,,,1,0,1,0,0,12,12,141,,,,,,,,,,,,,,,,,,,,,,,74,13,2,347,2.435925162,-0.562377636,142,Experiment,,,,,,,,,55,144,-2,-2,,,,,,,,,,,,,,,781.7466459,782.2609205,781.7466459,782.2609205,97.27891156,1575472499,1575472502,2.450255156,1575472497,1575472499,,,S6,1,51,m,expert radiologist,2019_Dec_04_0902,AdjustEyeTrack,3.1.5,59.98039169
122,Stimuli/Morph122.JPG,Stimuli/Morph122.png,Stimuli/BlurLevel5/BlurEditedMorph122,Stimuli/BlurLevel5/BlurEditedMorph122.png,Stimuli/BlurLevel5/NumberedMorphs/BlurEditedMorph122.png,Stimuli/BlurLevel5/OriginalBlur/BlurEditedMorph122.png,Stimuli/BlurMorphTrio/EditedMorph122.png,None,None,,,,,1,0,1,0,0,13,13,121,,,,,,,,,,,,,,,,,,,,,,,70,14,2,41,1.886773951,1.640147572,122,Experiment,,,,,,,,,119,119,3,3,,,,,,,,,,,,,,,786.7136418,787.2264969,786.7136418,787.2264969,95.91836735,1575472504,1575472506,1.632380962,1575472502,1575472504,,,S6,1,51,m,expert radiologist,2019_Dec_04_0902,AdjustEyeTrack,3.1.5,59.98039169
12,Stimuli/Morph12.JPG,Stimuli/Morph12.png,Stimuli/BlurLevel5/BlurEditedMorph12,Stimuli/BlurLevel5/BlurEditedMorph12.png,Stimuli/BlurLevel5/NumberedMorphs/BlurEditedMorph12.png,Stimuli/BlurLevel5/OriginalBlur/BlurEditedMorph12.png,Stimuli/BlurMorphTrio/EditedMorph12.png,010026right.gif,Stimuli/normal_thumbnails/12right.gif,,,,,1,0,1,0,0,14,14,11,,,,,,,,,,,,,,,,,,,,,,,19,15,2,204,-2.283863644,-1.016841608,12,Experiment,,,,,,,,,105,33,-21,-21,,,,,,,,,,,,,,,791.6791973,792.177515,791.6791973,792.177515,71.42857143,1575472509,1575472514,4.368246078,1575472506,1575472509,,,S6,1,51,m,expert radiologist,2019_Dec_04_0902,AdjustEyeTrack,3.1.5,59.98039169
43,Stimuli/Morph43.JPG,Stimuli/Morph43.png,Stimuli/BlurLevel5/BlurEditedMorph43,Stimuli/BlurLevel5/BlurEditedMorph43.png,Stimuli/BlurLevel5/NumberedMorphs/BlurEditedMorph43.png,Stimuli/BlurLevel5/OriginalBlur/BlurEditedMorph43.png,Stimuli/BlurMorphTrio/EditedMorph43.png,010124right.gif,Stimuli/normal_thumbnails/43right.gif,,,,,1,0,1,0,0,15,15,42,,,,,,,,,,,,,,,,,,,,,,,16,16,2,53,1.504537558,1.996588775,43,Experiment,,,,,,,,,48,36,7,7,,,,,,,,,,,,,,,798.995457,799.4940101,798.995457,799.4940101,90.47619048,1575472517,1575472518,1.351139784,1575472514,1575472517,,,S6,1,51,m,expert radiologist,2019_Dec_04_0902,AdjustEyeTrack,3.1.5,59.98039169
53,Stimuli/Morph53.JPG,Stimuli/Morph53.png,Stimuli/BlurLevel5/BlurEditedMorph53,Stimuli/BlurLevel5/BlurEditedMorph53.png,Stimuli/BlurLevel5/NumberedMorphs/BlurEditedMorph53.png,Stimuli/BlurLevel5/OriginalBlur/BlurEditedMorph53.png,Stimuli/BlurMorphTrio/EditedMorph53.png,010149right.gif,Stimuli/normal_thumbnails/53right.gif,,,,,1,0,1,0,0,16,16,52,,,,,,,,,,,,,,,,,,,,,,,11,17,2,291,0.895919874,-2.333951066,53,Experiment,,,,,,,,,99,44,9,9,,,,,,,,,,,,,,,803.4356925,804.0102244,803.4356925,804.0102244,87.75510204,1575472521,1575472525,4.299926996,1575472518,1575472521,,,S6,1,51,m,expert radiologist,2019_Dec_04_0902,AdjustEyeTrack,3.1.5,59.98039169
30,Stimuli/Morph30.JPG,Stimuli/Morph30.png,Stimuli/BlurLevel5/BlurEditedMorph30,Stimuli/BlurLevel5/BlurEditedMorph30.png,Stimuli/BlurLevel5/NumberedMorphs/BlurEditedMorph30.png,Stimuli/BlurLevel5/OriginalBlur/BlurEditedMorph30.png,Stimuli/BlurMorphTrio/EditedMorph30.png,010076right.gif,Stimuli/normal_thumbnails/30right.gif,,,,,1,0,1,0,0,17,17,29,,,,,,,,,,,,,,,,,,,,,,,41,18,2,67,0.976827821,2.301262134,30,Experiment,,,,,,,,,60,28,2,2,,,,,,,,,,,,,,,810.5531829,811.0768887,810.5531829,811.0768887,97.27891156,1575472528,1575472531,2.417094231,1575472526,1575472528,,,S6,1,51,m,expert radiologist,2019_Dec_04_0902,AdjustEyeTrack,3.1.5,59.98039169
15,Stimuli/Morph15.JPG,Stimuli/Morph15.png,Stimuli/BlurLevel5/BlurEditedMorph15,Stimuli/BlurLevel5/BlurEditedMorph15.png,Stimuli/BlurLevel5/NumberedMorphs/BlurEditedMorph15.png,Stimuli/BlurLevel5/OriginalBlur/BlurEditedMorph15.png,Stimuli/BlurMorphTrio/EditedMorph15.png,010031right.gif,Stimuli/normal_thumbnails/15right.gif,,,,,1,0,1,0,0,18,18,14,,,,,,,,,,,,,,,,,,,,,,,71,19,2,270,-4.59E-16,-2.5,15,Experiment,,,,,,,,,52,3,12,12,,,,,,,,,,,,,,,815.4933831,815.9943746,815.4933831,815.9943746,83.67346939,1575472533,1575472539,6.133313656,1575472531,1575472533,,,S6,1,51,m,expert radiologist,2019_Dec_04_0902,AdjustEyeTrack,3.1.5,59.98039169
110,Stimuli/Morph110.JPG,Stimuli/Morph110.png,Stimuli/BlurLevel5/BlurEditedMorph110,Stimuli/BlurLevel5/BlurEditedMorph110.png,Stimuli/BlurLevel5/NumberedMorphs/BlurEditedMorph110.png,Stimuli/BlurLevel5/OriginalBlur/BlurEditedMorph110.png,Stimuli/BlurMorphTrio/EditedMorph110.png,None,None,,,,,1,0,1,0,0,19,19,109,,,,,,,,,,,,,,,,,,,,,,,18,20,2,326,2.072593931,-1.397982259,110,Experiment,,,,,,,,,23,114,-4,-4,,,,,,,,,,,,,,,824.1468101,824.6446868,824.1468101,824.6446868,94.55782313,1575472542,1575472545,3.033097029,1575472539,1575472542,,,S6,1,51,m,expert radiologist,2019_Dec_04_0902,AdjustEyeTrack,3.1.5,59.98039169
120,Stimuli/Morph120.JPG,Stimuli/Morph120.png,Stimuli/BlurLevel5/BlurEditedMorph120,Stimuli/BlurLevel5/BlurEditedMorph120.png,Stimuli/BlurLevel5/NumberedMorphs/BlurEditedMorph120.png,Stimuli/BlurLevel5/OriginalBlur/BlurEditedMorph120.png,Stimuli/BlurMorphTrio/EditedMorph120.png,None,None,,,,,1,0,1,0,0,20,20,119,,,,,,,,,,,,,,,,,,,,,,,36,21,2,37,1.996588775,1.504537558,120,Experiment,,,,,,,,,95,95,25,25,,,,,,,,,,,,,,,830.1599703,830.660744,830.1599703,830.660744,65.98639456,1575472548,1575472548,0.699612141,1575472545,1575472548,,,S6,1,51,m,expert radiologist,2019_Dec_04_0902,AdjustEyeTrack,3.1.5,59.98039169
16,Stimuli/Morph16.JPG,Stimuli/Morph16.png,Stimuli/BlurLevel5/BlurEditedMorph16,Stimuli/BlurLevel5/BlurEditedMorph16.png,Stimuli/BlurLevel5/NumberedMorphs/BlurEditedMorph16.png,Stimuli/BlurLevel5/OriginalBlur/BlurEditedMorph16.png,Stimuli/BlurMorphTrio/EditedMorph16.png,010034right.gif,Stimuli/normal_thumbnails/16right.gif,,,,,1,0,1,0,0,21,21,15,,,,,,,,,,,,,,,,,,,,,,,18,22,2,341,2.363796439,-0.813920386,16,Experiment,,,,,,,,,73,24,-8,-8,,,,,,,,,,,,,,,833.1112099,833.6099432,833.1112099,833.6099432,89.11564626,1575472551,1575472552,1.548776865,1575472549,1575472551,,,S6,1,51,m,expert radiologist,2019_Dec_04_0902,AdjustEyeTrack,3.1.5,59.98039169
20,Stimuli/Morph20.JPG,Stimuli/Morph20.png,Stimuli/BlurLevel5/BlurEditedMorph20,Stimuli/BlurLevel5/BlurEditedMorph20.png,Stimuli/BlurLevel5/NumberedMorphs/BlurEditedMorph20.png,Stimuli/BlurLevel5/OriginalBlur/BlurEditedMorph20.png,Stimuli/BlurMorphTrio/EditedMorph20.png,010046right.gif,Stimuli/normal_thumbnails/20right.gif,,,,,1,0,1,0,0,22,22,19,,,,,,,,,,,,,,,,,,,,,,,57,23,2,179,-2.499619238,0.043631016,20,Experiment,,,,,,,,,67,27,-7,-7,,,,,,,,,,,,,,,837.4939131,837.9931431,837.4939131,837.9931431,90.47619048,1575472555,1575472556,1.283190012,1575472552,1575472555,,,S6,1,51,m,expert radiologist,2019_Dec_04_0902,AdjustEyeTrack,3.1.5,59.98039169
23,Stimuli/Morph23.JPG,Stimuli/Morph23.png,Stimuli/BlurLevel5/BlurEditedMorph23,Stimuli/BlurLevel5/BlurEditedMorph23.png,Stimuli/BlurLevel5/NumberedMorphs/BlurEditedMorph23.png,Stimuli/BlurLevel5/OriginalBlur/BlurEditedMorph23.png,Stimuli/BlurMorphTrio/EditedMorph23.png,010063right.gif,Stimuli/normal_thumbnails/23right.gif,,,,,1,0,1,0,0,23,23,22,,,,,,,,,,,,,,,,,,,,,,,28,24,2,268,-0.087248742,-2.498477068,23,Experiment,,,,,,,,,42,25,-2,-2,,,,,,,,,,,,,,,841.9950444,842.4937785,841.9950444,842.4937785,97.27891156,1575472560,1575472561,0.966526985,1575472557,1575472560,,,S6,1,51,m,expert radiologist,2019_Dec_04_0902,AdjustEyeTrack,3.1.5,59.98039169
138,Stimuli/Morph138.JPG,Stimuli/Morph138.png,Stimuli/BlurLevel5/BlurEditedMorph138,Stimuli/BlurLevel5/BlurEditedMorph138.png,Stimuli/BlurLevel5/NumberedMorphs/BlurEditedMorph138.png,Stimuli/BlurLevel5/OriginalBlur/BlurEditedMorph138.png,Stimuli/BlurMorphTrio/EditedMorph138.png,None,None,,,,,1,0,1,0,0,24,24,137,,,,,,,,,,,,,,,,,,,,,,,29,25,2,129,-1.573300978,1.942864904,138,Experiment,,,,,,,,,85,145,-7,-7,,,,,,,,,,,,,,,846.2632348,846.7601809,846.2632348,846.7601809,90.47619048,1575472564,1575472566,2.399528027,1575472561,1575472564,,,S6,1,51,m,expert radiologist,2019_Dec_04_0902,AdjustEyeTrack,3.1.5,59.98039169
144,Stimuli/Morph144.JPG,Stimuli/Morph144.png,Stimuli/BlurLevel5/BlurEditedMorph144,Stimuli/BlurLevel5/BlurEditedMorph144.png,Stimuli/BlurLevel5/NumberedMorphs/BlurEditedMorph144.png,Stimuli/BlurLevel5/OriginalBlur/BlurEditedMorph144.png,Stimuli/BlurMorphTrio/EditedMorph144.png,None,None,,,,,1,0,1,0,0,25,25,143,,,,,,,,,,,,,,,,,,,,,,,61,26,2,334,2.246985116,-1.095927867,144,Experiment,,,,,,,,,143,143,1,1,,,,,,,,,,,,,,,851.3796769,851.8769257,851.3796769,851.8769257,98.63945578,1575472569,1575472570,0.767671824,1575472566,1575472569,,,S6,1,51,m,expert radiologist,2019_Dec_04_0902,AdjustEyeTrack,3.1.5,59.98039169
57,Stimuli/Morph57.JPG,Stimuli/Morph57.png,Stimuli/BlurLevel5/BlurEditedMorph57,Stimuli/BlurLevel5/BlurEditedMorph57.png,Stimuli/BlurLevel5/NumberedMorphs/BlurEditedMorph57.png,Stimuli/BlurLevel5/OriginalBlur/BlurEditedMorph57.png,Stimuli/BlurMorphTrio/EditedMorph57.png,010158right.gif,Stimuli/normal_thumbnails/57right.gif,,,,,1,0,1,0,0,26,26,56,,,,,,,,,,,,,,,,,,,,,,,72,27,2,189,-2.469220851,-0.391086163,57,Experiment,,,,,,,,,95,51,6,6,,,,,,,,,,,,,,,854.9807277,855.477095,854.9807277,855.477095,91.83673469,1575472573,1575472574,1.483865023,1575472570,1575472573,,,S6,1,51,m,expert radiologist,2019_Dec_04_0902,AdjustEyeTrack,3.1.5,59.98039169
128,Stimuli/Morph128.JPG,Stimuli/Morph128.png,Stimuli/BlurLevel5/BlurEditedMorph128,Stimuli/BlurLevel5/BlurEditedMorph128.png,Stimuli/BlurLevel5/NumberedMorphs/BlurEditedMorph128.png,Stimuli/BlurLevel5/OriginalBlur/BlurEditedMorph128.png,Stimuli/BlurMorphTrio/EditedMorph128.png,None,None,,,,,1,0,1,0,0,27,27,127,,,,,,,,,,,,,,,,,,,,,,,19,28,2,133,-1.7049959,1.828384254,128,Experiment,,,,,,,,,51,51,77,-70,,,,,,,,,,,,,,,859.6449181,860.2983185,859.6449181,860.2983185,4.761904762,1575472577,1575472579,1.602826118,1575472574,1575472577,,,S6,1,51,m,expert radiologist,2019_Dec_04_0902,AdjustEyeTrack,3.1.5,59.98039169
89,Stimuli/Morph89.JPG,Stimuli/Morph89.png,Stimuli/BlurLevel5/BlurEditedMorph89,Stimuli/BlurLevel5/BlurEditedMorph89.png,Stimuli/BlurLevel5/NumberedMorphs/BlurEditedMorph89.png,Stimuli/BlurLevel5/OriginalBlur/BlurEditedMorph89.png,Stimuli/BlurMorphTrio/EditedMorph89.png,020273right.gif,Stimuli/normal_thumbnails/89right.gif,,,,,1,0,1,0,0,28,28,88,,,,,,,,,,,,,,,,,,,,,,,2,29,2,19,2.363796439,0.813920386,89,Experiment,,,,,,,,,6,87,2,2,,,,,,,,,,,,,,,863.8152557,864.3266383,863.8152557,864.3266383,97.27891156,1575472581,1575472586,4.13282609,1575472579,1575472581,,,S6,1,51,m,expert radiologist,2019_Dec_04_0902,AdjustEyeTrack,3.1.5,59.98039169
52,Stimuli/Morph52.JPG,Stimuli/Morph52.png,Stimuli/BlurLevel5/BlurEditedMorph52,Stimuli/BlurLevel5/BlurEditedMorph52.png,Stimuli/BlurLevel5/NumberedMorphs/BlurEditedMorph52.png,Stimuli/BlurLevel5/OriginalBlur/BlurEditedMorph52.png,Stimuli/BlurMorphTrio/EditedMorph52.png,010148right.gif,Stimuli/normal_thumbnails/52right.gif,,,,,1,0,1,0,0,29,29,51,,,,,,,,,,,,,,,,,,,,,,,51,30,2,278,0.347932752,-2.475670172,52,Experiment,,,,,,,,,96,60,-8,-8,,,,,,,,,,,,,,,870.8954684,871.3925387,870.8954684,871.3925387,89.11564626,1575472588,1575472590,1.267280817,1575472586,1575472588,,,S6,1,51,m,expert radiologist,2019_Dec_04_0902,AdjustEyeTrack,3.1.5,59.98039169
131,Stimuli/Morph131.JPG,Stimuli/Morph131.png,Stimuli/BlurLevel5/BlurEditedMorph131,Stimuli/BlurLevel5/BlurEditedMorph131.png,Stimuli/BlurLevel5/NumberedMorphs/BlurEditedMorph131.png,Stimuli/BlurLevel5/OriginalBlur/BlurEditedMorph131.png,Stimuli/BlurMorphTrio/EditedMorph131.png,None,None,,,,,1,0,1,0,0,30,30,130,,,,,,,,,,,,,,,,,,,,,,,10,31,2,351,2.469220851,-0.391086163,131,Experiment,,,,,,,,,112,126,5,5,,,,,,,,,,,,,,,874.9036875,875.4095851,874.9036875,875.4095851,93.19727891,1575472592,1575472594,1.832455873,1575472590,1575472592,,,S6,1,51,m,expert radiologist,2019_Dec_04_0902,AdjustEyeTrack,3.1.5,59.98039169
37,Stimuli/Morph37.JPG,Stimuli/Morph37.png,Stimuli/BlurLevel5/BlurEditedMorph37,Stimuli/BlurLevel5/BlurEditedMorph37.png,Stimuli/BlurLevel5/NumberedMorphs/BlurEditedMorph37.png,Stimuli/BlurLevel5/OriginalBlur/BlurEditedMorph37.png,Stimuli/BlurMorphTrio/EditedMorph37.png,010097right.gif,Stimuli/normal_thumbnails/37right.gif,,,,,1,0,1,0,0,31,31,36,,,,,,,,,,,,,,,,,,,,,,,37,32,2,89,0.043631016,2.499619238,37,Experiment,,,,,,,,,133,36,1,1,,,,,,,,,,,,,,,879.6617224,880.1588114,879.6617224,880.1588114,98.63945578,1575472597,1575472599,1.783985138,1575472595,1575472597,,,S6,1,51,m,expert radiologist,2019_Dec_04_0902,AdjustEyeTrack,3.1.5,59.98039169
98,Stimuli/Morph98.JPG,Stimuli/Morph98.png,Stimuli/BlurLevel5/BlurEditedMorph98,Stimuli/BlurLevel5/BlurEditedMorph98.png,Stimuli/BlurLevel5/NumberedMorphs/BlurEditedMorph98.png,Stimuli/BlurLevel5/OriginalBlur/BlurEditedMorph98.png,Stimuli/BlurMorphTrio/EditedMorph98.png,020298right.gif,Stimuli/normal_thumbnails/98right.gif,,,,,1,0,1,0,0,32,32,97,,,,,,,,,,,,,,,,,,,,,,,60,33,2,248,-0.936516484,-2.317959636,98,Experiment,,,,,,,,,90,99,-1,-1,,,,,,,,,,,,,,,884.6451096,885.1425336,884.6451096,885.1425336,98.63945578,1575472602,1575472604,1.900080919,1575472599,1575472602,,,S6,1,51,m,expert radiologist,2019_Dec_04_0902,AdjustEyeTrack,3.1.5,59.98039169
102,Stimuli/Morph102.JPG,Stimuli/Morph102.png,Stimuli/BlurLevel5/BlurEditedMorph102,Stimuli/BlurLevel5/BlurEditedMorph102.png,Stimuli/BlurLevel5/NumberedMorphs/BlurEditedMorph102.png,Stimuli/BlurLevel5/OriginalBlur/BlurEditedMorph102.png,Stimuli/BlurMorphTrio/EditedMorph102.png,None,None,,,,,1,0,1,0,0,33,33,101,,,,,,,,,,,,,,,,,,,,,,,14,34,2,327,2.09667642,-1.361597588,102,Experiment,,,,,,,,,20,105,-3,-3,,,,,,,,,,,,,,,889.5472815,890.0423945,889.5472815,890.0423945,95.91836735,1575472607,1575472611,3.649883986,1575472604,1575472607,,,S6,1,51,m,expert radiologist,2019_Dec_04_0902,AdjustEyeTrack,3.1.5,59.98039169
141,Stimuli/Morph141.JPG,Stimuli/Morph141.png,Stimuli/BlurLevel5/BlurEditedMorph141,Stimuli/BlurLevel5/BlurEditedMorph141.png,Stimuli/BlurLevel5/NumberedMorphs/BlurEditedMorph141.png,Stimuli/BlurLevel5/OriginalBlur/BlurEditedMorph141.png,Stimuli/BlurMorphTrio/EditedMorph141.png,None,None,,,,,1,0,1,0,0,34,34,140,,,,,,,,,,,,,,,,,,,,,,,83,35,2,209,-2.186549268,-1.212024051,141,Experiment,,,,,,,,,85,140,1,1,,,,,,,,,,,,,,,895.9825558,896.4753332,895.9825558,896.4753332,98.63945578,1575472614,1575472616,2.083137035,1575472611,1575472614,,,S6,1,51,m,expert radiologist,2019_Dec_04_0902,AdjustEyeTrack,3.1.5,59.98039169
24,Stimuli/Morph24.JPG,Stimuli/Morph24.png,Stimuli/BlurLevel5/BlurEditedMorph24,Stimuli/BlurLevel5/BlurEditedMorph24.png,Stimuli/BlurLevel5/NumberedMorphs/BlurEditedMorph24.png,Stimuli/BlurLevel5/OriginalBlur/BlurEditedMorph24.png,Stimuli/BlurMorphTrio/EditedMorph24.png,010068right.gif,Stimuli/normal_thumbnails/24right.gif,,,,,1,0,1,0,0,35,35,23,,,,,,,,,,,,,,,,,,,,,,,91,36,2,181,-2.499619238,-0.043631016,24,Experiment,,,,,,,,,120,20,4,4,,,,,,,,,,,,,,,901.0926555,901.5928473,901.0926555,901.5928473,94.55782313,1575472619,1575472621,2.183379889,1575472616,1575472619,,,S6,1,51,m,expert radiologist,2019_Dec_04_0902,AdjustEyeTrack,3.1.5,59.98039169
22,Stimuli/Morph22.JPG,Stimuli/Morph22.png,Stimuli/BlurLevel5/BlurEditedMorph22,Stimuli/BlurLevel5/BlurEditedMorph22.png,Stimuli/BlurLevel5/NumberedMorphs/BlurEditedMorph22.png,Stimuli/BlurLevel5/OriginalBlur/BlurEditedMorph22.png,Stimuli/BlurMorphTrio/EditedMorph22.png,010055right.gif,Stimuli/normal_thumbnails/22right.gif,,,,,1,0,1,0,0,36,36,21,,,,,,,,,,,,,,,,,,,,,,,24,37,2,167,-2.435925162,0.562377636,22,Experiment,,,,,,,,,147,22,0,0,,,,,,,,,,,,,,,906.1267228,906.6258681,906.1267228,906.6258681,100,1575472624,1575472626,2.182663918,1575472621,1575472624,,,S6,1,51,m,expert radiologist,2019_Dec_04_0902,AdjustEyeTrack,3.1.5,59.98039169
9,Stimuli/Morph9.JPG,Stimuli/Morph9.png,Stimuli/BlurLevel5/BlurEditedMorph9,Stimuli/BlurLevel5/BlurEditedMorph9.png,Stimuli/BlurLevel5/NumberedMorphs/BlurEditedMorph9.png,Stimuli/BlurLevel5/OriginalBlur/BlurEditedMorph9.png,Stimuli/BlurMorphTrio/EditedMorph9.png,010015right.gif,Stimuli/normal_thumbnails/9right.gif,,,,,1,0,1,0,0,37,37,8,,,,,,,,,,,,,,,,,,,,,,,2,38,2,344,2.40315424,-0.68909339,9,Experiment,,,,,,,,,78,139,-130,17,,,,,,,,,,,,,,,911.1764482,911.6758379,911.1764482,911.6758379,76.8707483,1575472629,1575472631,2.749478817,1575472626,1575472629,,,S6,1,51,m,expert radiologist,2019_Dec_04_0902,AdjustEyeTrack,3.1.5,59.98039169
71,Stimuli/Morph71.JPG,Stimuli/Morph71.png,Stimuli/BlurLevel5/BlurEditedMorph71,Stimuli/BlurLevel5/BlurEditedMorph71.png,Stimuli/BlurLevel5/NumberedMorphs/BlurEditedMorph71.png,Stimuli/BlurLevel5/OriginalBlur/BlurEditedMorph71.png,Stimuli/BlurMorphTrio/EditedMorph71.png,020225right.gif,Stimuli/normal_thumbnails/71right.gif,,,,,1,0,1,0,0,38,38,70,,,,,,,,,,,,,,,,,,,,,,,79,39,2,290,0.855050358,-2.349231552,71,Experiment,,,,,,,,,126,69,2,2,,,,,,,,,,,,,,,916.5926315,917.0920604,916.5926315,917.0920604,97.27891156,1575472634,1575472636,1.516213655,1575472632,1575472634,,,S6,1,51,m,expert radiologist,2019_Dec_04_0902,AdjustEyeTrack,3.1.5,59.98039169
62,Stimuli/Morph62.JPG,Stimuli/Morph62.png,Stimuli/BlurLevel5/BlurEditedMorph62,Stimuli/BlurLevel5/BlurEditedMorph62.png,Stimuli/BlurLevel5/NumberedMorphs/BlurEditedMorph62.png,Stimuli/BlurLevel5/OriginalBlur/BlurEditedMorph62.png,Stimuli/BlurMorphTrio/EditedMorph62.png,020205right.gif,Stimuli/normal_thumbnails/62right.gif,,,,,1,0,1,0,0,39,39,61,,,,,,,,,,,,,,,,,,,,,,,20,40,2,162,-2.377641291,0.772542486,62,Experiment,,,,,,,,,7,74,-12,-12,,,,,,,,,,,,,,,920.761428,921.2588475,920.761428,921.2588475,83.67346939,1575472638,1575472640,1.966351032,1575472636,1575472638,,,S6,1,51,m,expert radiologist,2019_Dec_04_0902,AdjustEyeTrack,3.1.5,59.98039169
135,Stimuli/Morph135.JPG,Stimuli/Morph135.png,Stimuli/BlurLevel5/BlurEditedMorph135,Stimuli/BlurLevel5/BlurEditedMorph135.png,Stimuli/BlurLevel5/NumberedMorphs/BlurEditedMorph135.png,Stimuli/BlurLevel5/OriginalBlur/BlurEditedMorph135.png,Stimuli/BlurMorphTrio/EditedMorph135.png,None,None,,,,,1,0,1,0,0,40,40,134,,,,,,,,,,,,,,,,,,,,,,,15,41,2,35,2.047880111,1.433941091,135,Experiment,,,,,,,,,6,143,-8,-8,,,,,,,,,,,,,,,925.192964,925.6927685,925.192964,925.6927685,89.11564626,1575472643,1575472645,2.083409309,1575472641,1575472643,,,S6,1,51,m,expert radiologist,2019_Dec_04_0902,AdjustEyeTrack,3.1.5,59.98039169
8,Stimuli/Morph8.JPG,Stimuli/Morph8.png,Stimuli/BlurLevel5/BlurEditedMorph8,Stimuli/BlurLevel5/BlurEditedMorph8.png,Stimuli/BlurLevel5/NumberedMorphs/BlurEditedMorph8.png,Stimuli/BlurLevel5/OriginalBlur/BlurEditedMorph8.png,Stimuli/BlurMorphTrio/EditedMorph8.png,010014right.gif,Stimuli/normal_thumbnails/8right.gif,,,,,1,0,1,0,0,41,41,7,,,,,,,,,,,,,,,,,,,,,,,54,42,2,188,-2.475670172,-0.347932752,8,Experiment,,,,,,,,,48,13,-5,-5,,,,,,,,,,,,,,,929.9261633,930.424929,929.9261633,930.424929,93.19727891,1575472647,1575472651,3.78291297,1575472645,1575472647,,,S6,1,51,m,expert radiologist,2019_Dec_04_0902,AdjustEyeTrack,3.1.5,59.98039169
97,Stimuli/Morph97.JPG,Stimuli/Morph97.png,Stimuli/BlurLevel5/BlurEditedMorph97,Stimuli/BlurLevel5/BlurEditedMorph97.png,Stimuli/BlurLevel5/NumberedMorphs/BlurEditedMorph97.png,Stimuli/BlurLevel5/OriginalBlur/BlurEditedMorph97.png,Stimuli/BlurMorphTrio/EditedMorph97.png,020294right.gif,Stimuli/normal_thumbnails/97right.gif,,,,,1,0,1,0,0,42,42,96,,,,,,,,,,,,,,,,,,,,,,,67,43,2,205,-2.265769468,-1.056545654,97,Experiment,,,,,,,,,84,110,-13,-13,,,,,,,,,,,,,,,936.7329139,937.2253307,936.7329139,937.2253307,82.31292517,1575472654,1575472657,2.598950863,1575472652,1575472654,,,S6,1,51,m,expert radiologist,2019_Dec_04_0902,AdjustEyeTrack,3.1.5,59.98039169
76,Stimuli/Morph76.JPG,Stimuli/Morph76.png,Stimuli/BlurLevel5/BlurEditedMorph76,Stimuli/BlurLevel5/BlurEditedMorph76.png,Stimuli/BlurLevel5/NumberedMorphs/BlurEditedMorph76.png,Stimuli/BlurLevel5/OriginalBlur/BlurEditedMorph76.png,Stimuli/BlurMorphTrio/EditedMorph76.png,020234right.gif,Stimuli/normal_thumbnails/76right.gif,,,,,1,0,1,0,0,43,43,75,,,,,,,,,,,,,,,,,,,,,,,61,44,2,31,2.142918252,1.287595187,76,Experiment,,,,,,,,,134,73,3,3,,,,,,,,,,,,,,,942.441413,942.9424699,942.441413,942.9424699,95.91836735,1575472660,1575472662,1.549568892,1575472657,1575472660,,,S6,1,51,m,expert radiologist,2019_Dec_04_0902,AdjustEyeTrack,3.1.5,59.98039169
125,Stimuli/Morph125.JPG,Stimuli/Morph125.png,Stimuli/BlurLevel5/BlurEditedMorph125,Stimuli/BlurLevel5/BlurEditedMorph125.png,Stimuli/BlurLevel5/NumberedMorphs/BlurEditedMorph125.png,Stimuli/BlurLevel5/OriginalBlur/BlurEditedMorph125.png,Stimuli/BlurMorphTrio/EditedMorph125.png,None,None,,,,,1,0,1,0,0,44,44,124,,,,,,,,,,,,,,,,,,,,,,,65,45,2,107,-0.730929262,2.39076189,125,Experiment,,,,,,,,,143,141,-16,-16,,,,,,,,,,,,,,,946.9602567,947.4662769,946.9602567,947.4662769,78.23129252,1575472665,1575472666,1.349551916,1575472662,1575472664,,,S6,1,51,m,expert radiologist,2019_Dec_04_0902,AdjustEyeTrack,3.1.5,59.98039169
10,Stimuli/Morph10.JPG,Stimuli/Morph10.png,Stimuli/BlurLevel5/BlurEditedMorph10,Stimuli/BlurLevel5/BlurEditedMorph10.png,Stimuli/BlurLevel5/NumberedMorphs/BlurEditedMorph10.png,Stimuli/BlurLevel5/OriginalBlur/BlurEditedMorph10.png,Stimuli/BlurMorphTrio/EditedMorph10.png,010016right.gif,Stimuli/normal_thumbnails/10right.gif,,,,,1,0,1,0,0,45,45,9,,,,,,,,,,,,,,,,,,,,,,,29,46,2,81,0.391086163,2.469220851,10,Experiment,,,,,,,,,143,143,-133,14,,,,,,,,,,,,,,,951.5601464,952.0585418,951.5601464,952.0585418,80.95238095,1575472669,1575472670,0.616538763,1575472666,1575472669,,,S6,1,51,m,expert radiologist,2019_Dec_04_0902,AdjustEyeTrack,3.1.5,59.98039169
107,Stimuli/Morph107.JPG,Stimuli/Morph107.png,Stimuli/BlurLevel5/BlurEditedMorph107,Stimuli/BlurLevel5/BlurEditedMorph107.png,Stimuli/BlurLevel5/NumberedMorphs/BlurEditedMorph107.png,Stimuli/BlurLevel5/OriginalBlur/BlurEditedMorph107.png,Stimuli/BlurMorphTrio/EditedMorph107.png,None,None,,,,,1,0,1,0,0,46,46,106,,,,,,,,,,,,,,,,,,,,,,,97,47,2,178,-2.498477068,0.087248742,107,Experiment,,,,,,,,,131,121,-14,-14,,,,,,,,,,,,,,,955.2449859,955.7427822,955.2449859,955.7427822,80.95238095,1575472673,1575472675,1.999548912,1575472670,1575472673,,,S6,1,51,m,expert radiologist,2019_Dec_04_0902,AdjustEyeTrack,3.1.5,59.98039169
35,Stimuli/Morph35.JPG,Stimuli/Morph35.png,Stimuli/BlurLevel5/BlurEditedMorph35,Stimuli/BlurLevel5/BlurEditedMorph35.png,Stimuli/BlurLevel5/NumberedMorphs/BlurEditedMorph35.png,Stimuli/BlurLevel5/OriginalBlur/BlurEditedMorph35.png,Stimuli/BlurMorphTrio/EditedMorph35.png,010094right.gif,Stimuli/normal_thumbnails/35right.gif,,,,,1,0,1,0,0,47,47,34,,,,,,,,,,,,,,,,,,,,,,,18,48,2,57,1.361597588,2.09667642,35,Experiment,,,,,,,,,28,35,0,0,,,,,,,,,,,,,,,959.6314861,960.1414736,959.6314861,960.1414736,100,1575472677,1575472679,1.465736389,1575472675,1575472677,,,S6,1,51,m,expert radiologist,2019_Dec_04_0902,AdjustEyeTrack,3.1.5,59.98039169
100,Stimuli/Morph100.JPG,Stimuli/Morph100.png,Stimuli/BlurLevel5/BlurEditedMorph100,Stimuli/BlurLevel5/BlurEditedMorph100.png,Stimuli/BlurLevel5/NumberedMorphs/BlurEditedMorph100.png,Stimuli/BlurLevel5/OriginalBlur/BlurEditedMorph100.png,Stimuli/BlurMorphTrio/EditedMorph100.png,020297right.gif,Stimuli/normal_thumbnails/100right.gif,,,,,1,0,1,0,0,48,48,99,,,,,,,,,,,,,,,,,,,,,,,17,49,2,128,-1.539153688,1.970026884,100,Experiment,,,,,,,,,142,105,-5,-5,,,,,,,,,,,,,,,964.6282751,965.1244458,964.6282751,965.1244458,93.19727891,1575472682,1575472683,1.317381859,1575472679,1575472682,,,S6,1,51,m,expert radiologist,2019_Dec_04_0902,AdjustEyeTrack,3.1.5,59.98039169
69,Stimuli/Morph69.JPG,Stimuli/Morph69.png,Stimuli/BlurLevel5/BlurEditedMorph69,Stimuli/BlurLevel5/BlurEditedMorph69.png,Stimuli/BlurLevel5/NumberedMorphs/BlurEditedMorph69.png,Stimuli/BlurLevel5/OriginalBlur/BlurEditedMorph69.png,Stimuli/BlurMorphTrio/EditedMorph69.png,020220right.gif,Stimuli/normal_thumbnails/69right.gif,,,,,1,0,1,0,0,49,49,68,,,,,,,,,,,,,,,,,,,,,,,36,50,2,260,-0.434120444,-2.462019383,69,Experiment,,,,,,,,,85,64,5,5,,,,,,,,,,,,,,,969.2316551,969.7299931,969.2316551,969.7299931,93.19727891,1575472687,1575472688,1.483589172,1575472684,1575472687,,,S6,1,51,m,expert radiologist,2019_Dec_04_0902,AdjustEyeTrack,3.1.5,59.98039169
88,Stimuli/Morph88.JPG,Stimuli/Morph88.png,Stimuli/BlurLevel5/BlurEditedMorph88,Stimuli/BlurLevel5/BlurEditedMorph88.png,Stimuli/BlurLevel5/NumberedMorphs/BlurEditedMorph88.png,Stimuli/BlurLevel5/OriginalBlur/BlurEditedMorph88.png,Stimuli/BlurMorphTrio/EditedMorph88.png,020271right.gif,Stimuli/normal_thumbnails/88right.gif,,,,,1,0,1,0,0,50,50,87,,,,,,,,,,,,,,,,,,,,,,,45,51,2,91,-0.043631016,2.499619238,88,Experiment,,,,,,,,,8,115,-27,-27,,,,,,,,,,,,,,,973.2616458,973.7598656,973.2616458,973.7598656,63.26530612,1575472691,1575472692,1.399422884,1575472689,1575472691,,,S6,1,51,m,expert radiologist,2019_Dec_04_0902,AdjustEyeTrack,3.1.5,59.98039169
109,Stimuli/Morph109.JPG,Stimuli/Morph109.png,Stimuli/BlurLevel5/BlurEditedMorph109,Stimuli/BlurLevel5/BlurEditedMorph109.png,Stimuli/BlurLevel5/NumberedMorphs/BlurEditedMorph109.png,Stimuli/BlurLevel5/OriginalBlur/BlurEditedMorph109.png,Stimuli/BlurMorphTrio/EditedMorph109.png,None,None,,,,,1,0,1,0,0,51,51,108,,,,,,,,,,,,,,,,,,,,,,,15,52,2,300,1.25,-2.165063509,109,Experiment,,,,,,,,,103,89,20,20,,,,,,,,,,,,,,,977.4996411,978.0085992,977.4996411,978.0085992,72.78911565,1575472695,1575472696,0.94940114,1575472692,1575472695,,,S6,1,51,m,expert radiologist,2019_Dec_04_0902,AdjustEyeTrack,3.1.5,59.98039169
27,Stimuli/Morph27.JPG,Stimuli/Morph27.png,Stimuli/BlurLevel5/BlurEditedMorph27,Stimuli/BlurLevel5/BlurEditedMorph27.png,Stimuli/BlurLevel5/NumberedMorphs/BlurEditedMorph27.png,Stimuli/BlurLevel5/OriginalBlur/BlurEditedMorph27.png,Stimuli/BlurMorphTrio/EditedMorph27.png,010072right.gif,Stimuli/normal_thumbnails/27right.gif,,,,,1,0,1,0,0,52,52,26,,,,,,,,,,,,,,,,,,,,,,,38,53,2,296,1.095927867,-2.246985116,27,Experiment,,,,,,,,,93,28,-1,-1,,,,,,,,,,,,,,,981.0583069,981.5740178,981.0583069,981.5740178,98.63945578,1575472699,1575472700,1.717048168,1575472696,1575472699,,,S6,1,51,m,expert radiologist,2019_Dec_04_0902,AdjustEyeTrack,3.1.5,59.98039169
111,Stimuli/Morph111.JPG,Stimuli/Morph111.png,Stimuli/BlurLevel5/BlurEditedMorph111,Stimuli/BlurLevel5/BlurEditedMorph111.png,Stimuli/BlurLevel5/NumberedMorphs/BlurEditedMorph111.png,Stimuli/BlurLevel5/OriginalBlur/BlurEditedMorph111.png,Stimuli/BlurMorphTrio/EditedMorph111.png,None,None,,,,,1,0,1,0,0,53,53,110,,,,,,,,,,,,,,,,,,,,,,,5,54,2,278,0.347932752,-2.475670172,111,Experiment,,,,,,,,,68,108,3,3,,,,,,,,,,,,,,,985.291788,985.7914824,985.291788,985.7914824,95.91836735,1575472703,1575472705,2.616544008,1575472701,1575472703,,,S6,1,51,m,expert radiologist,2019_Dec_04_0902,AdjustEyeTrack,3.1.5,59.98039169
50,Stimuli/Morph50.JPG,Stimuli/Morph50.png,Stimuli/BlurLevel5/BlurEditedMorph50,Stimuli/BlurLevel5/BlurEditedMorph50.png,Stimuli/BlurLevel5/NumberedMorphs/BlurEditedMorph50.png,Stimuli/BlurLevel5/OriginalBlur/BlurEditedMorph50.png,Stimuli/BlurMorphTrio/EditedMorph50.png,010142right.gif,Stimuli/normal_thumbnails/50right.gif,,,,,1,0,1,0,0,54,54,49,,,,,,,,,,,,,,,,,,,,,,,80,55,2,260,-0.434120444,-2.462019383,50,Experiment,,,,,,,,,23,63,-13,-13,,,,,,,,,,,,,,,990.9427568,991.4409892,990.9427568,991.4409892,82.31292517,1575472708,1575472711,2.315690994,1575472706,1575472708,,,S6,1,51,m,expert radiologist,2019_Dec_04_0902,AdjustEyeTrack,3.1.5,59.98039169
143,Stimuli/Morph143.JPG,Stimuli/Morph143.png,Stimuli/BlurLevel5/BlurEditedMorph143,Stimuli/BlurLevel5/BlurEditedMorph143.png,Stimuli/BlurLevel5/NumberedMorphs/BlurEditedMorph143.png,Stimuli/BlurLevel5/OriginalBlur/BlurEditedMorph143.png,Stimuli/BlurMorphTrio/EditedMorph143.png,None,None,,,,,1,0,1,0,0,55,55,142,,,,,,,,,,,,,,,,,,,,,,,73,56,2,20,2.349231552,0.855050358,143,Experiment,,,,,,,,,107,133,10,10,,,,,,,,,,,,,,,996.0134258,996.5090074,996.0134258,996.5090074,86.39455782,1575472714,1575472716,2.866435051,1575472711,1575472714,,,S6,1,51,m,expert radiologist,2019_Dec_04_0902,AdjustEyeTrack,3.1.5,59.98039169
25,Stimuli/Morph25.JPG,Stimuli/Morph25.png,Stimuli/BlurLevel5/BlurEditedMorph25,Stimuli/BlurLevel5/BlurEditedMorph25.png,Stimuli/BlurLevel5/NumberedMorphs/BlurEditedMorph25.png,Stimuli/BlurLevel5/OriginalBlur/BlurEditedMorph25.png,Stimuli/BlurMorphTrio/EditedMorph25.png,010069right.gif,Stimuli/normal_thumbnails/25right.gif,,,,,1,0,1,0,0,56,56,24,,,,,,,,,,,,,,,,,,,,,,,55,57,2,43,1.828384254,1.7049959,25,Experiment,,,,,,,,,15,22,3,3,,,,,,,,,,,,,,,1001.59977,1002.107702,1001.59977,1002.107702,95.91836735,1575472719,1575472721,1.733094931,1575472717,1575472719,,,S6,1,51,m,expert radiologist,2019_Dec_04_0902,AdjustEyeTrack,3.1.5,59.98039169
54,Stimuli/Morph54.JPG,Stimuli/Morph54.png,Stimuli/BlurLevel5/BlurEditedMorph54,Stimuli/BlurLevel5/BlurEditedMorph54.png,Stimuli/BlurLevel5/NumberedMorphs/BlurEditedMorph54.png,Stimuli/BlurLevel5/OriginalBlur/BlurEditedMorph54.png,Stimuli/BlurMorphTrio/EditedMorph54.png,010150right.gif,Stimuli/normal_thumbnails/54right.gif,,,,,1,0,1,0,0,57,57,53,,,,,,,,,,,,,,,,,,,,,,,37,58,2,191,-2.454067959,-0.477022488,54,Experiment,,,,,,,,,132,58,-4,-4,,,,,,,,,,,,,,,1006.324634,1006.823683,1006.324634,1006.823683,94.55782313,1575472724,1575472726,1.853840113,1575472721,1575472724,,,S6,1,51,m,expert radiologist,2019_Dec_04_0902,AdjustEyeTrack,3.1.5,59.98039169
