stimulusID,stimulus_JPG,stimulusPath,stimulusPath2,stimulusPath3,stimulusPath4,stimulusPath5,stimulusPath6,xRayOriginal,xRayPath,Training.thisRepN,Training.thisTrialN,Training.thisN,Training.thisIndex,Blocks.thisRepN,Blocks.thisTrialN,Blocks.thisN,Blocks.thisIndex,Trials.thisRepN,Trials.thisTrialN,Trials.thisN,Trials.thisIndex,text_2.started,text_2.stopped,image.started,image.stopped,image_2.started,image_2.stopped,image_3.started,image_3.stopped,image_4.started,image_4.stopped,image_6.started,image_6.stopped,image_7.started,image_7.stopped,image_8.started,image_8.stopped,image_9.started,image_9.stopped,image_10.started,image_10.stopped,image_12.started,image_12.stopped,xrayID,trialNumber,blockNumber,stimLocationDeg,stimXCoord,stimYCoord,stimulusID,blockType,trainingXray.started,trainingXray.stopped,trainingTumors.started,trainingTumors.stopped,trainingScore%,startTrainingRespTime,endTrainingRespTime,trainingRT,morphTrack,morphID,errorRaw,errorCorrected,startTrainingStimTime,endTrainingStimTime,key_resp_3.keys,key_resp_3.rt,text.started,text.stopped,text_3.started,text_3.stopped,text_4.started,text_4.stopped,key_resp_5.keys,key_resp_5.rt,key_resp_5.started,key_resp_5.stopped,xray1.started,xray1.stopped,tumors.started,tumors.stopped,trialCorrect%,startRespTime,endRespTime,RT,startStimTime,endStimTime,key_resp.keys,key_resp.rt,participant,session,age,gender,status,date,expName,psychopyVersion,frameRate
65,Stimuli/Morph65.JPG,Stimuli/Morph65.png,Stimuli/BlurLevel5/BlurEditedMorph65,Stimuli/BlurLevel5/BlurEditedMorph65.png,Stimuli/BlurLevel5/NumberedMorphs/BlurEditedMorph65.png,Stimuli/BlurLevel5/OriginalBlur/BlurEditedMorph65.png,Stimuli/BlurMorphTrio/EditedMorph65.png,020209right.gif,Stimuli/normal_thumbnails/65right.gif,0,0,0,64,,,,,,,,,88.9355116,None,88.9355116,None,88.9355116,None,88.9355116,None,88.9355116,None,88.9355116,None,88.9355116,None,88.9355116,None,88.9355116,None,88.9355116,None,88.9355116,None,37,-100,-100,8,2.475670172,0.347932752,65,training,131.1342759,131.6527667,131.1342759,131.6527667,61.9047619,1575474384,1575474387,3.76740098,147,93,-28,-28,1575474381,1575474384,space,1.86051284,,,,,,,,,,,,,,,,,,,,,,,S7,1,57,m,expert radiologist,2019_Dec_04_0945,AdjustEyeTrack,3.1.5,60.48037396
138,Stimuli/Morph138.JPG,Stimuli/Morph138.png,Stimuli/BlurLevel5/BlurEditedMorph138,Stimuli/BlurLevel5/BlurEditedMorph138.png,Stimuli/BlurLevel5/NumberedMorphs/BlurEditedMorph138.png,Stimuli/BlurLevel5/OriginalBlur/BlurEditedMorph138.png,Stimuli/BlurMorphTrio/EditedMorph138.png,None,None,0,1,1,137,,,,,,,,,,,,,,,,,,,,,,,,,,,,,,,65,-100,-100,277,0.304673359,-2.481365379,138,training,139.0848515,139.5845884,139.0848515,139.5845884,70.06802721,1575474392,1575474394,2.800925016,88,116,22,22,1575474389,1575474392,space,5.730888565,,,,,,,,,,,,,,,,,,,,,,,S7,1,57,m,expert radiologist,2019_Dec_04_0945,AdjustEyeTrack,3.1.5,60.48037396
66,Stimuli/Morph66.JPG,Stimuli/Morph66.png,Stimuli/BlurLevel5/BlurEditedMorph66,Stimuli/BlurLevel5/BlurEditedMorph66.png,Stimuli/BlurLevel5/NumberedMorphs/BlurEditedMorph66.png,Stimuli/BlurLevel5/OriginalBlur/BlurEditedMorph66.png,Stimuli/BlurMorphTrio/EditedMorph66.png,020212right.gif,Stimuli/normal_thumbnails/66right.gif,0,2,2,65,,,,,,,,,,,,,,,,,,,,,,,,,,,,,,,38,-100,-100,207,-2.22751631,-1.134976249,66,training,150.0417086,150.5545751,150.0417086,150.5545751,30.6122449,1575474403,1575474416,13.19909763,101,15,51,51,1575474400,1575474403,space,1.862624618,,,,,,,,,,,,,,,,,,,,,,,S7,1,57,m,expert radiologist,2019_Dec_04_0945,AdjustEyeTrack,3.1.5,60.48037396
84,Stimuli/Morph84.JPG,Stimuli/Morph84.png,Stimuli/BlurLevel5/BlurEditedMorph84,Stimuli/BlurLevel5/BlurEditedMorph84.png,Stimuli/BlurLevel5/NumberedMorphs/BlurEditedMorph84.png,Stimuli/BlurLevel5/OriginalBlur/BlurEditedMorph84.png,Stimuli/BlurMorphTrio/EditedMorph84.png,020261right.gif,Stimuli/normal_thumbnails/84right.gif,0,3,3,83,,,,,,,,,,,,,,,,,,,,,,,,,,,,,,,81,-100,-100,20,2.349231552,0.855050358,84,training,167.3406455,167.8503688,167.3406455,167.8503688,11.56462585,1575474420,1575474434,14.15293622,126,19,65,65,1575474418,1575474420,space,2.44052098,,,,,,,,,,,,,,,,,,,,,,,S7,1,57,m,expert radiologist,2019_Dec_04_0945,AdjustEyeTrack,3.1.5,60.48037396
79,Stimuli/Morph79.JPG,Stimuli/Morph79.png,Stimuli/BlurLevel5/BlurEditedMorph79,Stimuli/BlurLevel5/BlurEditedMorph79.png,Stimuli/BlurLevel5/NumberedMorphs/BlurEditedMorph79.png,Stimuli/BlurLevel5/OriginalBlur/BlurEditedMorph79.png,Stimuli/BlurMorphTrio/EditedMorph79.png,020239right.gif,Stimuli/normal_thumbnails/79right.gif,0,4,4,78,,,,,,,,,,,,,,,,,,,,,,,,,,,,,,,96,-100,-100,48,1.672826516,1.857862064,79,training,187.3692289,187.9000663,187.3692289,187.9000663,27.89115646,1575474440,1575474454,14.49900818,63,26,53,53,1575474437,1575474440,space,4.011171226,,,,,,,,,,,,,,,,,,,,,,,S7,1,57,m,expert radiologist,2019_Dec_04_0945,AdjustEyeTrack,3.1.5,60.48037396
80,Stimuli/Morph80.JPG,Stimuli/Morph80.png,Stimuli/BlurLevel5/BlurEditedMorph80,Stimuli/BlurLevel5/BlurEditedMorph80.png,Stimuli/BlurLevel5/NumberedMorphs/BlurEditedMorph80.png,Stimuli/BlurLevel5/OriginalBlur/BlurEditedMorph80.png,Stimuli/BlurMorphTrio/EditedMorph80.png,020240right.gif,Stimuli/normal_thumbnails/80right.gif,0,5,5,79,,,,,,,,,,,,,,,,,,,,,,,,,,,,,,,75,-100,-100,214,-2.072593931,-1.397982259,80,training,208.4016471,208.9007536,208.4016471,208.9007536,93.19727891,1575474461,1575474464,2.899887085,83,75,5,5,1575474458,1575474461,space,2.688883287,,,,,,,,,,,,,,,,,,,,,,,S7,1,57,m,expert radiologist,2019_Dec_04_0945,AdjustEyeTrack,3.1.5,60.48037396
56,Stimuli/Morph56.JPG,Stimuli/Morph56.png,Stimuli/BlurLevel5/BlurEditedMorph56,Stimuli/BlurLevel5/BlurEditedMorph56.png,Stimuli/BlurLevel5/NumberedMorphs/BlurEditedMorph56.png,Stimuli/BlurLevel5/OriginalBlur/BlurEditedMorph56.png,Stimuli/BlurMorphTrio/EditedMorph56.png,010157right.gif,Stimuli/normal_thumbnails/56right.gif,0,6,6,55,,,,,,,,,,,,,,,,,,,,,,,,,,,,,,,31,-100,-100,288,0.772542486,-2.377641291,56,training,216.6517638,217.1498237,216.6517638,217.1498237,79.59183673,1575474469,1575474472,3.16656208,55,71,-15,-15,1575474467,1575474469,space,1.5906641,,,,,,,,,,,,,,,,,,,,,,,S7,1,57,m,expert radiologist,2019_Dec_04_0945,AdjustEyeTrack,3.1.5,60.48037396
17,Stimuli/Morph17.JPG,Stimuli/Morph17.png,Stimuli/BlurLevel5/BlurEditedMorph17,Stimuli/BlurLevel5/BlurEditedMorph17.png,Stimuli/BlurLevel5/NumberedMorphs/BlurEditedMorph17.png,Stimuli/BlurLevel5/OriginalBlur/BlurEditedMorph17.png,Stimuli/BlurMorphTrio/EditedMorph17.png,010036right.gif,Stimuli/normal_thumbnails/17right.gif,0,7,7,16,,,,,,,,,,,,,,,,,,,,,,,,,,,,,,,69,-100,-100,48,1.672826516,1.857862064,17,training,224.3853194,224.9174936,224.3853194,224.9174936,85.03401361,1575474477,1575474482,4.633023024,50,6,11,11,1575474474,1575474477,space,4.014807076,,,,,,,,,,,,,,,,,,,,,,,S7,1,57,m,expert radiologist,2019_Dec_04_0945,AdjustEyeTrack,3.1.5,60.48037396
109,Stimuli/Morph109.JPG,Stimuli/Morph109.png,Stimuli/BlurLevel5/BlurEditedMorph109,Stimuli/BlurLevel5/BlurEditedMorph109.png,Stimuli/BlurLevel5/NumberedMorphs/BlurEditedMorph109.png,Stimuli/BlurLevel5/OriginalBlur/BlurEditedMorph109.png,Stimuli/BlurMorphTrio/EditedMorph109.png,None,None,0,8,8,108,,,,,,,,,,,,,,,,,,,,,,,,,,,,,,,37,-100,-100,349,2.454067959,-0.477022488,109,training,235.8193674,236.3159787,235.8193674,236.3159787,93.19727891,1575474488,1575474490,1.366221905,104,104,5,5,1575474486,1575474488,space,4.660706507,,,,,,,,,,,,,,,,,,,,,,,S7,1,57,m,expert radiologist,2019_Dec_04_0945,AdjustEyeTrack,3.1.5,60.48037396
49,Stimuli/Morph49.JPG,Stimuli/Morph49.png,Stimuli/BlurLevel5/BlurEditedMorph49,Stimuli/BlurLevel5/BlurEditedMorph49.png,Stimuli/BlurLevel5/NumberedMorphs/BlurEditedMorph49.png,Stimuli/BlurLevel5/OriginalBlur/BlurEditedMorph49.png,Stimuli/BlurMorphTrio/EditedMorph49.png,010135right.gif,Stimuli/normal_thumbnails/49right.gif,0,9,9,48,,,,,,,,,,,,,,,,,,,,,,,,,,,,,,,34,-100,-100,166,-2.425739316,0.604804739,49,training,244.5511803,245.0497912,244.5511803,245.0497912,31.97278912,1575474497,1575474502,4.983042955,35,146,-97,50,1575474494,1575474497,space,6.822079845,,,,,,,,,,,,,,,,,,,,,,,S7,1,57,m,expert radiologist,2019_Dec_04_0945,AdjustEyeTrack,3.1.5,60.48037396
,,,,,,,,,,,,,,,,,,,,,,,,,,,,,,,,,,,,,,,,,,,,,-100,-100,,,,,training,,,,,,,,,,,,,,,,,258.0160138,None,258.0160138,None,258.0160138,None,space,34.54967331,258.0160138,None,,,,,,,,,,,,,S7,1,57,m,expert radiologist,2019_Dec_04_0945,AdjustEyeTrack,3.1.5,60.48037396
131,Stimuli/Morph131.JPG,Stimuli/Morph131.png,Stimuli/BlurLevel5/BlurEditedMorph131,Stimuli/BlurLevel5/BlurEditedMorph131.png,Stimuli/BlurLevel5/NumberedMorphs/BlurEditedMorph131.png,Stimuli/BlurLevel5/OriginalBlur/BlurEditedMorph131.png,Stimuli/BlurMorphTrio/EditedMorph131.png,None,None,,,,,0,0,0,0,0,0,0,130,,,,,,,,,,,,,,,,,,,,,,,27,1,1,280,0.434120444,-2.462019383,131,Experiment,,,,,,,,,43,137,-6,-6,,,,,,,,,,,,,,,294.0345653,294.5492112,294.0345653,294.5492112,91.83673469,1575474547,1575474552,5.717530966,1575474544,1575474547,,,S7,1,57,m,expert radiologist,2019_Dec_04_0945,AdjustEyeTrack,3.1.5,60.48037396
36,Stimuli/Morph36.JPG,Stimuli/Morph36.png,Stimuli/BlurLevel5/BlurEditedMorph36,Stimuli/BlurLevel5/BlurEditedMorph36.png,Stimuli/BlurLevel5/NumberedMorphs/BlurEditedMorph36.png,Stimuli/BlurLevel5/OriginalBlur/BlurEditedMorph36.png,Stimuli/BlurMorphTrio/EditedMorph36.png,010095right.gif,Stimuli/normal_thumbnails/36right.gif,,,,,0,0,0,0,0,1,1,35,,,,,,,,,,,,,,,,,,,,,,,77,2,1,347,2.435925162,-0.562377636,36,Experiment,,,,,,,,,3,3,33,33,,,,,,,,,,,,,,,302.4883456,302.9990902,302.4883456,302.9990902,55.10204082,1575474555,1575474556,1.052546024,1575474553,1575474555,,,S7,1,57,m,expert radiologist,2019_Dec_04_0945,AdjustEyeTrack,3.1.5,60.48037396
111,Stimuli/Morph111.JPG,Stimuli/Morph111.png,Stimuli/BlurLevel5/BlurEditedMorph111,Stimuli/BlurLevel5/BlurEditedMorph111.png,Stimuli/BlurLevel5/NumberedMorphs/BlurEditedMorph111.png,Stimuli/BlurLevel5/OriginalBlur/BlurEditedMorph111.png,Stimuli/BlurMorphTrio/EditedMorph111.png,None,None,,,,,0,0,0,0,0,2,2,110,,,,,,,,,,,,,,,,,,,,,,,91,3,1,37,1.996588775,1.504537558,111,Experiment,,,,,,,,,88,130,-19,-19,,,,,,,,,,,,,,,306.4708468,306.9647854,306.4708468,306.9647854,74.14965986,1575474559,1575474567,8.333295107,1575474556,1575474559,,,S7,1,57,m,expert radiologist,2019_Dec_04_0945,AdjustEyeTrack,3.1.5,60.48037396
53,Stimuli/Morph53.JPG,Stimuli/Morph53.png,Stimuli/BlurLevel5/BlurEditedMorph53,Stimuli/BlurLevel5/BlurEditedMorph53.png,Stimuli/BlurLevel5/NumberedMorphs/BlurEditedMorph53.png,Stimuli/BlurLevel5/OriginalBlur/BlurEditedMorph53.png,Stimuli/BlurMorphTrio/EditedMorph53.png,010149right.gif,Stimuli/normal_thumbnails/53right.gif,,,,,0,0,0,0,0,3,3,52,,,,,,,,,,,,,,,,,,,,,,,87,4,1,133,-1.7049959,1.828384254,53,Experiment,,,,,,,,,88,47,6,6,,,,,,,,,,,,,,,317.3847235,317.8819071,317.3847235,317.8819071,91.83673469,1575474570,1575474573,3.366768122,1575474568,1575474570,,,S7,1,57,m,expert radiologist,2019_Dec_04_0945,AdjustEyeTrack,3.1.5,60.48037396
132,Stimuli/Morph132.JPG,Stimuli/Morph132.png,Stimuli/BlurLevel5/BlurEditedMorph132,Stimuli/BlurLevel5/BlurEditedMorph132.png,Stimuli/BlurLevel5/NumberedMorphs/BlurEditedMorph132.png,Stimuli/BlurLevel5/OriginalBlur/BlurEditedMorph132.png,Stimuli/BlurMorphTrio/EditedMorph132.png,None,None,,,,,0,0,0,0,0,4,4,131,,,,,,,,,,,,,,,,,,,,,,,66,5,1,160,-2.349231552,0.855050358,132,Experiment,,,,,,,,,1,1,131,-16,,,,,,,,,,,,,,,323.357349,323.8859796,323.357349,323.8859796,78.23129252,1575474576,1575474577,0.949624062,1575474574,1575474576,,,S7,1,57,m,expert radiologist,2019_Dec_04_0945,AdjustEyeTrack,3.1.5,60.48037396
85,Stimuli/Morph85.JPG,Stimuli/Morph85.png,Stimuli/BlurLevel5/BlurEditedMorph85,Stimuli/BlurLevel5/BlurEditedMorph85.png,Stimuli/BlurLevel5/NumberedMorphs/BlurEditedMorph85.png,Stimuli/BlurLevel5/OriginalBlur/BlurEditedMorph85.png,Stimuli/BlurMorphTrio/EditedMorph85.png,020264right.gif,Stimuli/normal_thumbnails/85right.gif,,,,,0,0,0,0,0,5,5,84,,,,,,,,,,,,,,,,,,,,,,,65,6,1,339,2.333951066,-0.895919874,85,Experiment,,,,,,,,,106,106,-21,-21,,,,,,,,,,,,,,,327.1938557,327.6985139,327.1938557,327.6985139,71.42857143,1575474580,1575474581,0.917072058,1575474577,1575474580,,,S7,1,57,m,expert radiologist,2019_Dec_04_0945,AdjustEyeTrack,3.1.5,60.48037396
13,Stimuli/Morph13.JPG,Stimuli/Morph13.png,Stimuli/BlurLevel5/BlurEditedMorph13,Stimuli/BlurLevel5/BlurEditedMorph13.png,Stimuli/BlurLevel5/NumberedMorphs/BlurEditedMorph13.png,Stimuli/BlurLevel5/OriginalBlur/BlurEditedMorph13.png,Stimuli/BlurMorphTrio/EditedMorph13.png,010027right.gif,Stimuli/normal_thumbnails/13right.gif,,,,,0,0,0,0,0,6,6,12,,,,,,,,,,,,,,,,,,,,,,,95,7,1,139,-1.886773951,1.640147572,13,Experiment,,,,,,,,,36,142,-129,18,,,,,,,,,,,,,,,331.0339637,331.5345711,331.0339637,331.5345711,75.51020408,1575474584,1575474588,4.400245905,1575474581,1575474584,,,S7,1,57,m,expert radiologist,2019_Dec_04_0945,AdjustEyeTrack,3.1.5,60.48037396
133,Stimuli/Morph133.JPG,Stimuli/Morph133.png,Stimuli/BlurLevel5/BlurEditedMorph133,Stimuli/BlurLevel5/BlurEditedMorph133.png,Stimuli/BlurLevel5/NumberedMorphs/BlurEditedMorph133.png,Stimuli/BlurLevel5/OriginalBlur/BlurEditedMorph133.png,Stimuli/BlurMorphTrio/EditedMorph133.png,None,None,,,,,0,0,0,0,0,7,7,132,,,,,,,,,,,,,,,,,,,,,,,64,8,1,339,2.333951066,-0.895919874,133,Experiment,,,,,,,,,1,1,132,-15,,,,,,,,,,,,,,,338.00331,338.5348585,338.00331,338.5348585,79.59183673,1575474591,1575474591,0.936925888,1575474588,1575474591,,,S7,1,57,m,expert radiologist,2019_Dec_04_0945,AdjustEyeTrack,3.1.5,60.48037396
107,Stimuli/Morph107.JPG,Stimuli/Morph107.png,Stimuli/BlurLevel5/BlurEditedMorph107,Stimuli/BlurLevel5/BlurEditedMorph107.png,Stimuli/BlurLevel5/NumberedMorphs/BlurEditedMorph107.png,Stimuli/BlurLevel5/OriginalBlur/BlurEditedMorph107.png,Stimuli/BlurMorphTrio/EditedMorph107.png,None,None,,,,,0,0,0,0,0,8,8,106,,,,,,,,,,,,,,,,,,,,,,,57,9,1,79,0.477022488,2.454067959,107,Experiment,,,,,,,,,87,87,20,20,,,,,,,,,,,,,,,341.916544,342.4161259,341.916544,342.4161259,72.78911565,1575474594,1575474595,0.834037066,1575474592,1575474594,,,S7,1,57,m,expert radiologist,2019_Dec_04_0945,AdjustEyeTrack,3.1.5,60.48037396
137,Stimuli/Morph137.JPG,Stimuli/Morph137.png,Stimuli/BlurLevel5/BlurEditedMorph137,Stimuli/BlurLevel5/BlurEditedMorph137.png,Stimuli/BlurLevel5/NumberedMorphs/BlurEditedMorph137.png,Stimuli/BlurLevel5/OriginalBlur/BlurEditedMorph137.png,Stimuli/BlurMorphTrio/EditedMorph137.png,None,None,,,,,0,0,0,0,0,9,9,136,,,,,,,,,,,,,,,,,,,,,,,93,10,1,348,2.445369002,-0.519779227,137,Experiment,,,,,,,,,100,136,1,1,,,,,,,,,,,,,,,345.8853352,346.4215573,345.8853352,346.4215573,98.63945578,1575474598,1575474602,3.531650066,1575474596,1575474598,,,S7,1,57,m,expert radiologist,2019_Dec_04_0945,AdjustEyeTrack,3.1.5,60.48037396
87,Stimuli/Morph87.JPG,Stimuli/Morph87.png,Stimuli/BlurLevel5/BlurEditedMorph87,Stimuli/BlurLevel5/BlurEditedMorph87.png,Stimuli/BlurLevel5/NumberedMorphs/BlurEditedMorph87.png,Stimuli/BlurLevel5/OriginalBlur/BlurEditedMorph87.png,Stimuli/BlurMorphTrio/EditedMorph87.png,020270right.gif,Stimuli/normal_thumbnails/87right.gif,,,,,0,0,0,0,0,10,10,86,,,,,,,,,,,,,,,,,,,,,,,57,11,1,172,-2.475670172,0.347932752,87,Experiment,,,,,,,,,137,83,4,4,,,,,,,,,,,,,,,351.9318016,352.4313552,351.9318016,352.4313552,94.55782313,1575474604,1575474611,6.600063086,1575474602,1575474604,,,S7,1,57,m,expert radiologist,2019_Dec_04_0945,AdjustEyeTrack,3.1.5,60.48037396
25,Stimuli/Morph25.JPG,Stimuli/Morph25.png,Stimuli/BlurLevel5/BlurEditedMorph25,Stimuli/BlurLevel5/BlurEditedMorph25.png,Stimuli/BlurLevel5/NumberedMorphs/BlurEditedMorph25.png,Stimuli/BlurLevel5/OriginalBlur/BlurEditedMorph25.png,Stimuli/BlurMorphTrio/EditedMorph25.png,010069right.gif,Stimuli/normal_thumbnails/25right.gif,,,,,0,0,0,0,0,11,11,24,,,,,,,,,,,,,,,,,,,,,,,5,12,1,261,-0.391086163,-2.469220851,25,Experiment,,,,,,,,,8,21,4,4,,,,,,,,,,,,,,,361.1344696,361.6480077,361.1344696,361.6480077,94.55782313,1575474614,1575474618,4.534527063,1575474611,1575474614,,,S7,1,57,m,expert radiologist,2019_Dec_04_0945,AdjustEyeTrack,3.1.5,60.48037396
74,Stimuli/Morph74.JPG,Stimuli/Morph74.png,Stimuli/BlurLevel5/BlurEditedMorph74,Stimuli/BlurLevel5/BlurEditedMorph74.png,Stimuli/BlurLevel5/NumberedMorphs/BlurEditedMorph74.png,Stimuli/BlurLevel5/OriginalBlur/BlurEditedMorph74.png,Stimuli/BlurMorphTrio/EditedMorph74.png,020232right.gif,Stimuli/normal_thumbnails/74right.gif,,,,,0,0,0,0,0,12,12,73,,,,,,,,,,,,,,,,,,,,,,,45,13,1,112,-0.936516484,2.317959636,74,Experiment,,,,,,,,,107,131,-57,-57,,,,,,,,,,,,,,,368.1770371,368.7311622,368.1770371,368.7311622,22.44897959,1575474621,1575474633,11.81555605,1575474618,1575474621,,,S7,1,57,m,expert radiologist,2019_Dec_04_0945,AdjustEyeTrack,3.1.5,60.48037396
57,Stimuli/Morph57.JPG,Stimuli/Morph57.png,Stimuli/BlurLevel5/BlurEditedMorph57,Stimuli/BlurLevel5/BlurEditedMorph57.png,Stimuli/BlurLevel5/NumberedMorphs/BlurEditedMorph57.png,Stimuli/BlurLevel5/OriginalBlur/BlurEditedMorph57.png,Stimuli/BlurMorphTrio/EditedMorph57.png,010158right.gif,Stimuli/normal_thumbnails/57right.gif,,,,,0,0,0,0,0,13,13,56,,,,,,,,,,,,,,,,,,,,,,,67,14,1,78,0.519779227,2.445369002,57,Experiment,,,,,,,,,88,124,-67,-67,,,,,,,,,,,,,,,382.8642708,383.3672557,382.8642708,383.3672557,8.843537415,1575474635,1575474643,7.166665077,1575474633,1575474635,,,S7,1,57,m,expert radiologist,2019_Dec_04_0945,AdjustEyeTrack,3.1.5,60.48037396
9,Stimuli/Morph9.JPG,Stimuli/Morph9.png,Stimuli/BlurLevel5/BlurEditedMorph9,Stimuli/BlurLevel5/BlurEditedMorph9.png,Stimuli/BlurLevel5/NumberedMorphs/BlurEditedMorph9.png,Stimuli/BlurLevel5/OriginalBlur/BlurEditedMorph9.png,Stimuli/BlurMorphTrio/EditedMorph9.png,010015right.gif,Stimuli/normal_thumbnails/9right.gif,,,,,0,0,0,0,0,14,14,8,,,,,,,,,,,,,,,,,,,,,,,83,15,1,179,-2.499619238,0.043631016,9,Experiment,,,,,,,,,65,4,5,5,,,,,,,,,,,,,,,393.0712079,393.5642613,393.0712079,393.5642613,93.19727891,1575474646,1575474650,4.066462994,1575474643,1575474646,,,S7,1,57,m,expert radiologist,2019_Dec_04_0945,AdjustEyeTrack,3.1.5,60.48037396
117,Stimuli/Morph117.JPG,Stimuli/Morph117.png,Stimuli/BlurLevel5/BlurEditedMorph117,Stimuli/BlurLevel5/BlurEditedMorph117.png,Stimuli/BlurLevel5/NumberedMorphs/BlurEditedMorph117.png,Stimuli/BlurLevel5/OriginalBlur/BlurEditedMorph117.png,Stimuli/BlurMorphTrio/EditedMorph117.png,None,None,,,,,0,0,0,0,0,15,15,116,,,,,,,,,,,,,,,,,,,,,,,90,16,1,176,-2.493910126,0.174391184,117,Experiment,,,,,,,,,12,119,-2,-2,,,,,,,,,,,,,,,399.5329332,400.0473838,399.5329332,400.0473838,97.27891156,1575474652,1575474659,6.7327981,1575474650,1575474652,,,S7,1,57,m,expert radiologist,2019_Dec_04_0945,AdjustEyeTrack,3.1.5,60.48037396
31,Stimuli/Morph31.JPG,Stimuli/Morph31.png,Stimuli/BlurLevel5/BlurEditedMorph31,Stimuli/BlurLevel5/BlurEditedMorph31.png,Stimuli/BlurLevel5/NumberedMorphs/BlurEditedMorph31.png,Stimuli/BlurLevel5/OriginalBlur/BlurEditedMorph31.png,Stimuli/BlurMorphTrio/EditedMorph31.png,010079right.gif,Stimuli/normal_thumbnails/31right.gif,,,,,0,0,0,0,0,16,16,30,,,,,,,,,,,,,,,,,,,,,,,63,17,1,17,2.39076189,0.730929262,31,Experiment,,,,,,,,,57,22,9,9,,,,,,,,,,,,,,,408.9147321,409.4157847,408.9147321,409.4157847,87.75510204,1575474661,1575474666,4.799811125,1575474659,1575474661,,,S7,1,57,m,expert radiologist,2019_Dec_04_0945,AdjustEyeTrack,3.1.5,60.48037396
39,Stimuli/Morph39.JPG,Stimuli/Morph39.png,Stimuli/BlurLevel5/BlurEditedMorph39,Stimuli/BlurLevel5/BlurEditedMorph39.png,Stimuli/BlurLevel5/NumberedMorphs/BlurEditedMorph39.png,Stimuli/BlurLevel5/OriginalBlur/BlurEditedMorph39.png,Stimuli/BlurMorphTrio/EditedMorph39.png,010109right.gif,Stimuli/normal_thumbnails/39right.gif,,,,,0,0,0,0,0,17,17,38,,,,,,,,,,,,,,,,,,,,,,,41,18,1,286,0.68909339,-2.40315424,39,Experiment,,,,,,,,,105,30,9,9,,,,,,,,,,,,,,,416.5509067,417.0815356,416.5509067,417.0815356,87.75510204,1575474669,1575474673,4.199954033,1575474666,1575474669,,,S7,1,57,m,expert radiologist,2019_Dec_04_0945,AdjustEyeTrack,3.1.5,60.48037396
18,Stimuli/Morph18.JPG,Stimuli/Morph18.png,Stimuli/BlurLevel5/BlurEditedMorph18,Stimuli/BlurLevel5/BlurEditedMorph18.png,Stimuli/BlurLevel5/NumberedMorphs/BlurEditedMorph18.png,Stimuli/BlurLevel5/OriginalBlur/BlurEditedMorph18.png,Stimuli/BlurMorphTrio/EditedMorph18.png,010039right.gif,Stimuli/normal_thumbnails/18right.gif,,,,,0,0,0,0,0,18,18,17,,,,,,,,,,,,,,,,,,,,,,,83,19,1,309,1.573300978,-1.942864904,18,Experiment,,,,,,,,,43,14,4,4,,,,,,,,,,,,,,,423.3244569,423.8494008,423.3244569,423.8494008,94.55782313,1575474676,1575474681,5.048062086,1575474674,1575474676,,,S7,1,57,m,expert radiologist,2019_Dec_04_0945,AdjustEyeTrack,3.1.5,60.48037396
34,Stimuli/Morph34.JPG,Stimuli/Morph34.png,Stimuli/BlurLevel5/BlurEditedMorph34,Stimuli/BlurLevel5/BlurEditedMorph34.png,Stimuli/BlurLevel5/NumberedMorphs/BlurEditedMorph34.png,Stimuli/BlurLevel5/OriginalBlur/BlurEditedMorph34.png,Stimuli/BlurMorphTrio/EditedMorph34.png,010090right.gif,Stimuli/normal_thumbnails/34right.gif,,,,,0,0,0,0,0,19,19,33,,,,,,,,,,,,,,,,,,,,,,,88,20,1,170,-2.462019383,0.434120444,34,Experiment,,,,,,,,,61,27,7,7,,,,,,,,,,,,,,,430.8983993,431.3978697,430.8983993,431.3978697,90.47619048,1575474683,1575474689,5.568025827,1575474681,1575474683,,,S7,1,57,m,expert radiologist,2019_Dec_04_0945,AdjustEyeTrack,3.1.5,60.48037396
82,Stimuli/Morph82.JPG,Stimuli/Morph82.png,Stimuli/BlurLevel5/BlurEditedMorph82,Stimuli/BlurLevel5/BlurEditedMorph82.png,Stimuli/BlurLevel5/NumberedMorphs/BlurEditedMorph82.png,Stimuli/BlurLevel5/OriginalBlur/BlurEditedMorph82.png,Stimuli/BlurMorphTrio/EditedMorph82.png,020247right.gif,Stimuli/normal_thumbnails/82right.gif,,,,,0,0,0,0,0,20,20,81,,,,,,,,,,,,,,,,,,,,,,,78,21,1,211,-2.142918252,-1.287595187,82,Experiment,,,,,,,,,127,120,-38,-38,,,,,,,,,,,,,,,438.8648744,439.3817859,438.8648744,439.3817859,48.29931973,1575474691,1575474695,3.315895081,1575474689,1575474691,,,S7,1,57,m,expert radiologist,2019_Dec_04_0945,AdjustEyeTrack,3.1.5,60.48037396
63,Stimuli/Morph63.JPG,Stimuli/Morph63.png,Stimuli/BlurLevel5/BlurEditedMorph63,Stimuli/BlurLevel5/BlurEditedMorph63.png,Stimuli/BlurLevel5/NumberedMorphs/BlurEditedMorph63.png,Stimuli/BlurLevel5/OriginalBlur/BlurEditedMorph63.png,Stimuli/BlurMorphTrio/EditedMorph63.png,020206right.gif,Stimuli/normal_thumbnails/63right.gif,,,,,0,0,0,0,0,21,21,62,,,,,,,,,,,,,,,,,,,,,,,29,22,1,79,0.477022488,2.454067959,63,Experiment,,,,,,,,,66,64,-1,-1,,,,,,,,,,,,,,,445.500831,446.0144333,445.500831,446.0144333,98.63945578,1575474698,1575474699,1.267204046,1575474695,1575474698,,,S7,1,57,m,expert radiologist,2019_Dec_04_0945,AdjustEyeTrack,3.1.5,60.48037396
108,Stimuli/Morph108.JPG,Stimuli/Morph108.png,Stimuli/BlurLevel5/BlurEditedMorph108,Stimuli/BlurLevel5/BlurEditedMorph108.png,Stimuli/BlurLevel5/NumberedMorphs/BlurEditedMorph108.png,Stimuli/BlurLevel5/OriginalBlur/BlurEditedMorph108.png,Stimuli/BlurMorphTrio/EditedMorph108.png,None,None,,,,,0,0,0,0,0,22,22,107,,,,,,,,,,,,,,,,,,,,,,,13,23,1,19,2.363796439,0.813920386,108,Experiment,,,,,,,,,122,102,6,6,,,,,,,,,,,,,,,449.9081808,450.4307136,449.9081808,450.4307136,91.83673469,1575474702,1575474705,2.1331563,1575474700,1575474702,,,S7,1,57,m,expert radiologist,2019_Dec_04_0945,AdjustEyeTrack,3.1.5,60.48037396
28,Stimuli/Morph28.JPG,Stimuli/Morph28.png,Stimuli/BlurLevel5/BlurEditedMorph28,Stimuli/BlurLevel5/BlurEditedMorph28.png,Stimuli/BlurLevel5/NumberedMorphs/BlurEditedMorph28.png,Stimuli/BlurLevel5/OriginalBlur/BlurEditedMorph28.png,Stimuli/BlurMorphTrio/EditedMorph28.png,010073right.gif,Stimuli/normal_thumbnails/28right.gif,,,,,0,0,0,0,0,23,23,27,,,,,,,,,,,,,,,,,,,,,,,67,24,1,138,-1.857862064,1.672826516,28,Experiment,,,,,,,,,100,16,12,12,,,,,,,,,,,,,,,455.0983609,455.5997649,455.0983609,455.5997649,83.67346939,1575474708,1575474711,3.698675871,1575474705,1575474708,,,S7,1,57,m,expert radiologist,2019_Dec_04_0945,AdjustEyeTrack,3.1.5,60.48037396
77,Stimuli/Morph77.JPG,Stimuli/Morph77.png,Stimuli/BlurLevel5/BlurEditedMorph77,Stimuli/BlurLevel5/BlurEditedMorph77.png,Stimuli/BlurLevel5/NumberedMorphs/BlurEditedMorph77.png,Stimuli/BlurLevel5/OriginalBlur/BlurEditedMorph77.png,Stimuli/BlurMorphTrio/EditedMorph77.png,020235right.gif,Stimuli/normal_thumbnails/77right.gif,,,,,0,0,0,0,0,24,24,76,,,,,,,,,,,,,,,,,,,,,,,14,25,1,217,-1.996588775,-1.504537558,77,Experiment,,,,,,,,,84,77,0,0,,,,,,,,,,,,,,,461.9025399,462.4135842,461.9025399,462.4135842,100,1575474714,1575474717,2.5826478,1575474712,1575474714,,,S7,1,57,m,expert radiologist,2019_Dec_04_0945,AdjustEyeTrack,3.1.5,60.48037396
23,Stimuli/Morph23.JPG,Stimuli/Morph23.png,Stimuli/BlurLevel5/BlurEditedMorph23,Stimuli/BlurLevel5/BlurEditedMorph23.png,Stimuli/BlurLevel5/NumberedMorphs/BlurEditedMorph23.png,Stimuli/BlurLevel5/OriginalBlur/BlurEditedMorph23.png,Stimuli/BlurMorphTrio/EditedMorph23.png,010063right.gif,Stimuli/normal_thumbnails/23right.gif,,,,,0,0,0,0,0,25,25,22,,,,,,,,,,,,,,,,,,,,,,,64,26,1,347,2.435925162,-0.562377636,23,Experiment,,,,,,,,,119,20,3,3,,,,,,,,,,,,,,,467.2253406,467.732607,467.2253406,467.732607,95.91836735,1575474720,1575474722,1.900612116,1575474717,1575474720,,,S7,1,57,m,expert radiologist,2019_Dec_04_0945,AdjustEyeTrack,3.1.5,60.48037396
80,Stimuli/Morph80.JPG,Stimuli/Morph80.png,Stimuli/BlurLevel5/BlurEditedMorph80,Stimuli/BlurLevel5/BlurEditedMorph80.png,Stimuli/BlurLevel5/NumberedMorphs/BlurEditedMorph80.png,Stimuli/BlurLevel5/OriginalBlur/BlurEditedMorph80.png,Stimuli/BlurMorphTrio/EditedMorph80.png,020240right.gif,Stimuli/normal_thumbnails/80right.gif,,,,,0,0,0,0,0,26,26,79,,,,,,,,,,,,,,,,,,,,,,,21,27,1,147,-2.09667642,1.361597588,80,Experiment,,,,,,,,,28,108,-28,-28,,,,,,,,,,,,,,,471.851605,472.364049,471.851605,472.364049,61.9047619,1575474724,1575474730,5.301198244,1575474722,1575474724,,,S7,1,57,m,expert radiologist,2019_Dec_04_0945,AdjustEyeTrack,3.1.5,60.48037396
97,Stimuli/Morph97.JPG,Stimuli/Morph97.png,Stimuli/BlurLevel5/BlurEditedMorph97,Stimuli/BlurLevel5/BlurEditedMorph97.png,Stimuli/BlurLevel5/NumberedMorphs/BlurEditedMorph97.png,Stimuli/BlurLevel5/OriginalBlur/BlurEditedMorph97.png,Stimuli/BlurMorphTrio/EditedMorph97.png,020294right.gif,Stimuli/normal_thumbnails/97right.gif,,,,,0,0,0,0,0,27,27,96,,,,,,,,,,,,,,,,,,,,,,,53,28,1,269,-0.043631016,-2.499619238,97,Experiment,,,,,,,,,141,88,9,9,,,,,,,,,,,,,,,479.9612333,480.480404,479.9612333,480.480404,87.75510204,1575474733,1575474736,3.750375748,1575474730,1575474733,,,S7,1,57,m,expert radiologist,2019_Dec_04_0945,AdjustEyeTrack,3.1.5,60.48037396
73,Stimuli/Morph73.JPG,Stimuli/Morph73.png,Stimuli/BlurLevel5/BlurEditedMorph73,Stimuli/BlurLevel5/BlurEditedMorph73.png,Stimuli/BlurLevel5/NumberedMorphs/BlurEditedMorph73.png,Stimuli/BlurLevel5/OriginalBlur/BlurEditedMorph73.png,Stimuli/BlurMorphTrio/EditedMorph73.png,020230right.gif,Stimuli/normal_thumbnails/73right.gif,,,,,0,0,0,0,0,28,28,72,,,,,,,,,,,,,,,,,,,,,,,95,29,1,221,-1.886773951,-1.640147572,73,Experiment,,,,,,,,,128,108,-35,-35,,,,,,,,,,,,,,,487.0760494,487.5811574,487.0760494,487.5811574,52.38095238,1575474740,1575474743,3.083551884,1575474737,1575474740,,,S7,1,57,m,expert radiologist,2019_Dec_04_0945,AdjustEyeTrack,3.1.5,60.48037396
42,Stimuli/Morph42.JPG,Stimuli/Morph42.png,Stimuli/BlurLevel5/BlurEditedMorph42,Stimuli/BlurLevel5/BlurEditedMorph42.png,Stimuli/BlurLevel5/NumberedMorphs/BlurEditedMorph42.png,Stimuli/BlurLevel5/OriginalBlur/BlurEditedMorph42.png,Stimuli/BlurMorphTrio/EditedMorph42.png,010121right.gif,Stimuli/normal_thumbnails/42right.gif,,,,,0,0,0,0,0,29,29,41,,,,,,,,,,,,,,,,,,,,,,,83,30,1,225,-1.767766953,-1.767766953,42,Experiment,,,,,,,,,24,47,-5,-5,,,,,,,,,,,,,,,493.0490536,493.546148,493.0490536,493.546148,93.19727891,1575474746,1575474749,2.932486057,1575474743,1575474746,,,S7,1,57,m,expert radiologist,2019_Dec_04_0945,AdjustEyeTrack,3.1.5,60.48037396
24,Stimuli/Morph24.JPG,Stimuli/Morph24.png,Stimuli/BlurLevel5/BlurEditedMorph24,Stimuli/BlurLevel5/BlurEditedMorph24.png,Stimuli/BlurLevel5/NumberedMorphs/BlurEditedMorph24.png,Stimuli/BlurLevel5/OriginalBlur/BlurEditedMorph24.png,Stimuli/BlurMorphTrio/EditedMorph24.png,010068right.gif,Stimuli/normal_thumbnails/24right.gif,,,,,0,0,0,0,0,30,30,23,,,,,,,,,,,,,,,,,,,,,,,97,31,1,46,1.736645926,1.798349501,24,Experiment,,,,,,,,,108,14,10,10,,,,,,,,,,,,,,,498.8089135,499.3141057,498.8089135,499.3141057,86.39455782,1575474751,1575474754,2.583630085,1575474749,1575474751,,,S7,1,57,m,expert radiologist,2019_Dec_04_0945,AdjustEyeTrack,3.1.5,60.48037396
104,Stimuli/Morph104.JPG,Stimuli/Morph104.png,Stimuli/BlurLevel5/BlurEditedMorph104,Stimuli/BlurLevel5/BlurEditedMorph104.png,Stimuli/BlurLevel5/NumberedMorphs/BlurEditedMorph104.png,Stimuli/BlurLevel5/OriginalBlur/BlurEditedMorph104.png,Stimuli/BlurMorphTrio/EditedMorph104.png,None,None,,,,,0,0,0,0,0,31,31,103,,,,,,,,,,,,,,,,,,,,,,,24,32,1,102,-0.519779227,2.445369002,104,Experiment,,,,,,,,,128,111,-7,-7,,,,,,,,,,,,,,,504.2657141,504.7627483,504.2657141,504.7627483,90.47619048,1575474757,1575474759,2.700564146,1575474754,1575474757,,,S7,1,57,m,expert radiologist,2019_Dec_04_0945,AdjustEyeTrack,3.1.5,60.48037396
112,Stimuli/Morph112.JPG,Stimuli/Morph112.png,Stimuli/BlurLevel5/BlurEditedMorph112,Stimuli/BlurLevel5/BlurEditedMorph112.png,Stimuli/BlurLevel5/NumberedMorphs/BlurEditedMorph112.png,Stimuli/BlurLevel5/OriginalBlur/BlurEditedMorph112.png,Stimuli/BlurMorphTrio/EditedMorph112.png,None,None,,,,,0,0,0,0,0,32,32,111,,,,,,,,,,,,,,,,,,,,,,,64,33,1,243,-1.134976249,-2.22751631,112,Experiment,,,,,,,,,97,79,33,33,,,,,,,,,,,,,,,509.7970213,510.312164,509.7970213,510.312164,55.10204082,1575474762,1575474764,1.616826773,1575474760,1575474762,,,S7,1,57,m,expert radiologist,2019_Dec_04_0945,AdjustEyeTrack,3.1.5,60.48037396
40,Stimuli/Morph40.JPG,Stimuli/Morph40.png,Stimuli/BlurLevel5/BlurEditedMorph40,Stimuli/BlurLevel5/BlurEditedMorph40.png,Stimuli/BlurLevel5/NumberedMorphs/BlurEditedMorph40.png,Stimuli/BlurLevel5/OriginalBlur/BlurEditedMorph40.png,Stimuli/BlurMorphTrio/EditedMorph40.png,010110right.gif,Stimuli/normal_thumbnails/40right.gif,,,,,0,0,0,0,0,33,33,39,,,,,,,,,,,,,,,,,,,,,,,96,34,1,233,-1.504537558,-1.996588775,40,Experiment,,,,,,,,,36,37,3,3,,,,,,,,,,,,,,,515.1374834,515.6663246,515.1374834,515.6663246,95.91836735,1575474768,1575474771,3.001657963,1575474764,1575474768,,,S7,1,57,m,expert radiologist,2019_Dec_04_0945,AdjustEyeTrack,3.1.5,60.48037396
75,Stimuli/Morph75.JPG,Stimuli/Morph75.png,Stimuli/BlurLevel5/BlurEditedMorph75,Stimuli/BlurLevel5/BlurEditedMorph75.png,Stimuli/BlurLevel5/NumberedMorphs/BlurEditedMorph75.png,Stimuli/BlurLevel5/OriginalBlur/BlurEditedMorph75.png,Stimuli/BlurMorphTrio/EditedMorph75.png,020233right.gif,Stimuli/normal_thumbnails/75right.gif,,,,,0,0,0,0,0,34,34,74,,,,,,,,,,,,,,,,,,,,,,,48,35,1,275,0.217889357,-2.490486745,75,Experiment,,,,,,,,,103,76,-1,-1,,,,,,,,,,,,,,,521.0148393,521.5120383,521.0148393,521.5120383,98.63945578,1575474774,1575474779,5.049245834,1575474771,1575474774,,,S7,1,57,m,expert radiologist,2019_Dec_04_0945,AdjustEyeTrack,3.1.5,60.48037396
121,Stimuli/Morph121.JPG,Stimuli/Morph121.png,Stimuli/BlurLevel5/BlurEditedMorph121,Stimuli/BlurLevel5/BlurEditedMorph121.png,Stimuli/BlurLevel5/NumberedMorphs/BlurEditedMorph121.png,Stimuli/BlurLevel5/OriginalBlur/BlurEditedMorph121.png,Stimuli/BlurMorphTrio/EditedMorph121.png,None,None,,,,,0,0,0,0,0,35,35,120,,,,,,,,,,,,,,,,,,,,,,,38,36,1,62,1.173678907,2.207368982,121,Experiment,,,,,,,,,87,97,24,24,,,,,,,,,,,,,,,529.079583,529.6160036,529.079583,529.6160036,67.34693878,1575474782,1575474785,2.815181732,1575474779,1575474782,,,S7,1,57,m,expert radiologist,2019_Dec_04_0945,AdjustEyeTrack,3.1.5,60.48037396
122,Stimuli/Morph122.JPG,Stimuli/Morph122.png,Stimuli/BlurLevel5/BlurEditedMorph122,Stimuli/BlurLevel5/BlurEditedMorph122.png,Stimuli/BlurLevel5/NumberedMorphs/BlurEditedMorph122.png,Stimuli/BlurLevel5/OriginalBlur/BlurEditedMorph122.png,Stimuli/BlurMorphTrio/EditedMorph122.png,None,None,,,,,0,0,0,0,0,36,36,121,,,,,,,,,,,,,,,,,,,,,,,39,37,1,114,-1.016841608,2.283863644,122,Experiment,,,,,,,,,56,87,35,35,,,,,,,,,,,,,,,534.9677375,535.4655374,534.9677375,535.4655374,52.38095238,1575474787,1575474794,6.400602102,1575474785,1575474787,,,S7,1,57,m,expert radiologist,2019_Dec_04_0945,AdjustEyeTrack,3.1.5,60.48037396
76,Stimuli/Morph76.JPG,Stimuli/Morph76.png,Stimuli/BlurLevel5/BlurEditedMorph76,Stimuli/BlurLevel5/BlurEditedMorph76.png,Stimuli/BlurLevel5/NumberedMorphs/BlurEditedMorph76.png,Stimuli/BlurLevel5/OriginalBlur/BlurEditedMorph76.png,Stimuli/BlurMorphTrio/EditedMorph76.png,020234right.gif,Stimuli/normal_thumbnails/76right.gif,,,,,0,0,0,0,0,37,37,75,,,,,,,,,,,,,,,,,,,,,,,49,38,1,139,-1.886773951,1.640147572,76,Experiment,,,,,,,,,110,97,-21,-21,,,,,,,,,,,,,,,544.281922,544.7834751,544.281922,544.7834751,71.42857143,1575474797,1575474800,3.057658195,1575474794,1575474797,,,S7,1,57,m,expert radiologist,2019_Dec_04_0945,AdjustEyeTrack,3.1.5,60.48037396
43,Stimuli/Morph43.JPG,Stimuli/Morph43.png,Stimuli/BlurLevel5/BlurEditedMorph43,Stimuli/BlurLevel5/BlurEditedMorph43.png,Stimuli/BlurLevel5/NumberedMorphs/BlurEditedMorph43.png,Stimuli/BlurLevel5/OriginalBlur/BlurEditedMorph43.png,Stimuli/BlurMorphTrio/EditedMorph43.png,010124right.gif,Stimuli/normal_thumbnails/43right.gif,,,,,0,0,0,0,0,38,38,42,,,,,,,,,,,,,,,,,,,,,,,27,39,1,148,-2.12012024,1.324798161,43,Experiment,,,,,,,,,57,53,-10,-10,,,,,,,,,,,,,,,549.8673039,550.3617641,549.8673039,550.3617641,86.39455782,1575474802,1575474804,1.266057014,1575474800,1575474802,,,S7,1,57,m,expert radiologist,2019_Dec_04_0945,AdjustEyeTrack,3.1.5,60.48037396
67,Stimuli/Morph67.JPG,Stimuli/Morph67.png,Stimuli/BlurLevel5/BlurEditedMorph67,Stimuli/BlurLevel5/BlurEditedMorph67.png,Stimuli/BlurLevel5/NumberedMorphs/BlurEditedMorph67.png,Stimuli/BlurLevel5/OriginalBlur/BlurEditedMorph67.png,Stimuli/BlurMorphTrio/EditedMorph67.png,020217right.gif,Stimuli/normal_thumbnails/67right.gif,,,,,0,0,0,0,0,39,39,66,,,,,,,,,,,,,,,,,,,,,,,36,40,1,77,0.562377636,2.435925162,67,Experiment,,,,,,,,,67,67,0,0,,,,,,,,,,,,,,,553.9377476,554.4621773,553.9377476,554.4621773,100,1575474806,1575474808,1.267135859,1575474804,1575474806,,,S7,1,57,m,expert radiologist,2019_Dec_04_0945,AdjustEyeTrack,3.1.5,60.48037396
118,Stimuli/Morph118.JPG,Stimuli/Morph118.png,Stimuli/BlurLevel5/BlurEditedMorph118,Stimuli/BlurLevel5/BlurEditedMorph118.png,Stimuli/BlurLevel5/NumberedMorphs/BlurEditedMorph118.png,Stimuli/BlurLevel5/OriginalBlur/BlurEditedMorph118.png,Stimuli/BlurMorphTrio/EditedMorph118.png,None,None,,,,,0,0,0,0,0,40,40,117,,,,,,,,,,,,,,,,,,,,,,,91,41,1,70,0.855050358,2.349231552,118,Experiment,,,,,,,,,17,92,26,26,,,,,,,,,,,,,,,558.2836872,558.7786365,558.2836872,558.7786365,64.62585034,1575474811,1575474816,5.28340888,1575474808,1575474811,,,S7,1,57,m,expert radiologist,2019_Dec_04_0945,AdjustEyeTrack,3.1.5,60.48037396
6,Stimuli/Morph6.JPG,Stimuli/Morph6.png,Stimuli/BlurLevel5/BlurEditedMorph6,Stimuli/BlurLevel5/BlurEditedMorph6.png,Stimuli/BlurLevel5/NumberedMorphs/BlurEditedMorph6.png,Stimuli/BlurLevel5/OriginalBlur/BlurEditedMorph6.png,Stimuli/BlurMorphTrio/EditedMorph6.png,010012right.gif,Stimuli/normal_thumbnails/6right.gif,,,,,0,0,0,0,0,41,41,5,,,,,,,,,,,,,,,,,,,,,,,46,42,1,170,-2.462019383,0.434120444,6,Experiment,,,,,,,,,74,6,0,0,,,,,,,,,,,,,,,565.995373,566.4948879,565.995373,566.4948879,100,1575474819,1575474823,4.050197124,1575474816,1575474818,,,S7,1,57,m,expert radiologist,2019_Dec_04_0945,AdjustEyeTrack,3.1.5,60.48037396
123,Stimuli/Morph123.JPG,Stimuli/Morph123.png,Stimuli/BlurLevel5/BlurEditedMorph123,Stimuli/BlurLevel5/BlurEditedMorph123.png,Stimuli/BlurLevel5/NumberedMorphs/BlurEditedMorph123.png,Stimuli/BlurLevel5/OriginalBlur/BlurEditedMorph123.png,Stimuli/BlurMorphTrio/EditedMorph123.png,None,None,,,,,0,0,0,0,0,42,42,122,,,,,,,,,,,,,,,,,,,,,,,62,43,1,142,-1.970026884,1.539153688,123,Experiment,,,,,,,,,143,82,41,41,,,,,,,,,,,,,,,573.0814677,573.5952024,573.0814677,573.5952024,44.21768707,1575474826,1575474828,2.631717205,1575474823,1575474826,,,S7,1,57,m,expert radiologist,2019_Dec_04_0945,AdjustEyeTrack,3.1.5,60.48037396
91,Stimuli/Morph91.JPG,Stimuli/Morph91.png,Stimuli/BlurLevel5/BlurEditedMorph91,Stimuli/BlurLevel5/BlurEditedMorph91.png,Stimuli/BlurLevel5/NumberedMorphs/BlurEditedMorph91.png,Stimuli/BlurLevel5/OriginalBlur/BlurEditedMorph91.png,Stimuli/BlurMorphTrio/EditedMorph91.png,020276right.gif,Stimuli/normal_thumbnails/91right.gif,,,,,0,0,0,0,0,43,43,90,,,,,,,,,,,,,,,,,,,,,,,70,44,1,54,1.469463131,2.022542486,91,Experiment,,,,,,,,,107,74,17,17,,,,,,,,,,,,,,,578.3984104,578.9117361,578.3984104,578.9117361,76.8707483,1575474831,1575474833,1.700876713,1575474829,1575474831,,,S7,1,57,m,expert radiologist,2019_Dec_04_0945,AdjustEyeTrack,3.1.5,60.48037396
88,Stimuli/Morph88.JPG,Stimuli/Morph88.png,Stimuli/BlurLevel5/BlurEditedMorph88,Stimuli/BlurLevel5/BlurEditedMorph88.png,Stimuli/BlurLevel5/NumberedMorphs/BlurEditedMorph88.png,Stimuli/BlurLevel5/OriginalBlur/BlurEditedMorph88.png,Stimuli/BlurMorphTrio/EditedMorph88.png,020271right.gif,Stimuli/normal_thumbnails/88right.gif,,,,,0,0,0,0,0,44,44,87,,,,,,,,,,,,,,,,,,,,,,,83,45,1,77,0.562377636,2.435925162,88,Experiment,,,,,,,,,47,103,-15,-15,,,,,,,,,,,,,,,583.1348472,583.6285674,583.1348472,583.6285674,79.59183673,1575474836,1575474842,6.417327166,1575474833,1575474836,,,S7,1,57,m,expert radiologist,2019_Dec_04_0945,AdjustEyeTrack,3.1.5,60.48037396
139,Stimuli/Morph139.JPG,Stimuli/Morph139.png,Stimuli/BlurLevel5/BlurEditedMorph139,Stimuli/BlurLevel5/BlurEditedMorph139.png,Stimuli/BlurLevel5/NumberedMorphs/BlurEditedMorph139.png,Stimuli/BlurLevel5/OriginalBlur/BlurEditedMorph139.png,Stimuli/BlurMorphTrio/EditedMorph139.png,None,None,,,,,0,0,0,0,0,45,45,138,,,,,,,,,,,,,,,,,,,,,,,42,46,1,60,1.25,2.165063509,139,Experiment,,,,,,,,,95,6,133,-14,,,,,,,,,,,,,,,592.5154015,593.0454645,592.5154015,593.0454645,80.95238095,1575474845,1575474848,3.183632851,1575474842,1575474845,,,S7,1,57,m,expert radiologist,2019_Dec_04_0945,AdjustEyeTrack,3.1.5,60.48037396
52,Stimuli/Morph52.JPG,Stimuli/Morph52.png,Stimuli/BlurLevel5/BlurEditedMorph52,Stimuli/BlurLevel5/BlurEditedMorph52.png,Stimuli/BlurLevel5/NumberedMorphs/BlurEditedMorph52.png,Stimuli/BlurLevel5/OriginalBlur/BlurEditedMorph52.png,Stimuli/BlurMorphTrio/EditedMorph52.png,010148right.gif,Stimuli/normal_thumbnails/52right.gif,,,,,0,0,0,0,0,46,46,51,,,,,,,,,,,,,,,,,,,,,,,79,47,1,221,-1.886773951,-1.640147572,52,Experiment,,,,,,,,,53,50,2,2,,,,,,,,,,,,,,,598.4522208,598.9445387,598.4522208,598.9445387,97.27891156,1575474851,1575474852,1.19859314,1575474848,1575474851,,,S7,1,57,m,expert radiologist,2019_Dec_04_0945,AdjustEyeTrack,3.1.5,60.48037396
138,Stimuli/Morph138.JPG,Stimuli/Morph138.png,Stimuli/BlurLevel5/BlurEditedMorph138,Stimuli/BlurLevel5/BlurEditedMorph138.png,Stimuli/BlurLevel5/NumberedMorphs/BlurEditedMorph138.png,Stimuli/BlurLevel5/OriginalBlur/BlurEditedMorph138.png,Stimuli/BlurMorphTrio/EditedMorph138.png,None,None,,,,,0,0,0,0,0,47,47,137,,,,,,,,,,,,,,,,,,,,,,,22,48,1,45,1.767766953,1.767766953,138,Experiment,,,,,,,,,56,45,93,-54,,,,,,,,,,,,,,,602.5136969,603.0277338,602.5136969,603.0277338,26.53061224,1575474855,1575474859,3.765311956,1575474852,1575474855,,,S7,1,57,m,expert radiologist,2019_Dec_04_0945,AdjustEyeTrack,3.1.5,60.48037396
61,Stimuli/Morph61.JPG,Stimuli/Morph61.png,Stimuli/BlurLevel5/BlurEditedMorph61,Stimuli/BlurLevel5/BlurEditedMorph61.png,Stimuli/BlurLevel5/NumberedMorphs/BlurEditedMorph61.png,Stimuli/BlurLevel5/OriginalBlur/BlurEditedMorph61.png,Stimuli/BlurMorphTrio/EditedMorph61.png,020201right.gif,Stimuli/normal_thumbnails/61right.gif,,,,,0,0,0,0,0,48,48,60,,,,,,,,,,,,,,,,,,,,,,,1,49,1,259,-0.477022488,-2.454067959,61,Experiment,,,,,,,,,4,53,8,8,,,,,,,,,,,,,,,608.2793617,608.7947077,608.2793617,608.7947077,89.11564626,1575474861,1575474866,4.899470806,1575474859,1575474861,,,S7,1,57,m,expert radiologist,2019_Dec_04_0945,AdjustEyeTrack,3.1.5,60.48037396
37,Stimuli/Morph37.JPG,Stimuli/Morph37.png,Stimuli/BlurLevel5/BlurEditedMorph37,Stimuli/BlurLevel5/BlurEditedMorph37.png,Stimuli/BlurLevel5/NumberedMorphs/BlurEditedMorph37.png,Stimuli/BlurLevel5/OriginalBlur/BlurEditedMorph37.png,Stimuli/BlurMorphTrio/EditedMorph37.png,010097right.gif,Stimuli/normal_thumbnails/37right.gif,,,,,0,0,0,0,0,49,49,36,,,,,,,,,,,,,,,,,,,,,,,54,50,1,93,-0.130839891,2.496573837,37,Experiment,,,,,,,,,58,135,-98,49,,,,,,,,,,,,,,,615.6620021,616.1802681,615.6620021,616.1802681,33.33333333,1575474868,1575474877,8.383695841,1575474866,1575474868,,,S7,1,57,m,expert radiologist,2019_Dec_04_0945,AdjustEyeTrack,3.1.5,60.48037396
142,Stimuli/Morph142.JPG,Stimuli/Morph142.png,Stimuli/BlurLevel5/BlurEditedMorph142,Stimuli/BlurLevel5/BlurEditedMorph142.png,Stimuli/BlurLevel5/NumberedMorphs/BlurEditedMorph142.png,Stimuli/BlurLevel5/OriginalBlur/BlurEditedMorph142.png,Stimuli/BlurMorphTrio/EditedMorph142.png,None,None,,,,,0,0,0,0,0,50,50,141,,,,,,,,,,,,,,,,,,,,,,,4,51,1,31,2.142918252,1.287595187,142,Experiment,,,,,,,,,91,144,-2,-2,,,,,,,,,,,,,,,626.7296529,627.2276794,626.7296529,627.2276794,97.27891156,1575474879,1575474883,4.067605972,1575474877,1575474879,,,S7,1,57,m,expert radiologist,2019_Dec_04_0945,AdjustEyeTrack,3.1.5,60.48037396
147,Stimuli/Morph147.JPG,Stimuli/Morph147.png,Stimuli/BlurLevel5/BlurEditedMorph147,Stimuli/BlurLevel5/BlurEditedMorph147.png,Stimuli/BlurLevel5/NumberedMorphs/BlurEditedMorph147.png,Stimuli/BlurLevel5/OriginalBlur/BlurEditedMorph147.png,Stimuli/BlurMorphTrio/EditedMorph147.png,None,None,,,,,0,0,0,0,0,51,51,146,,,,,,,,,,,,,,,,,,,,,,,45,52,1,276,0.261321158,-2.486304738,147,Experiment,,,,,,,,,116,139,8,8,,,,,,,,,,,,,,,633.3786221,633.879811,633.3786221,633.879811,89.11564626,1575474886,1575474889,3.568576097,1575474884,1575474886,,,S7,1,57,m,expert radiologist,2019_Dec_04_0945,AdjustEyeTrack,3.1.5,60.48037396
22,Stimuli/Morph22.JPG,Stimuli/Morph22.png,Stimuli/BlurLevel5/BlurEditedMorph22,Stimuli/BlurLevel5/BlurEditedMorph22.png,Stimuli/BlurLevel5/NumberedMorphs/BlurEditedMorph22.png,Stimuli/BlurLevel5/OriginalBlur/BlurEditedMorph22.png,Stimuli/BlurMorphTrio/EditedMorph22.png,010055right.gif,Stimuli/normal_thumbnails/22right.gif,,,,,0,0,0,0,0,52,52,21,,,,,,,,,,,,,,,,,,,,,,,32,53,1,54,1.469463131,2.022542486,22,Experiment,,,,,,,,,75,24,-2,-2,,,,,,,,,,,,,,,639.9448174,640.4440579,639.9448174,640.4440579,97.27891156,1575474892,1575474897,4.398743153,1575474890,1575474892,,,S7,1,57,m,expert radiologist,2019_Dec_04_0945,AdjustEyeTrack,3.1.5,60.48037396
105,Stimuli/Morph105.JPG,Stimuli/Morph105.png,Stimuli/BlurLevel5/BlurEditedMorph105,Stimuli/BlurLevel5/BlurEditedMorph105.png,Stimuli/BlurLevel5/NumberedMorphs/BlurEditedMorph105.png,Stimuli/BlurLevel5/OriginalBlur/BlurEditedMorph105.png,Stimuli/BlurMorphTrio/EditedMorph105.png,None,None,,,,,0,0,0,0,0,53,53,104,,,,,,,,,,,,,,,,,,,,,,,33,54,1,283,0.562377636,-2.435925162,105,Experiment,,,,,,,,,6,97,8,8,,,,,,,,,,,,,,,647.1121756,647.6122758,647.1121756,647.6122758,89.11564626,1575474900,1575474905,5.751906157,1575474897,1575474900,,,S7,1,57,m,expert radiologist,2019_Dec_04_0945,AdjustEyeTrack,3.1.5,60.48037396
146,Stimuli/Morph146.JPG,Stimuli/Morph146.png,Stimuli/BlurLevel5/BlurEditedMorph146,Stimuli/BlurLevel5/BlurEditedMorph146.png,Stimuli/BlurLevel5/NumberedMorphs/BlurEditedMorph146.png,Stimuli/BlurLevel5/OriginalBlur/BlurEditedMorph146.png,Stimuli/BlurMorphTrio/EditedMorph146.png,None,None,,,,,0,0,0,0,0,54,54,145,,,,,,,,,,,,,,,,,,,,,,,49,55,1,293,0.976827821,-2.301262134,146,Experiment,,,,,,,,,39,144,2,2,,,,,,,,,,,,,,,655.7784594,656.2775097,655.7784594,656.2775097,97.27891156,1575474908,1575474916,7.466034889,1575474906,1575474908,,,S7,1,57,m,expert radiologist,2019_Dec_04_0945,AdjustEyeTrack,3.1.5,60.48037396
47,Stimuli/Morph47.JPG,Stimuli/Morph47.png,Stimuli/BlurLevel5/BlurEditedMorph47,Stimuli/BlurLevel5/BlurEditedMorph47.png,Stimuli/BlurLevel5/NumberedMorphs/BlurEditedMorph47.png,Stimuli/BlurLevel5/OriginalBlur/BlurEditedMorph47.png,Stimuli/BlurMorphTrio/EditedMorph47.png,010130right.gif,Stimuli/normal_thumbnails/47right.gif,,,,,0,0,0,0,0,55,55,46,,,,,,,,,,,,,,,,,,,,,,,59,56,1,304,1.397982259,-2.072593931,47,Experiment,,,,,,,,,128,61,-14,-14,,,,,,,,,,,,,,,665.5282312,666.0266621,665.5282312,666.0266621,80.95238095,1575474918,1575474922,3.59970665,1575474916,1575474918,,,S7,1,57,m,expert radiologist,2019_Dec_04_0945,AdjustEyeTrack,3.1.5,60.48037396
103,Stimuli/Morph103.JPG,Stimuli/Morph103.png,Stimuli/BlurLevel5/BlurEditedMorph103,Stimuli/BlurLevel5/BlurEditedMorph103.png,Stimuli/BlurLevel5/NumberedMorphs/BlurEditedMorph103.png,Stimuli/BlurLevel5/OriginalBlur/BlurEditedMorph103.png,Stimuli/BlurMorphTrio/EditedMorph103.png,None,None,,,,,0,0,0,0,0,56,56,102,,,,,,,,,,,,,,,,,,,,,,,19,57,1,165,-2.414814566,0.647047613,103,Experiment,,,,,,,,,105,101,2,2,,,,,,,,,,,,,,,671.7695761,672.2810343,671.7695761,672.2810343,97.27891156,1575474924,1575474926,1.201562166,1575474922,1575474924,,,S7,1,57,m,expert radiologist,2019_Dec_04_0945,AdjustEyeTrack,3.1.5,60.48037396
109,Stimuli/Morph109.JPG,Stimuli/Morph109.png,Stimuli/BlurLevel5/BlurEditedMorph109,Stimuli/BlurLevel5/BlurEditedMorph109.png,Stimuli/BlurLevel5/NumberedMorphs/BlurEditedMorph109.png,Stimuli/BlurLevel5/OriginalBlur/BlurEditedMorph109.png,Stimuli/BlurMorphTrio/EditedMorph109.png,None,None,,,,,0,0,0,0,0,57,57,108,,,,,,,,,,,,,,,,,,,,,,,40,58,1,271,0.043631016,-2.499619238,109,Experiment,,,,,,,,,132,100,9,9,,,,,,,,,,,,,,,675.7146905,676.2293558,675.7146905,676.2293558,87.75510204,1575474928,1575474930,2.217026949,1575474926,1575474928,,,S7,1,57,m,expert radiologist,2019_Dec_04_0945,AdjustEyeTrack,3.1.5,60.48037396
41,Stimuli/Morph41.JPG,Stimuli/Morph41.png,Stimuli/BlurLevel5/BlurEditedMorph41,Stimuli/BlurLevel5/BlurEditedMorph41.png,Stimuli/BlurLevel5/NumberedMorphs/BlurEditedMorph41.png,Stimuli/BlurLevel5/OriginalBlur/BlurEditedMorph41.png,Stimuli/BlurMorphTrio/EditedMorph41.png,010112right.gif,Stimuli/normal_thumbnails/41right.gif,,,,,0,0,0,0,0,58,58,40,,,,,,,,,,,,,,,,,,,,,,,90,59,1,308,1.539153688,-1.970026884,41,Experiment,,,,,,,,,21,66,-25,-25,,,,,,,,,,,,,,,680.5043554,681.0480323,680.5043554,681.0480323,65.98639456,1575474933,1575474937,4.1176579,1575474931,1575474933,,,S7,1,57,m,expert radiologist,2019_Dec_04_0945,AdjustEyeTrack,3.1.5,60.48037396
99,Stimuli/Morph99.JPG,Stimuli/Morph99.png,Stimuli/BlurLevel5/BlurEditedMorph99,Stimuli/BlurLevel5/BlurEditedMorph99.png,Stimuli/BlurLevel5/NumberedMorphs/BlurEditedMorph99.png,Stimuli/BlurLevel5/OriginalBlur/BlurEditedMorph99.png,Stimuli/BlurMorphTrio/EditedMorph99.png,020299right.gif,Stimuli/normal_thumbnails/99right.gif,,,,,0,0,0,0,0,59,59,98,,,,,,,,,,,,,,,,,,,,,,,24,60,1,92,-0.087248742,2.498477068,99,Experiment,,,,,,,,,57,78,21,21,,,,,,,,,,,,,,,687.4496378,687.9615067,687.4496378,687.9615067,71.42857143,1575474940,1575474944,4.467612743,1575474937,1575474940,,,S7,1,57,m,expert radiologist,2019_Dec_04_0945,AdjustEyeTrack,3.1.5,60.48037396
45,Stimuli/Morph45.JPG,Stimuli/Morph45.png,Stimuli/BlurLevel5/BlurEditedMorph45,Stimuli/BlurLevel5/BlurEditedMorph45.png,Stimuli/BlurLevel5/NumberedMorphs/BlurEditedMorph45.png,Stimuli/BlurLevel5/OriginalBlur/BlurEditedMorph45.png,Stimuli/BlurMorphTrio/EditedMorph45.png,010127right.gif,Stimuli/normal_thumbnails/45right.gif,,,,,0,0,0,0,0,60,60,44,,,,,,,,,,,,,,,,,,,,,,,57,61,1,215,-2.047880111,-1.433941091,45,Experiment,,,,,,,,,113,60,-15,-15,,,,,,,,,,,,,,,694.7547629,695.2602019,694.7547629,695.2602019,79.59183673,1575474947,1575474950,3.068300962,1575474945,1575474947,,,S7,1,57,m,expert radiologist,2019_Dec_04_0945,AdjustEyeTrack,3.1.5,60.48037396
16,Stimuli/Morph16.JPG,Stimuli/Morph16.png,Stimuli/BlurLevel5/BlurEditedMorph16,Stimuli/BlurLevel5/BlurEditedMorph16.png,Stimuli/BlurLevel5/NumberedMorphs/BlurEditedMorph16.png,Stimuli/BlurLevel5/OriginalBlur/BlurEditedMorph16.png,Stimuli/BlurMorphTrio/EditedMorph16.png,010034right.gif,Stimuli/normal_thumbnails/16right.gif,,,,,0,0,0,0,0,61,61,15,,,,,,,,,,,,,,,,,,,,,,,21,62,1,343,2.39076189,-0.730929262,16,Experiment,,,,,,,,,38,11,5,5,,,,,,,,,,,,,,,700.5518402,701.0611168,700.5518402,701.0611168,93.19727891,1575474953,1575474958,5.148572922,1575474951,1575474953,,,S7,1,57,m,expert radiologist,2019_Dec_04_0945,AdjustEyeTrack,3.1.5,60.48037396
3,Stimuli/Morph3.JPG,Stimuli/Morph3.png,Stimuli/BlurLevel5/BlurEditedMorph3,Stimuli/BlurLevel5/BlurEditedMorph3.png,Stimuli/BlurLevel5/NumberedMorphs/BlurEditedMorph3.png,Stimuli/BlurLevel5/OriginalBlur/BlurEditedMorph3.png,Stimuli/BlurMorphTrio/EditedMorph3.png,010009right.gif,Stimuli/normal_thumbnails/3right.gif,,,,,0,0,0,0,0,62,62,2,,,,,,,,,,,,,,,,,,,,,,,92,63,1,287,0.730929262,-2.39076189,3,Experiment,,,,,,,,,110,9,-6,-6,,,,,,,,,,,,,,,708.7794577,709.2813039,708.7794577,709.2813039,91.83673469,1575474961,1575474966,4.43234992,1575474958,1575474961,,,S7,1,57,m,expert radiologist,2019_Dec_04_0945,AdjustEyeTrack,3.1.5,60.48037396
49,Stimuli/Morph49.JPG,Stimuli/Morph49.png,Stimuli/BlurLevel5/BlurEditedMorph49,Stimuli/BlurLevel5/BlurEditedMorph49.png,Stimuli/BlurLevel5/NumberedMorphs/BlurEditedMorph49.png,Stimuli/BlurLevel5/OriginalBlur/BlurEditedMorph49.png,Stimuli/BlurMorphTrio/EditedMorph49.png,010135right.gif,Stimuli/normal_thumbnails/49right.gif,,,,,0,0,0,0,0,63,63,48,,,,,,,,,,,,,,,,,,,,,,,82,64,1,95,-0.217889357,2.490486745,49,Experiment,,,,,,,,,12,59,-10,-10,,,,,,,,,,,,,,,716.001153,716.4933509,716.001153,716.4933509,86.39455782,1575474969,1575474972,3.45074296,1575474966,1575474969,,,S7,1,57,m,expert radiologist,2019_Dec_04_0945,AdjustEyeTrack,3.1.5,60.48037396
72,Stimuli/Morph72.JPG,Stimuli/Morph72.png,Stimuli/BlurLevel5/BlurEditedMorph72,Stimuli/BlurLevel5/BlurEditedMorph72.png,Stimuli/BlurLevel5/NumberedMorphs/BlurEditedMorph72.png,Stimuli/BlurLevel5/OriginalBlur/BlurEditedMorph72.png,Stimuli/BlurMorphTrio/EditedMorph72.png,020227right.gif,Stimuli/normal_thumbnails/72right.gif,,,,,0,0,0,0,0,64,64,71,,,,,,,,,,,,,,,,,,,,,,,61,65,1,276,0.261321158,-2.486304738,72,Experiment,,,,,,,,,30,70,2,2,,,,,,,,,,,,,,,722.6950061,723.1932933,722.6950061,723.1932933,97.27891156,1575474975,1575474978,3.015430212,1575474972,1575474975,,,S7,1,57,m,expert radiologist,2019_Dec_04_0945,AdjustEyeTrack,3.1.5,60.48037396
65,Stimuli/Morph65.JPG,Stimuli/Morph65.png,Stimuli/BlurLevel5/BlurEditedMorph65,Stimuli/BlurLevel5/BlurEditedMorph65.png,Stimuli/BlurLevel5/NumberedMorphs/BlurEditedMorph65.png,Stimuli/BlurLevel5/OriginalBlur/BlurEditedMorph65.png,Stimuli/BlurMorphTrio/EditedMorph65.png,020209right.gif,Stimuli/normal_thumbnails/65right.gif,,,,,0,0,0,0,0,65,65,64,,,,,,,,,,,,,,,,,,,,,,,28,66,1,295,1.056545654,-2.265769468,65,Experiment,,,,,,,,,116,72,-7,-7,,,,,,,,,,,,,,,728.828336,729.5273335,728.828336,729.5273335,90.47619048,1575474982,1575474985,3.499731064,1575474979,1575474982,,,S7,1,57,m,expert radiologist,2019_Dec_04_0945,AdjustEyeTrack,3.1.5,60.48037396
145,Stimuli/Morph145.JPG,Stimuli/Morph145.png,Stimuli/BlurLevel5/BlurEditedMorph145,Stimuli/BlurLevel5/BlurEditedMorph145.png,Stimuli/BlurLevel5/NumberedMorphs/BlurEditedMorph145.png,Stimuli/BlurLevel5/OriginalBlur/BlurEditedMorph145.png,Stimuli/BlurMorphTrio/EditedMorph145.png,None,None,,,,,0,0,0,0,0,66,66,144,,,,,,,,,,,,,,,,,,,,,,,61,67,1,268,-0.087248742,-2.498477068,145,Experiment,,,,,,,,,61,11,134,-13,,,,,,,,,,,,,,,735.0678626,735.5946273,735.0678626,735.5946273,82.31292517,1575474988,1575474991,3.683307171,1575474985,1575474988,,,S7,1,57,m,expert radiologist,2019_Dec_04_0945,AdjustEyeTrack,3.1.5,60.48037396
33,Stimuli/Morph33.JPG,Stimuli/Morph33.png,Stimuli/BlurLevel5/BlurEditedMorph33,Stimuli/BlurLevel5/BlurEditedMorph33.png,Stimuli/BlurLevel5/NumberedMorphs/BlurEditedMorph33.png,Stimuli/BlurLevel5/OriginalBlur/BlurEditedMorph33.png,Stimuli/BlurMorphTrio/EditedMorph33.png,010089right.gif,Stimuli/normal_thumbnails/33right.gif,,,,,0,0,0,0,0,67,67,32,,,,,,,,,,,,,,,,,,,,,,,75,68,1,312,1.672826516,-1.857862064,33,Experiment,,,,,,,,,99,146,-113,34,,,,,,,,,,,,,,,741.1622883,741.6591953,741.1622883,741.6591953,53.7414966,1575474994,1575474998,4.599077702,1575474992,1575474994,,,S7,1,57,m,expert radiologist,2019_Dec_04_0945,AdjustEyeTrack,3.1.5,60.48037396
8,Stimuli/Morph8.JPG,Stimuli/Morph8.png,Stimuli/BlurLevel5/BlurEditedMorph8,Stimuli/BlurLevel5/BlurEditedMorph8.png,Stimuli/BlurLevel5/NumberedMorphs/BlurEditedMorph8.png,Stimuli/BlurLevel5/OriginalBlur/BlurEditedMorph8.png,Stimuli/BlurMorphTrio/EditedMorph8.png,010014right.gif,Stimuli/normal_thumbnails/8right.gif,,,,,0,0,0,0,0,68,68,7,,,,,,,,,,,,,,,,,,,,,,,1,69,1,110,-0.855050358,2.349231552,8,Experiment,,,,,,,,,77,7,1,1,,,,,,,,,,,,,,,747.732993,748.2261358,747.732993,748.2261358,98.63945578,1575475000,1575475003,2.984884977,1575474999,1575475000,,,S7,1,57,m,expert radiologist,2019_Dec_04_0945,AdjustEyeTrack,3.1.5,60.48037396
50,Stimuli/Morph50.JPG,Stimuli/Morph50.png,Stimuli/BlurLevel5/BlurEditedMorph50,Stimuli/BlurLevel5/BlurEditedMorph50.png,Stimuli/BlurLevel5/NumberedMorphs/BlurEditedMorph50.png,Stimuli/BlurLevel5/OriginalBlur/BlurEditedMorph50.png,Stimuli/BlurMorphTrio/EditedMorph50.png,010142right.gif,Stimuli/normal_thumbnails/50right.gif,,,,,0,0,0,0,0,69,69,49,,,,,,,,,,,,,,,,,,,,,,,20,70,1,171,-2.469220851,0.391086163,50,Experiment,,,,,,,,,100,57,-7,-7,,,,,,,,,,,,,,,753.2270377,753.7636122,753.2270377,753.7636122,90.47619048,1575475006,1575475009,3.665949821,1575475004,1575475006,,,S7,1,57,m,expert radiologist,2019_Dec_04_0945,AdjustEyeTrack,3.1.5,60.48037396
55,Stimuli/Morph55.JPG,Stimuli/Morph55.png,Stimuli/BlurLevel5/BlurEditedMorph55,Stimuli/BlurLevel5/BlurEditedMorph55.png,Stimuli/BlurLevel5/NumberedMorphs/BlurEditedMorph55.png,Stimuli/BlurLevel5/OriginalBlur/BlurEditedMorph55.png,Stimuli/BlurMorphTrio/EditedMorph55.png,010151right.gif,Stimuli/normal_thumbnails/55right.gif,,,,,0,0,0,0,0,70,70,54,,,,,,,,,,,,,,,,,,,,,,,63,71,1,89,0.043631016,2.499619238,55,Experiment,,,,,,,,,105,54,1,1,,,,,,,,,,,,,,,759.7492681,760.2425012,759.7492681,760.2425012,98.63945578,1575475012,1575475017,4.450242996,1575475010,1575475012,,,S7,1,57,m,expert radiologist,2019_Dec_04_0945,AdjustEyeTrack,3.1.5,60.48037396
4,Stimuli/Morph4.JPG,Stimuli/Morph4.png,Stimuli/BlurLevel5/BlurEditedMorph4,Stimuli/BlurLevel5/BlurEditedMorph4.png,Stimuli/BlurLevel5/NumberedMorphs/BlurEditedMorph4.png,Stimuli/BlurLevel5/OriginalBlur/BlurEditedMorph4.png,Stimuli/BlurMorphTrio/EditedMorph4.png,010010right.gif,Stimuli/normal_thumbnails/4right.gif,,,,,0,0,0,0,0,71,71,3,,,,,,,,,,,,,,,,,,,,,,,70,72,1,222,-1.857862064,-1.672826516,4,Experiment,,,,,,,,,95,5,-1,-1,,,,,,,,,,,,,,,766.8323061,767.3293805,766.8323061,767.3293805,98.63945578,1575475019,1575475024,4.184002638,1575475017,1575475019,,,S7,1,57,m,expert radiologist,2019_Dec_04_0945,AdjustEyeTrack,3.1.5,60.48037396
96,Stimuli/Morph96.JPG,Stimuli/Morph96.png,Stimuli/BlurLevel5/BlurEditedMorph96,Stimuli/BlurLevel5/BlurEditedMorph96.png,Stimuli/BlurLevel5/NumberedMorphs/BlurEditedMorph96.png,Stimuli/BlurLevel5/OriginalBlur/BlurEditedMorph96.png,Stimuli/BlurMorphTrio/EditedMorph96.png,020292right.gif,Stimuli/normal_thumbnails/96right.gif,,,,,0,0,0,0,0,72,72,95,,,,,,,,,,,,,,,,,,,,,,,61,73,1,290,0.855050358,-2.349231552,96,Experiment,,,,,,,,,98,98,-2,-2,,,,,,,,,,,,,,,773.5367314,774.0612256,773.5367314,774.0612256,97.27891156,1575475026,1575475028,1.61571002,1575475024,1575475026,,,S7,1,57,m,expert radiologist,2019_Dec_04_0945,AdjustEyeTrack,3.1.5,60.48037396
11,Stimuli/Morph11.JPG,Stimuli/Morph11.png,Stimuli/BlurLevel5/BlurEditedMorph11,Stimuli/BlurLevel5/BlurEditedMorph11.png,Stimuli/BlurLevel5/NumberedMorphs/BlurEditedMorph11.png,Stimuli/BlurLevel5/OriginalBlur/BlurEditedMorph11.png,Stimuli/BlurMorphTrio/EditedMorph11.png,010024right.gif,Stimuli/normal_thumbnails/11right.gif,,,,,0,0,0,0,0,73,73,10,,,,,,,,,,,,,,,,,,,,,,,20,74,1,226,-1.736645926,-1.798349501,11,Experiment,,,,,,,,,106,6,5,5,,,,,,,,,,,,,,,777.6775439,778.178548,777.6775439,778.178548,93.19727891,1575475030,1575475033,2.850841761,1575475028,1575475030,,,S7,1,57,m,expert radiologist,2019_Dec_04_0945,AdjustEyeTrack,3.1.5,60.48037396
46,Stimuli/Morph46.JPG,Stimuli/Morph46.png,Stimuli/BlurLevel5/BlurEditedMorph46,Stimuli/BlurLevel5/BlurEditedMorph46.png,Stimuli/BlurLevel5/NumberedMorphs/BlurEditedMorph46.png,Stimuli/BlurLevel5/OriginalBlur/BlurEditedMorph46.png,Stimuli/BlurMorphTrio/EditedMorph46.png,010128right.gif,Stimuli/normal_thumbnails/46right.gif,,,,,0,0,0,0,0,74,74,45,,,,,,,,,,,,,,,,,,,,,,,21,75,1,193,-2.435925162,-0.562377636,46,Experiment,,,,,,,,,6,66,-20,-20,,,,,,,,,,,,,,,783.1798335,783.691961,783.1798335,783.691961,72.78911565,1575475036,1575475040,3.999887228,1575475034,1575475036,,,S7,1,57,m,expert radiologist,2019_Dec_04_0945,AdjustEyeTrack,3.1.5,60.48037396
114,Stimuli/Morph114.JPG,Stimuli/Morph114.png,Stimuli/BlurLevel5/BlurEditedMorph114,Stimuli/BlurLevel5/BlurEditedMorph114.png,Stimuli/BlurLevel5/NumberedMorphs/BlurEditedMorph114.png,Stimuli/BlurLevel5/OriginalBlur/BlurEditedMorph114.png,Stimuli/BlurMorphTrio/EditedMorph114.png,None,None,,,,,0,0,0,0,0,75,75,113,,,,,,,,,,,,,,,,,,,,,,,25,76,1,217,-1.996588775,-1.504537558,114,Experiment,,,,,,,,,142,87,27,27,,,,,,,,,,,,,,,789.6603873,790.1581408,789.6603873,790.1581408,63.26530612,1575475042,1575475046,3.91653204,1575475040,1575475042,,,S7,1,57,m,expert radiologist,2019_Dec_04_0945,AdjustEyeTrack,3.1.5,60.48037396
70,Stimuli/Morph70.JPG,Stimuli/Morph70.png,Stimuli/BlurLevel5/BlurEditedMorph70,Stimuli/BlurLevel5/BlurEditedMorph70.png,Stimuli/BlurLevel5/NumberedMorphs/BlurEditedMorph70.png,Stimuli/BlurLevel5/OriginalBlur/BlurEditedMorph70.png,Stimuli/BlurMorphTrio/EditedMorph70.png,020221right.gif,Stimuli/normal_thumbnails/70right.gif,,,,,0,0,0,0,0,76,76,69,,,,,,,,,,,,,,,,,,,,,,,8,77,1,270,-4.59E-16,-2.5,70,Experiment,,,,,,,,,112,61,9,9,,,,,,,,,,,,,,,796.384886,796.9082357,796.384886,796.9082357,87.75510204,1575475049,1575475052,2.650421143,1575475046,1575475049,,,S7,1,57,m,expert radiologist,2019_Dec_04_0945,AdjustEyeTrack,3.1.5,60.48037396
93,Stimuli/Morph93.JPG,Stimuli/Morph93.png,Stimuli/BlurLevel5/BlurEditedMorph93,Stimuli/BlurLevel5/BlurEditedMorph93.png,Stimuli/BlurLevel5/NumberedMorphs/BlurEditedMorph93.png,Stimuli/BlurLevel5/OriginalBlur/BlurEditedMorph93.png,Stimuli/BlurMorphTrio/EditedMorph93.png,020280right.gif,Stimuli/normal_thumbnails/93right.gif,,,,,0,0,0,0,0,77,77,92,,,,,,,,,,,,,,,,,,,,,,,76,78,1,148,-2.12012024,1.324798161,93,Experiment,,,,,,,,,83,84,9,9,,,,,,,,,,,,,,,801.4169285,801.9278164,801.4169285,801.9278164,87.75510204,1575475054,1575475062,8.033396959,1575475052,1575475054,,,S7,1,57,m,expert radiologist,2019_Dec_04_0945,AdjustEyeTrack,3.1.5,60.48037396
48,Stimuli/Morph48.JPG,Stimuli/Morph48.png,Stimuli/BlurLevel5/BlurEditedMorph48,Stimuli/BlurLevel5/BlurEditedMorph48.png,Stimuli/BlurLevel5/NumberedMorphs/BlurEditedMorph48.png,Stimuli/BlurLevel5/OriginalBlur/BlurEditedMorph48.png,Stimuli/BlurMorphTrio/EditedMorph48.png,010131right.gif,Stimuli/normal_thumbnails/48right.gif,,,,,0,0,0,0,0,78,78,47,,,,,,,,,,,,,,,,,,,,,,,29,79,1,170,-2.462019383,0.434120444,48,Experiment,,,,,,,,,97,53,-5,-5,,,,,,,,,,,,,,,812.7940038,813.2919321,812.7940038,813.2919321,93.19727891,1575475065,1575475069,4.051631212,1575475062,1575475065,,,S7,1,57,m,expert radiologist,2019_Dec_04_0945,AdjustEyeTrack,3.1.5,60.48037396
98,Stimuli/Morph98.JPG,Stimuli/Morph98.png,Stimuli/BlurLevel5/BlurEditedMorph98,Stimuli/BlurLevel5/BlurEditedMorph98.png,Stimuli/BlurLevel5/NumberedMorphs/BlurEditedMorph98.png,Stimuli/BlurLevel5/OriginalBlur/BlurEditedMorph98.png,Stimuli/BlurMorphTrio/EditedMorph98.png,020298right.gif,Stimuli/normal_thumbnails/98right.gif,,,,,0,0,0,0,0,79,79,97,,,,,,,,,,,,,,,,,,,,,,,6,80,1,249,-0.895919874,-2.333951066,98,Experiment,,,,,,,,,132,78,20,20,,,,,,,,,,,,,,,820.0443875,820.5454955,820.0443875,820.5454955,72.78911565,1575475073,1575475076,3.599694014,1575475070,1575475073,,,S7,1,57,m,expert radiologist,2019_Dec_04_0945,AdjustEyeTrack,3.1.5,60.48037396
30,Stimuli/Morph30.JPG,Stimuli/Morph30.png,Stimuli/BlurLevel5/BlurEditedMorph30,Stimuli/BlurLevel5/BlurEditedMorph30.png,Stimuli/BlurLevel5/NumberedMorphs/BlurEditedMorph30.png,Stimuli/BlurLevel5/OriginalBlur/BlurEditedMorph30.png,Stimuli/BlurMorphTrio/EditedMorph30.png,010076right.gif,Stimuli/normal_thumbnails/30right.gif,,,,,0,0,0,0,0,80,80,29,,,,,,,,,,,,,,,,,,,,,,,91,81,1,91,-0.043631016,2.499619238,30,Experiment,,,,,,,,,66,15,15,15,,,,,,,,,,,,,,,826.7493662,827.2437039,826.7493662,827.2437039,79.59183673,1575475079,1575475082,2.852715015,1575475076,1575475079,,,S7,1,57,m,expert radiologist,2019_Dec_04_0945,AdjustEyeTrack,3.1.5,60.48037396
144,Stimuli/Morph144.JPG,Stimuli/Morph144.png,Stimuli/BlurLevel5/BlurEditedMorph144,Stimuli/BlurLevel5/BlurEditedMorph144.png,Stimuli/BlurLevel5/NumberedMorphs/BlurEditedMorph144.png,Stimuli/BlurLevel5/OriginalBlur/BlurEditedMorph144.png,Stimuli/BlurMorphTrio/EditedMorph144.png,None,None,,,,,0,0,0,0,0,81,81,143,,,,,,,,,,,,,,,,,,,,,,,17,82,1,343,2.39076189,-0.730929262,144,Experiment,,,,,,,,,3,3,141,-6,,,,,,,,,,,,,,,833.0498596,833.5927181,833.0498596,833.5927181,91.83673469,1575475086,1575475087,0.917595148,1575475083,1575475086,,,S7,1,57,m,expert radiologist,2019_Dec_04_0945,AdjustEyeTrack,3.1.5,60.48037396
130,Stimuli/Morph130.JPG,Stimuli/Morph130.png,Stimuli/BlurLevel5/BlurEditedMorph130,Stimuli/BlurLevel5/BlurEditedMorph130.png,Stimuli/BlurLevel5/NumberedMorphs/BlurEditedMorph130.png,Stimuli/BlurLevel5/OriginalBlur/BlurEditedMorph130.png,Stimuli/BlurMorphTrio/EditedMorph130.png,None,None,,,,,0,0,0,0,0,82,82,129,,,,,,,,,,,,,,,,,,,,,,,62,83,1,8,2.475670172,0.347932752,130,Experiment,,,,,,,,,138,128,2,2,,,,,,,,,,,,,,,837.0184132,837.5260039,837.0184132,837.5260039,97.27891156,1575475090,1575475091,1.133760214,1575475087,1575475090,,,S7,1,57,m,expert radiologist,2019_Dec_04_0945,AdjustEyeTrack,3.1.5,60.48037396
90,Stimuli/Morph90.JPG,Stimuli/Morph90.png,Stimuli/BlurLevel5/BlurEditedMorph90,Stimuli/BlurLevel5/BlurEditedMorph90.png,Stimuli/BlurLevel5/NumberedMorphs/BlurEditedMorph90.png,Stimuli/BlurLevel5/OriginalBlur/BlurEditedMorph90.png,Stimuli/BlurMorphTrio/EditedMorph90.png,020275right.gif,Stimuli/normal_thumbnails/90right.gif,,,,,0,0,0,0,0,83,83,89,,,,,,,,,,,,,,,,,,,,,,,95,84,1,0,2.5,0,90,Experiment,,,,,,,,,22,109,-19,-19,,,,,,,,,,,,,,,841.2977885,841.8249679,841.2977885,841.8249679,74.14965986,1575475094,1575475097,3.052634954,1575475091,1575475094,,,S7,1,57,m,expert radiologist,2019_Dec_04_0945,AdjustEyeTrack,3.1.5,60.48037396
59,Stimuli/Morph59.JPG,Stimuli/Morph59.png,Stimuli/BlurLevel5/BlurEditedMorph59,Stimuli/BlurLevel5/BlurEditedMorph59.png,Stimuli/BlurLevel5/NumberedMorphs/BlurEditedMorph59.png,Stimuli/BlurLevel5/OriginalBlur/BlurEditedMorph59.png,Stimuli/BlurMorphTrio/EditedMorph59.png,010160right.gif,Stimuli/normal_thumbnails/59right.gif,,,,,0,0,0,0,0,84,84,58,,,,,,,,,,,,,,,,,,,,,,,9,85,1,119,-1.212024051,2.186549268,59,Experiment,,,,,,,,,11,63,-4,-4,,,,,,,,,,,,,,,846.7671343,847.2790472,846.7671343,847.2790472,94.55782313,1575475099,1575475103,4.08572793,1575475097,1575475099,,,S7,1,57,m,expert radiologist,2019_Dec_04_0945,AdjustEyeTrack,3.1.5,60.48037396
17,Stimuli/Morph17.JPG,Stimuli/Morph17.png,Stimuli/BlurLevel5/BlurEditedMorph17,Stimuli/BlurLevel5/BlurEditedMorph17.png,Stimuli/BlurLevel5/NumberedMorphs/BlurEditedMorph17.png,Stimuli/BlurLevel5/OriginalBlur/BlurEditedMorph17.png,Stimuli/BlurMorphTrio/EditedMorph17.png,010036right.gif,Stimuli/normal_thumbnails/17right.gif,,,,,1,0,1,0,0,0,0,16,,,,,,,,,,,,,,,,,,,,,,,17,1,2,111,-0.895919874,2.333951066,17,Experiment,,,,,,,,,142,8,9,9,,,,,,,,,,,,,,,859.0014213,859.5117635,859.0014213,859.5117635,87.75510204,1575475112,1575475115,3.318217278,1575475109,1575475112,space,5.182265082,S7,1,57,m,expert radiologist,2019_Dec_04_0945,AdjustEyeTrack,3.1.5,60.48037396
119,Stimuli/Morph119.JPG,Stimuli/Morph119.png,Stimuli/BlurLevel5/BlurEditedMorph119,Stimuli/BlurLevel5/BlurEditedMorph119.png,Stimuli/BlurLevel5/NumberedMorphs/BlurEditedMorph119.png,Stimuli/BlurLevel5/OriginalBlur/BlurEditedMorph119.png,Stimuli/BlurMorphTrio/EditedMorph119.png,None,None,,,,,1,0,1,0,0,1,1,118,,,,,,,,,,,,,,,,,,,,,,,77,2,2,10,2.462019383,0.434120444,119,Experiment,,,,,,,,,130,120,-1,-1,,,,,,,,,,,,,,,864.7859845,865.2918241,864.7859845,865.2918241,98.63945578,1575475117,1575475119,1.633618116,1575475115,1575475117,,,S7,1,57,m,expert radiologist,2019_Dec_04_0945,AdjustEyeTrack,3.1.5,60.48037396
74,Stimuli/Morph74.JPG,Stimuli/Morph74.png,Stimuli/BlurLevel5/BlurEditedMorph74,Stimuli/BlurLevel5/BlurEditedMorph74.png,Stimuli/BlurLevel5/NumberedMorphs/BlurEditedMorph74.png,Stimuli/BlurLevel5/OriginalBlur/BlurEditedMorph74.png,Stimuli/BlurMorphTrio/EditedMorph74.png,020232right.gif,Stimuli/normal_thumbnails/74right.gif,,,,,1,0,1,0,0,2,2,73,,,,,,,,,,,,,,,,,,,,,,,9,3,2,289,0.813920386,-2.363796439,74,Experiment,,,,,,,,,80,74,0,0,,,,,,,,,,,,,,,868.6431537,869.144203,868.6431537,869.144203,100,1575475121,1575475122,0.819408894,1575475119,1575475121,,,S7,1,57,m,expert radiologist,2019_Dec_04_0945,AdjustEyeTrack,3.1.5,60.48037396
53,Stimuli/Morph53.JPG,Stimuli/Morph53.png,Stimuli/BlurLevel5/BlurEditedMorph53,Stimuli/BlurLevel5/BlurEditedMorph53.png,Stimuli/BlurLevel5/NumberedMorphs/BlurEditedMorph53.png,Stimuli/BlurLevel5/OriginalBlur/BlurEditedMorph53.png,Stimuli/BlurMorphTrio/EditedMorph53.png,010149right.gif,Stimuli/normal_thumbnails/53right.gif,,,,,1,0,1,0,0,3,3,52,,,,,,,,,,,,,,,,,,,,,,,83,4,2,153,-2.22751631,1.134976249,53,Experiment,,,,,,,,,76,71,-18,-18,,,,,,,,,,,,,,,872.1433329,872.6446577,872.1433329,872.6446577,75.51020408,1575475125,1575475126,0.932570219,1575475122,1575475125,,,S7,1,57,m,expert radiologist,2019_Dec_04_0945,AdjustEyeTrack,3.1.5,60.48037396
90,Stimuli/Morph90.JPG,Stimuli/Morph90.png,Stimuli/BlurLevel5/BlurEditedMorph90,Stimuli/BlurLevel5/BlurEditedMorph90.png,Stimuli/BlurLevel5/NumberedMorphs/BlurEditedMorph90.png,Stimuli/BlurLevel5/OriginalBlur/BlurEditedMorph90.png,Stimuli/BlurMorphTrio/EditedMorph90.png,020275right.gif,Stimuli/normal_thumbnails/90right.gif,,,,,1,0,1,0,0,4,4,89,,,,,,,,,,,,,,,,,,,,,,,60,5,2,126,-1.469463131,2.022542486,90,Experiment,,,,,,,,,67,55,35,35,,,,,,,,,,,,,,,876.3596809,876.8588947,876.3596809,876.8588947,52.38095238,1575475129,1575475130,1.150508165,1575475126,1575475129,,,S7,1,57,m,expert radiologist,2019_Dec_04_0945,AdjustEyeTrack,3.1.5,60.48037396
21,Stimuli/Morph21.JPG,Stimuli/Morph21.png,Stimuli/BlurLevel5/BlurEditedMorph21,Stimuli/BlurLevel5/BlurEditedMorph21.png,Stimuli/BlurLevel5/NumberedMorphs/BlurEditedMorph21.png,Stimuli/BlurLevel5/OriginalBlur/BlurEditedMorph21.png,Stimuli/BlurMorphTrio/EditedMorph21.png,010049right.gif,Stimuli/normal_thumbnails/21right.gif,,,,,1,0,1,0,0,5,5,20,,,,,,,,,,,,,,,,,,,,,,,82,6,2,135,-1.767766953,1.767766953,21,Experiment,,,,,,,,,125,13,8,8,,,,,,,,,,,,,,,880.3286745,880.8245055,880.3286745,880.8245055,89.11564626,1575475133,1575475135,2.041981936,1575475130,1575475133,,,S7,1,57,m,expert radiologist,2019_Dec_04_0945,AdjustEyeTrack,3.1.5,60.48037396
36,Stimuli/Morph36.JPG,Stimuli/Morph36.png,Stimuli/BlurLevel5/BlurEditedMorph36,Stimuli/BlurLevel5/BlurEditedMorph36.png,Stimuli/BlurLevel5/NumberedMorphs/BlurEditedMorph36.png,Stimuli/BlurLevel5/OriginalBlur/BlurEditedMorph36.png,Stimuli/BlurMorphTrio/EditedMorph36.png,010095right.gif,Stimuli/normal_thumbnails/36right.gif,,,,,1,0,1,0,0,6,6,35,,,,,,,,,,,,,,,,,,,,,,,8,7,2,293,0.976827821,-2.301262134,36,Experiment,,,,,,,,,94,28,8,8,,,,,,,,,,,,,,,885.5608544,886.0614871,885.5608544,886.0614871,89.11564626,1575475138,1575475141,2.833433867,1575475135,1575475138,,,S7,1,57,m,expert radiologist,2019_Dec_04_0945,AdjustEyeTrack,3.1.5,60.48037396
11,Stimuli/Morph11.JPG,Stimuli/Morph11.png,Stimuli/BlurLevel5/BlurEditedMorph11,Stimuli/BlurLevel5/BlurEditedMorph11.png,Stimuli/BlurLevel5/NumberedMorphs/BlurEditedMorph11.png,Stimuli/BlurLevel5/OriginalBlur/BlurEditedMorph11.png,Stimuli/BlurMorphTrio/EditedMorph11.png,010024right.gif,Stimuli/normal_thumbnails/11right.gif,,,,,1,0,1,0,0,7,7,10,,,,,,,,,,,,,,,,,,,,,,,94,8,2,234,-1.469463131,-2.022542486,11,Experiment,,,,,,,,,30,14,-3,-3,,,,,,,,,,,,,,,891.938401,892.457247,891.938401,892.457247,95.91836735,1575475144,1575475147,2.981434107,1575475141,1575475144,,,S7,1,57,m,expert radiologist,2019_Dec_04_0945,AdjustEyeTrack,3.1.5,60.48037396
120,Stimuli/Morph120.JPG,Stimuli/Morph120.png,Stimuli/BlurLevel5/BlurEditedMorph120,Stimuli/BlurLevel5/BlurEditedMorph120.png,Stimuli/BlurLevel5/NumberedMorphs/BlurEditedMorph120.png,Stimuli/BlurLevel5/OriginalBlur/BlurEditedMorph120.png,Stimuli/BlurMorphTrio/EditedMorph120.png,None,None,,,,,1,0,1,0,0,8,8,119,,,,,,,,,,,,,,,,,,,,,,,42,9,2,291,0.895919874,-2.333951066,120,Experiment,,,,,,,,,125,78,42,42,,,,,,,,,,,,,,,898.2273764,898.7408173,898.2273764,898.7408173,42.85714286,1575475151,1575475161,9.64760828,1575475148,1575475151,,,S7,1,57,m,expert radiologist,2019_Dec_04_0945,AdjustEyeTrack,3.1.5,60.48037396
55,Stimuli/Morph55.JPG,Stimuli/Morph55.png,Stimuli/BlurLevel5/BlurEditedMorph55,Stimuli/BlurLevel5/BlurEditedMorph55.png,Stimuli/BlurLevel5/NumberedMorphs/BlurEditedMorph55.png,Stimuli/BlurLevel5/OriginalBlur/BlurEditedMorph55.png,Stimuli/BlurMorphTrio/EditedMorph55.png,010151right.gif,Stimuli/normal_thumbnails/55right.gif,,,,,1,0,1,0,0,9,9,54,,,,,,,,,,,,,,,,,,,,,,,93,10,2,295,1.056545654,-2.265769468,55,Experiment,,,,,,,,,139,58,-3,-3,,,,,,,,,,,,,,,911.1634652,911.7074754,911.1634652,911.7074754,95.91836735,1575475164,1575475166,2.516098738,1575475161,1575475164,,,S7,1,57,m,expert radiologist,2019_Dec_04_0945,AdjustEyeTrack,3.1.5,60.48037396
64,Stimuli/Morph64.JPG,Stimuli/Morph64.png,Stimuli/BlurLevel5/BlurEditedMorph64,Stimuli/BlurLevel5/BlurEditedMorph64.png,Stimuli/BlurLevel5/NumberedMorphs/BlurEditedMorph64.png,Stimuli/BlurLevel5/OriginalBlur/BlurEditedMorph64.png,Stimuli/BlurMorphTrio/EditedMorph64.png,020208right.gif,Stimuli/normal_thumbnails/64right.gif,,,,,1,0,1,0,0,10,10,63,,,,,,,,,,,,,,,,,,,,,,,59,11,2,318,1.857862064,-1.672826516,64,Experiment,,,,,,,,,13,61,3,3,,,,,,,,,,,,,,,916.1256896,916.6237238,916.1256896,916.6237238,95.91836735,1575475169,1575475174,4.997066975,1575475167,1575475169,,,S7,1,57,m,expert radiologist,2019_Dec_04_0945,AdjustEyeTrack,3.1.5,60.48037396
60,Stimuli/Morph60.JPG,Stimuli/Morph60.png,Stimuli/BlurLevel5/BlurEditedMorph60,Stimuli/BlurLevel5/BlurEditedMorph60.png,Stimuli/BlurLevel5/NumberedMorphs/BlurEditedMorph60.png,Stimuli/BlurLevel5/OriginalBlur/BlurEditedMorph60.png,Stimuli/BlurMorphTrio/EditedMorph60.png,020200right.gif,Stimuli/normal_thumbnails/60right.gif,,,,,1,0,1,0,0,11,11,59,,,,,,,,,,,,,,,,,,,,,,,22,12,2,220,-1.915111108,-1.606969024,60,Experiment,,,,,,,,,85,52,8,8,,,,,,,,,,,,,,,924.0747014,924.5743864,924.0747014,924.5743864,89.11564626,1575475177,1575475179,1.916467905,1575475174,1575475177,,,S7,1,57,m,expert radiologist,2019_Dec_04_0945,AdjustEyeTrack,3.1.5,60.48037396
24,Stimuli/Morph24.JPG,Stimuli/Morph24.png,Stimuli/BlurLevel5/BlurEditedMorph24,Stimuli/BlurLevel5/BlurEditedMorph24.png,Stimuli/BlurLevel5/NumberedMorphs/BlurEditedMorph24.png,Stimuli/BlurLevel5/OriginalBlur/BlurEditedMorph24.png,Stimuli/BlurMorphTrio/EditedMorph24.png,010068right.gif,Stimuli/normal_thumbnails/24right.gif,,,,,1,0,1,0,0,12,12,23,,,,,,,,,,,,,,,,,,,,,,,68,13,2,155,-2.265769468,1.056545654,24,Experiment,,,,,,,,,54,10,14,14,,,,,,,,,,,,,,,928.8982272,929.3898465,928.8982272,929.3898465,80.95238095,1575475182,1575475185,3.382559061,1575475179,1575475182,,,S7,1,57,m,expert radiologist,2019_Dec_04_0945,AdjustEyeTrack,3.1.5,60.48037396
9,Stimuli/Morph9.JPG,Stimuli/Morph9.png,Stimuli/BlurLevel5/BlurEditedMorph9,Stimuli/BlurLevel5/BlurEditedMorph9.png,Stimuli/BlurLevel5/NumberedMorphs/BlurEditedMorph9.png,Stimuli/BlurLevel5/OriginalBlur/BlurEditedMorph9.png,Stimuli/BlurMorphTrio/EditedMorph9.png,010015right.gif,Stimuli/normal_thumbnails/9right.gif,,,,,1,0,1,0,0,13,13,8,,,,,,,,,,,,,,,,,,,,,,,52,14,2,260,-0.434120444,-2.462019383,9,Experiment,,,,,,,,,142,6,3,3,,,,,,,,,,,,,,,935.1917905,935.6971844,935.1917905,935.6971844,95.91836735,1575475188,1575475190,1.700455904,1575475185,1575475188,,,S7,1,57,m,expert radiologist,2019_Dec_04_0945,AdjustEyeTrack,3.1.5,60.48037396
41,Stimuli/Morph41.JPG,Stimuli/Morph41.png,Stimuli/BlurLevel5/BlurEditedMorph41,Stimuli/BlurLevel5/BlurEditedMorph41.png,Stimuli/BlurLevel5/NumberedMorphs/BlurEditedMorph41.png,Stimuli/BlurLevel5/OriginalBlur/BlurEditedMorph41.png,Stimuli/BlurMorphTrio/EditedMorph41.png,010112right.gif,Stimuli/normal_thumbnails/41right.gif,,,,,1,0,1,0,0,14,14,40,,,,,,,,,,,,,,,,,,,,,,,79,15,2,358,2.498477068,-0.087248742,41,Experiment,,,,,,,,,48,45,-4,-4,,,,,,,,,,,,,,,939.8639561,940.3896299,939.8639561,940.3896299,94.55782313,1575475193,1575475195,2.153369188,1575475190,1575475192,,,S7,1,57,m,expert radiologist,2019_Dec_04_0945,AdjustEyeTrack,3.1.5,60.48037396
5,Stimuli/Morph5.JPG,Stimuli/Morph5.png,Stimuli/BlurLevel5/BlurEditedMorph5,Stimuli/BlurLevel5/BlurEditedMorph5.png,Stimuli/BlurLevel5/NumberedMorphs/BlurEditedMorph5.png,Stimuli/BlurLevel5/OriginalBlur/BlurEditedMorph5.png,Stimuli/BlurMorphTrio/EditedMorph5.png,010011right.gif,Stimuli/normal_thumbnails/5right.gif,,,,,1,0,1,0,0,15,15,4,,,,,,,,,,,,,,,,,,,,,,,42,16,2,336,2.283863644,-1.016841608,5,Experiment,,,,,,,,,132,10,-5,-5,,,,,,,,,,,,,,,945.2091261,945.7236666,945.2091261,945.7236666,93.19727891,1575475198,1575475200,2.199869871,1575475195,1575475198,,,S7,1,57,m,expert radiologist,2019_Dec_04_0945,AdjustEyeTrack,3.1.5,60.48037396
100,Stimuli/Morph100.JPG,Stimuli/Morph100.png,Stimuli/BlurLevel5/BlurEditedMorph100,Stimuli/BlurLevel5/BlurEditedMorph100.png,Stimuli/BlurLevel5/NumberedMorphs/BlurEditedMorph100.png,Stimuli/BlurLevel5/OriginalBlur/BlurEditedMorph100.png,Stimuli/BlurMorphTrio/EditedMorph100.png,020297right.gif,Stimuli/normal_thumbnails/100right.gif,,,,,1,0,1,0,0,16,16,99,,,,,,,,,,,,,,,,,,,,,,,49,17,2,196,-2.40315424,-0.68909339,100,Experiment,,,,,,,,,53,94,6,6,,,,,,,,,,,,,,,950.4110595,950.9078381,950.4110595,950.9078381,91.83673469,1575475203,1575475206,3.18478179,1575475200,1575475203,,,S7,1,57,m,expert radiologist,2019_Dec_04_0945,AdjustEyeTrack,3.1.5,60.48037396
84,Stimuli/Morph84.JPG,Stimuli/Morph84.png,Stimuli/BlurLevel5/BlurEditedMorph84,Stimuli/BlurLevel5/BlurEditedMorph84.png,Stimuli/BlurLevel5/NumberedMorphs/BlurEditedMorph84.png,Stimuli/BlurLevel5/OriginalBlur/BlurEditedMorph84.png,Stimuli/BlurMorphTrio/EditedMorph84.png,020261right.gif,Stimuli/normal_thumbnails/84right.gif,,,,,1,0,1,0,0,17,17,83,,,,,,,,,,,,,,,,,,,,,,,49,18,2,346,2.425739316,-0.604804739,84,Experiment,,,,,,,,,51,86,-2,-2,,,,,,,,,,,,,,,956.2229071,956.7399582,956.2229071,956.7399582,97.27891156,1575475209,1575475212,3.332007885,1575475207,1575475209,,,S7,1,57,m,expert radiologist,2019_Dec_04_0945,AdjustEyeTrack,3.1.5,60.48037396
49,Stimuli/Morph49.JPG,Stimuli/Morph49.png,Stimuli/BlurLevel5/BlurEditedMorph49,Stimuli/BlurLevel5/BlurEditedMorph49.png,Stimuli/BlurLevel5/NumberedMorphs/BlurEditedMorph49.png,Stimuli/BlurLevel5/OriginalBlur/BlurEditedMorph49.png,Stimuli/BlurMorphTrio/EditedMorph49.png,010135right.gif,Stimuli/normal_thumbnails/49right.gif,,,,,1,0,1,0,0,18,18,48,,,,,,,,,,,,,,,,,,,,,,,88,19,2,174,-2.486304738,0.261321158,49,Experiment,,,,,,,,,73,63,-14,-14,,,,,,,,,,,,,,,962.7175277,963.2232361,962.7175277,963.2232361,80.95238095,1575475215,1575475217,1.236241341,1575475213,1575475215,,,S7,1,57,m,expert radiologist,2019_Dec_04_0945,AdjustEyeTrack,3.1.5,60.48037396
133,Stimuli/Morph133.JPG,Stimuli/Morph133.png,Stimuli/BlurLevel5/BlurEditedMorph133,Stimuli/BlurLevel5/BlurEditedMorph133.png,Stimuli/BlurLevel5/NumberedMorphs/BlurEditedMorph133.png,Stimuli/BlurLevel5/OriginalBlur/BlurEditedMorph133.png,Stimuli/BlurMorphTrio/EditedMorph133.png,None,None,,,,,1,0,1,0,0,19,19,132,,,,,,,,,,,,,,,,,,,,,,,59,20,2,108,-0.772542486,2.377641291,133,Experiment,,,,,,,,,44,72,61,61,,,,,,,,,,,,,,,966.5244529,967.0235013,966.5244529,967.0235013,17.00680272,1575475219,1575475222,3.234145164,1575475217,1575475219,,,S7,1,57,m,expert radiologist,2019_Dec_04_0945,AdjustEyeTrack,3.1.5,60.48037396
132,Stimuli/Morph132.JPG,Stimuli/Morph132.png,Stimuli/BlurLevel5/BlurEditedMorph132,Stimuli/BlurLevel5/BlurEditedMorph132.png,Stimuli/BlurLevel5/NumberedMorphs/BlurEditedMorph132.png,Stimuli/BlurLevel5/OriginalBlur/BlurEditedMorph132.png,Stimuli/BlurMorphTrio/EditedMorph132.png,None,None,,,,,1,0,1,0,0,20,20,131,,,,,,,,,,,,,,,,,,,,,,,27,21,2,78,0.519779227,2.445369002,132,Experiment,,,,,,,,,59,76,56,56,,,,,,,,,,,,,,,972.2917739,972.7906146,972.2917739,972.7906146,23.80952381,1575475225,1575475230,5.300471783,1575475223,1575475225,,,S7,1,57,m,expert radiologist,2019_Dec_04_0945,AdjustEyeTrack,3.1.5,60.48037396
37,Stimuli/Morph37.JPG,Stimuli/Morph37.png,Stimuli/BlurLevel5/BlurEditedMorph37,Stimuli/BlurLevel5/BlurEditedMorph37.png,Stimuli/BlurLevel5/NumberedMorphs/BlurEditedMorph37.png,Stimuli/BlurLevel5/OriginalBlur/BlurEditedMorph37.png,Stimuli/BlurMorphTrio/EditedMorph37.png,010097right.gif,Stimuli/normal_thumbnails/37right.gif,,,,,1,0,1,0,0,21,21,36,,,,,,,,,,,,,,,,,,,,,,,98,22,2,260,-0.434120444,-2.462019383,37,Experiment,,,,,,,,,104,32,5,5,,,,,,,,,,,,,,,980.3594777,980.8732012,980.3594777,980.8732012,93.19727891,1575475233,1575475239,5.766810179,1575475230,1575475233,,,S7,1,57,m,expert radiologist,2019_Dec_04_0945,AdjustEyeTrack,3.1.5,60.48037396
45,Stimuli/Morph45.JPG,Stimuli/Morph45.png,Stimuli/BlurLevel5/BlurEditedMorph45,Stimuli/BlurLevel5/BlurEditedMorph45.png,Stimuli/BlurLevel5/NumberedMorphs/BlurEditedMorph45.png,Stimuli/BlurLevel5/OriginalBlur/BlurEditedMorph45.png,Stimuli/BlurMorphTrio/EditedMorph45.png,010127right.gif,Stimuli/normal_thumbnails/45right.gif,,,,,1,0,1,0,0,22,22,44,,,,,,,,,,,,,,,,,,,,,,,93,23,2,245,-1.056545654,-2.265769468,45,Experiment,,,,,,,,,81,56,-11,-11,,,,,,,,,,,,,,,990.125882,990.6440485,990.125882,990.6440485,85.03401361,1575475243,1575475245,2.453021765,1575475239,1575475243,,,S7,1,57,m,expert radiologist,2019_Dec_04_0945,AdjustEyeTrack,3.1.5,60.48037396
27,Stimuli/Morph27.JPG,Stimuli/Morph27.png,Stimuli/BlurLevel5/BlurEditedMorph27,Stimuli/BlurLevel5/BlurEditedMorph27.png,Stimuli/BlurLevel5/NumberedMorphs/BlurEditedMorph27.png,Stimuli/BlurLevel5/OriginalBlur/BlurEditedMorph27.png,Stimuli/BlurMorphTrio/EditedMorph27.png,010072right.gif,Stimuli/normal_thumbnails/27right.gif,,,,,1,0,1,0,0,23,23,26,,,,,,,,,,,,,,,,,,,,,,,83,24,2,2,2.498477068,0.087248742,27,Experiment,,,,,,,,,24,29,-2,-2,,,,,,,,,,,,,,,995.5047323,996.0231544,995.5047323,996.0231544,97.27891156,1575475248,1575475249,1.099153042,1575475245,1575475248,,,S7,1,57,m,expert radiologist,2019_Dec_04_0945,AdjustEyeTrack,3.1.5,60.48037396
115,Stimuli/Morph115.JPG,Stimuli/Morph115.png,Stimuli/BlurLevel5/BlurEditedMorph115,Stimuli/BlurLevel5/BlurEditedMorph115.png,Stimuli/BlurLevel5/NumberedMorphs/BlurEditedMorph115.png,Stimuli/BlurLevel5/OriginalBlur/BlurEditedMorph115.png,Stimuli/BlurMorphTrio/EditedMorph115.png,None,None,,,,,1,0,1,0,0,24,24,114,,,,,,,,,,,,,,,,,,,,,,,54,25,2,320,1.915111108,-1.606969024,115,Experiment,,,,,,,,,66,80,35,35,,,,,,,,,,,,,,,999.5263119,1000.028947,999.5263119,1000.028947,52.38095238,1575475252,1575475256,3.666535139,1575475249,1575475252,,,S7,1,57,m,expert radiologist,2019_Dec_04_0945,AdjustEyeTrack,3.1.5,60.48037396
105,Stimuli/Morph105.JPG,Stimuli/Morph105.png,Stimuli/BlurLevel5/BlurEditedMorph105,Stimuli/BlurLevel5/BlurEditedMorph105.png,Stimuli/BlurLevel5/NumberedMorphs/BlurEditedMorph105.png,Stimuli/BlurLevel5/OriginalBlur/BlurEditedMorph105.png,Stimuli/BlurMorphTrio/EditedMorph105.png,None,None,,,,,1,0,1,0,0,25,25,104,,,,,,,,,,,,,,,,,,,,,,,53,26,2,147,-2.09667642,1.361597588,105,Experiment,,,,,,,,,108,108,-3,-3,,,,,,,,,,,,,,,1006.365941,1006.873086,1006.365941,1006.873086,95.91836735,1575475259,1575475261,2.032531023,1575475256,1575475259,,,S7,1,57,m,expert radiologist,2019_Dec_04_0945,AdjustEyeTrack,3.1.5,60.48037396
138,Stimuli/Morph138.JPG,Stimuli/Morph138.png,Stimuli/BlurLevel5/BlurEditedMorph138,Stimuli/BlurLevel5/BlurEditedMorph138.png,Stimuli/BlurLevel5/NumberedMorphs/BlurEditedMorph138.png,Stimuli/BlurLevel5/OriginalBlur/BlurEditedMorph138.png,Stimuli/BlurMorphTrio/EditedMorph138.png,None,None,,,,,1,0,1,0,0,26,26,137,,,,,,,,,,,,,,,,,,,,,,,38,27,2,208,-2.207368982,-1.173678907,138,Experiment,,,,,,,,,131,132,6,6,,,,,,,,,,,,,,,1011.257031,1011.772246,1011.257031,1011.772246,91.83673469,1575475264,1575475266,1.800570965,1575475261,1575475264,,,S7,1,57,m,expert radiologist,2019_Dec_04_0945,AdjustEyeTrack,3.1.5,60.48037396
135,Stimuli/Morph135.JPG,Stimuli/Morph135.png,Stimuli/BlurLevel5/BlurEditedMorph135,Stimuli/BlurLevel5/BlurEditedMorph135.png,Stimuli/BlurLevel5/NumberedMorphs/BlurEditedMorph135.png,Stimuli/BlurLevel5/OriginalBlur/BlurEditedMorph135.png,Stimuli/BlurMorphTrio/EditedMorph135.png,None,None,,,,,1,0,1,0,0,27,27,134,,,,,,,,,,,,,,,,,,,,,,,47,28,2,172,-2.475670172,0.347932752,135,Experiment,,,,,,,,,38,5,130,-17,,,,,,,,,,,,,,,1016.648177,1017.222681,1016.648177,1017.222681,76.8707483,1575475269,1575475272,2.864001036,1575475266,1575475269,,,S7,1,57,m,expert radiologist,2019_Dec_04_0945,AdjustEyeTrack,3.1.5,60.48037396
114,Stimuli/Morph114.JPG,Stimuli/Morph114.png,Stimuli/BlurLevel5/BlurEditedMorph114,Stimuli/BlurLevel5/BlurEditedMorph114.png,Stimuli/BlurLevel5/NumberedMorphs/BlurEditedMorph114.png,Stimuli/BlurLevel5/OriginalBlur/BlurEditedMorph114.png,Stimuli/BlurMorphTrio/EditedMorph114.png,None,None,,,,,1,0,1,0,0,28,28,113,,,,,,,,,,,,,,,,,,,,,,,81,29,2,281,0.477022488,-2.454067959,114,Experiment,,,,,,,,,129,76,38,38,,,,,,,,,,,,,,,1022.061551,1022.590892,1022.061551,1022.590892,48.29931973,1575475275,1575475278,3.283564091,1575475272,1575475275,,,S7,1,57,m,expert radiologist,2019_Dec_04_0945,AdjustEyeTrack,3.1.5,60.48037396
47,Stimuli/Morph47.JPG,Stimuli/Morph47.png,Stimuli/BlurLevel5/BlurEditedMorph47,Stimuli/BlurLevel5/BlurEditedMorph47.png,Stimuli/BlurLevel5/NumberedMorphs/BlurEditedMorph47.png,Stimuli/BlurLevel5/OriginalBlur/BlurEditedMorph47.png,Stimuli/BlurMorphTrio/EditedMorph47.png,010130right.gif,Stimuli/normal_thumbnails/47right.gif,,,,,1,0,1,0,0,29,29,46,,,,,,,,,,,,,,,,,,,,,,,48,30,2,318,1.857862064,-1.672826516,47,Experiment,,,,,,,,,54,52,-5,-5,,,,,,,,,,,,,,,1028.107937,1028.605783,1028.107937,1028.605783,93.19727891,1575475281,1575475282,1.083696127,1575475278,1575475281,,,S7,1,57,m,expert radiologist,2019_Dec_04_0945,AdjustEyeTrack,3.1.5,60.48037396
19,Stimuli/Morph19.JPG,Stimuli/Morph19.png,Stimuli/BlurLevel5/BlurEditedMorph19,Stimuli/BlurLevel5/BlurEditedMorph19.png,Stimuli/BlurLevel5/NumberedMorphs/BlurEditedMorph19.png,Stimuli/BlurLevel5/OriginalBlur/BlurEditedMorph19.png,Stimuli/BlurMorphTrio/EditedMorph19.png,010045right.gif,Stimuli/normal_thumbnails/19right.gif,,,,,1,0,1,0,0,30,30,18,,,,,,,,,,,,,,,,,,,,,,,16,31,2,188,-2.475670172,-0.347932752,19,Experiment,,,,,,,,,57,19,0,0,,,,,,,,,,,,,,,1031.752605,1032.273833,1031.752605,1032.273833,100,1575475284,1575475288,3.315879345,1575475282,1575475284,,,S7,1,57,m,expert radiologist,2019_Dec_04_0945,AdjustEyeTrack,3.1.5,60.48037396
62,Stimuli/Morph62.JPG,Stimuli/Morph62.png,Stimuli/BlurLevel5/BlurEditedMorph62,Stimuli/BlurLevel5/BlurEditedMorph62.png,Stimuli/BlurLevel5/NumberedMorphs/BlurEditedMorph62.png,Stimuli/BlurLevel5/OriginalBlur/BlurEditedMorph62.png,Stimuli/BlurMorphTrio/EditedMorph62.png,020205right.gif,Stimuli/normal_thumbnails/62right.gif,,,,,1,0,1,0,0,31,31,61,,,,,,,,,,,,,,,,,,,,,,,9,32,2,57,1.361597588,2.09667642,62,Experiment,,,,,,,,,78,77,-15,-15,,,,,,,,,,,,,,,1037.431148,1037.955429,1037.431148,1037.955429,79.59183673,1575475290,1575475291,1.150880814,1575475288,1575475290,,,S7,1,57,m,expert radiologist,2019_Dec_04_0945,AdjustEyeTrack,3.1.5,60.48037396
76,Stimuli/Morph76.JPG,Stimuli/Morph76.png,Stimuli/BlurLevel5/BlurEditedMorph76,Stimuli/BlurLevel5/BlurEditedMorph76.png,Stimuli/BlurLevel5/NumberedMorphs/BlurEditedMorph76.png,Stimuli/BlurLevel5/OriginalBlur/BlurEditedMorph76.png,Stimuli/BlurMorphTrio/EditedMorph76.png,020234right.gif,Stimuli/normal_thumbnails/76right.gif,,,,,1,0,1,0,0,32,32,75,,,,,,,,,,,,,,,,,,,,,,,19,33,2,159,-2.333951066,0.895919874,76,Experiment,,,,,,,,,130,68,8,8,,,,,,,,,,,,,,,1041.905757,1042.423398,1041.905757,1042.423398,89.11564626,1575475294,1575475297,2.447793961,1575475291,1575475294,,,S7,1,57,m,expert radiologist,2019_Dec_04_0945,AdjustEyeTrack,3.1.5,60.48037396
113,Stimuli/Morph113.JPG,Stimuli/Morph113.png,Stimuli/BlurLevel5/BlurEditedMorph113,Stimuli/BlurLevel5/BlurEditedMorph113.png,Stimuli/BlurLevel5/NumberedMorphs/BlurEditedMorph113.png,Stimuli/BlurLevel5/OriginalBlur/BlurEditedMorph113.png,Stimuli/BlurMorphTrio/EditedMorph113.png,None,None,,,,,1,0,1,0,0,33,33,112,,,,,,,,,,,,,,,,,,,,,,,18,34,2,171,-2.469220851,0.391086163,113,Experiment,,,,,,,,,21,78,35,35,,,,,,,,,,,,,,,1046.712198,1047.221655,1046.712198,1047.221655,52.38095238,1575475299,1575475302,2.865618229,1575475297,1575475299,,,S7,1,57,m,expert radiologist,2019_Dec_04_0945,AdjustEyeTrack,3.1.5,60.48037396
8,Stimuli/Morph8.JPG,Stimuli/Morph8.png,Stimuli/BlurLevel5/BlurEditedMorph8,Stimuli/BlurLevel5/BlurEditedMorph8.png,Stimuli/BlurLevel5/NumberedMorphs/BlurEditedMorph8.png,Stimuli/BlurLevel5/OriginalBlur/BlurEditedMorph8.png,Stimuli/BlurMorphTrio/EditedMorph8.png,010014right.gif,Stimuli/normal_thumbnails/8right.gif,,,,,1,0,1,0,0,34,34,7,,,,,,,,,,,,,,,,,,,,,,,7,35,2,22,2.317959636,0.936516484,8,Experiment,,,,,,,,,134,122,-114,33,,,,,,,,,,,,,,,1052.356584,1052.8755,1052.356584,1052.8755,55.10204082,1575475305,1575475308,2.63280201,1575475302,1575475305,,,S7,1,57,m,expert radiologist,2019_Dec_04_0945,AdjustEyeTrack,3.1.5,60.48037396
73,Stimuli/Morph73.JPG,Stimuli/Morph73.png,Stimuli/BlurLevel5/BlurEditedMorph73,Stimuli/BlurLevel5/BlurEditedMorph73.png,Stimuli/BlurLevel5/NumberedMorphs/BlurEditedMorph73.png,Stimuli/BlurLevel5/OriginalBlur/BlurEditedMorph73.png,Stimuli/BlurMorphTrio/EditedMorph73.png,020230right.gif,Stimuli/normal_thumbnails/73right.gif,,,,,1,0,1,0,0,35,35,72,,,,,,,,,,,,,,,,,,,,,,,82,36,2,113,-0.976827821,2.301262134,73,Experiment,,,,,,,,,94,94,-21,-21,,,,,,,,,,,,,,,1057.920221,1058.422182,1057.920221,1058.422182,71.42857143,1575475310,1575475311,0.981128931,1575475308,1575475310,,,S7,1,57,m,expert radiologist,2019_Dec_04_0945,AdjustEyeTrack,3.1.5,60.48037396
144,Stimuli/Morph144.JPG,Stimuli/Morph144.png,Stimuli/BlurLevel5/BlurEditedMorph144,Stimuli/BlurLevel5/BlurEditedMorph144.png,Stimuli/BlurLevel5/NumberedMorphs/BlurEditedMorph144.png,Stimuli/BlurLevel5/OriginalBlur/BlurEditedMorph144.png,Stimuli/BlurMorphTrio/EditedMorph144.png,None,None,,,,,1,0,1,0,0,36,36,143,,,,,,,,,,,,,,,,,,,,,,,25,37,2,302,1.324798161,-2.12012024,144,Experiment,,,,,,,,,20,4,140,-7,,,,,,,,,,,,,,,1061.617766,1062.122883,1061.617766,1062.122883,90.47619048,1575475314,1575475318,3.717371941,1575475312,1575475314,,,S7,1,57,m,expert radiologist,2019_Dec_04_0945,AdjustEyeTrack,3.1.5,60.48037396
110,Stimuli/Morph110.JPG,Stimuli/Morph110.png,Stimuli/BlurLevel5/BlurEditedMorph110,Stimuli/BlurLevel5/BlurEditedMorph110.png,Stimuli/BlurLevel5/NumberedMorphs/BlurEditedMorph110.png,Stimuli/BlurLevel5/OriginalBlur/BlurEditedMorph110.png,Stimuli/BlurMorphTrio/EditedMorph110.png,None,None,,,,,1,0,1,0,0,37,37,109,,,,,,,,,,,,,,,,,,,,,,,21,38,2,353,2.481365379,-0.304673359,110,Experiment,,,,,,,,,86,86,24,24,,,,,,,,,,,,,,,1067.875008,1068.389061,1067.875008,1068.389061,67.34693878,1575475320,1575475321,0.88368988,1575475318,1575475320,,,S7,1,57,m,expert radiologist,2019_Dec_04_0945,AdjustEyeTrack,3.1.5,60.48037396
121,Stimuli/Morph121.JPG,Stimuli/Morph121.png,Stimuli/BlurLevel5/BlurEditedMorph121,Stimuli/BlurLevel5/BlurEditedMorph121.png,Stimuli/BlurLevel5/NumberedMorphs/BlurEditedMorph121.png,Stimuli/BlurLevel5/OriginalBlur/BlurEditedMorph121.png,Stimuli/BlurMorphTrio/EditedMorph121.png,None,None,,,,,1,0,1,0,0,38,38,120,,,,,,,,,,,,,,,,,,,,,,,61,39,2,221,-1.886773951,-1.640147572,121,Experiment,,,,,,,,,66,82,39,39,,,,,,,,,,,,,,,1072.107717,1072.622696,1072.107717,1072.622696,46.93877551,1575475325,1575475329,4.485178232,1575475322,1575475325,,,S7,1,57,m,expert radiologist,2019_Dec_04_0945,AdjustEyeTrack,3.1.5,60.48037396
40,Stimuli/Morph40.JPG,Stimuli/Morph40.png,Stimuli/BlurLevel5/BlurEditedMorph40,Stimuli/BlurLevel5/BlurEditedMorph40.png,Stimuli/BlurLevel5/NumberedMorphs/BlurEditedMorph40.png,Stimuli/BlurLevel5/OriginalBlur/BlurEditedMorph40.png,Stimuli/BlurMorphTrio/EditedMorph40.png,010110right.gif,Stimuli/normal_thumbnails/40right.gif,,,,,1,0,1,0,0,39,39,39,,,,,,,,,,,,,,,,,,,,,,,88,40,2,170,-2.462019383,0.434120444,40,Experiment,,,,,,,,,139,30,10,10,,,,,,,,,,,,,,,1079.522554,1080.02312,1079.522554,1080.02312,86.39455782,1575475332,1575475336,4.233363867,1575475329,1575475332,,,S7,1,57,m,expert radiologist,2019_Dec_04_0945,AdjustEyeTrack,3.1.5,60.48037396
72,Stimuli/Morph72.JPG,Stimuli/Morph72.png,Stimuli/BlurLevel5/BlurEditedMorph72,Stimuli/BlurLevel5/BlurEditedMorph72.png,Stimuli/BlurLevel5/NumberedMorphs/BlurEditedMorph72.png,Stimuli/BlurLevel5/OriginalBlur/BlurEditedMorph72.png,Stimuli/BlurMorphTrio/EditedMorph72.png,020227right.gif,Stimuli/normal_thumbnails/72right.gif,,,,,1,0,1,0,0,40,40,71,,,,,,,,,,,,,,,,,,,,,,,76,41,2,227,-1.7049959,-1.828384254,72,Experiment,,,,,,,,,134,81,-9,-9,,,,,,,,,,,,,,,1085.958832,1086.470893,1085.958832,1086.470893,87.75510204,1575475339,1575475342,3.299907207,1575475337,1575475339,,,S7,1,57,m,expert radiologist,2019_Dec_04_0945,AdjustEyeTrack,3.1.5,60.48037396
83,Stimuli/Morph83.JPG,Stimuli/Morph83.png,Stimuli/BlurLevel5/BlurEditedMorph83,Stimuli/BlurLevel5/BlurEditedMorph83.png,Stimuli/BlurLevel5/NumberedMorphs/BlurEditedMorph83.png,Stimuli/BlurLevel5/OriginalBlur/BlurEditedMorph83.png,Stimuli/BlurMorphTrio/EditedMorph83.png,020259right.gif,Stimuli/normal_thumbnails/83right.gif,,,,,1,0,1,0,0,41,41,82,,,,,,,,,,,,,,,,,,,,,,,59,42,2,7,2.481365379,0.304673359,83,Experiment,,,,,,,,,134,76,7,7,,,,,,,,,,,,,,,1091.521961,1092.02175,1091.521961,1092.02175,90.47619048,1575475344,1575475347,2.933416128,1575475342,1575475344,,,S7,1,57,m,expert radiologist,2019_Dec_04_0945,AdjustEyeTrack,3.1.5,60.48037396
109,Stimuli/Morph109.JPG,Stimuli/Morph109.png,Stimuli/BlurLevel5/BlurEditedMorph109,Stimuli/BlurLevel5/BlurEditedMorph109.png,Stimuli/BlurLevel5/NumberedMorphs/BlurEditedMorph109.png,Stimuli/BlurLevel5/OriginalBlur/BlurEditedMorph109.png,Stimuli/BlurMorphTrio/EditedMorph109.png,None,None,,,,,1,0,1,0,0,42,42,108,,,,,,,,,,,,,,,,,,,,,,,48,43,2,268,-0.087248742,-2.498477068,109,Experiment,,,,,,,,,30,98,11,11,,,,,,,,,,,,,,,1096.896488,1097.404832,1096.896488,1097.404832,85.03401361,1575475349,1575475354,4.516728163,1575475347,1575475349,,,S7,1,57,m,expert radiologist,2019_Dec_04_0945,AdjustEyeTrack,3.1.5,60.48037396
14,Stimuli/Morph14.JPG,Stimuli/Morph14.png,Stimuli/BlurLevel5/BlurEditedMorph14,Stimuli/BlurLevel5/BlurEditedMorph14.png,Stimuli/BlurLevel5/NumberedMorphs/BlurEditedMorph14.png,Stimuli/BlurLevel5/OriginalBlur/BlurEditedMorph14.png,Stimuli/BlurMorphTrio/EditedMorph14.png,010030right.gif,Stimuli/normal_thumbnails/14right.gif,,,,,1,0,1,0,0,43,43,13,,,,,,,,,,,,,,,,,,,,,,,62,44,2,163,-2.39076189,0.730929262,14,Experiment,,,,,,,,,105,11,3,3,,,,,,,,,,,,,,,1104.149246,1104.654806,1104.149246,1104.654806,95.91836735,1575475357,1575475360,3.432986975,1575475354,1575475357,,,S7,1,57,m,expert radiologist,2019_Dec_04_0945,AdjustEyeTrack,3.1.5,60.48037396
57,Stimuli/Morph57.JPG,Stimuli/Morph57.png,Stimuli/BlurLevel5/BlurEditedMorph57,Stimuli/BlurLevel5/BlurEditedMorph57.png,Stimuli/BlurLevel5/NumberedMorphs/BlurEditedMorph57.png,Stimuli/BlurLevel5/OriginalBlur/BlurEditedMorph57.png,Stimuli/BlurMorphTrio/EditedMorph57.png,010158right.gif,Stimuli/normal_thumbnails/57right.gif,,,,,1,0,1,0,0,44,44,56,,,,,,,,,,,,,,,,,,,,,,,31,45,2,64,1.095927867,2.246985116,57,Experiment,,,,,,,,,36,70,-13,-13,,,,,,,,,,,,,,,1110.55512,1111.055404,1110.55512,1111.055404,82.31292517,1575475363,1575475368,4.734141827,1575475360,1575475363,,,S7,1,57,m,expert radiologist,2019_Dec_04_0945,AdjustEyeTrack,3.1.5,60.48037396
130,Stimuli/Morph130.JPG,Stimuli/Morph130.png,Stimuli/BlurLevel5/BlurEditedMorph130,Stimuli/BlurLevel5/BlurEditedMorph130.png,Stimuli/BlurLevel5/NumberedMorphs/BlurEditedMorph130.png,Stimuli/BlurLevel5/OriginalBlur/BlurEditedMorph130.png,Stimuli/BlurMorphTrio/EditedMorph130.png,None,None,,,,,1,0,1,0,0,45,45,129,,,,,,,,,,,,,,,,,,,,,,,42,46,2,149,-2.142918252,1.287595187,130,Experiment,,,,,,,,,133,84,46,46,,,,,,,,,,,,,,,1118.505582,1119.02171,1118.505582,1119.02171,37.41496599,1575475371,1575475376,4.699748993,1575475368,1575475371,,,S7,1,57,m,expert radiologist,2019_Dec_04_0945,AdjustEyeTrack,3.1.5,60.48037396
3,Stimuli/Morph3.JPG,Stimuli/Morph3.png,Stimuli/BlurLevel5/BlurEditedMorph3,Stimuli/BlurLevel5/BlurEditedMorph3.png,Stimuli/BlurLevel5/NumberedMorphs/BlurEditedMorph3.png,Stimuli/BlurLevel5/OriginalBlur/BlurEditedMorph3.png,Stimuli/BlurMorphTrio/EditedMorph3.png,010009right.gif,Stimuli/normal_thumbnails/3right.gif,,,,,1,0,1,0,0,46,46,2,,,,,,,,,,,,,,,,,,,,,,,23,47,2,339,2.333951066,-0.895919874,3,Experiment,,,,,,,,,107,1,2,2,,,,,,,,,,,,,,,1125.910771,1126.420532,1125.910771,1126.420532,97.27891156,1575475378,1575475382,3.100171089,1575475376,1575475378,,,S7,1,57,m,expert radiologist,2019_Dec_04_0945,AdjustEyeTrack,3.1.5,60.48037396
25,Stimuli/Morph25.JPG,Stimuli/Morph25.png,Stimuli/BlurLevel5/BlurEditedMorph25,Stimuli/BlurLevel5/BlurEditedMorph25.png,Stimuli/BlurLevel5/NumberedMorphs/BlurEditedMorph25.png,Stimuli/BlurLevel5/OriginalBlur/BlurEditedMorph25.png,Stimuli/BlurMorphTrio/EditedMorph25.png,010069right.gif,Stimuli/normal_thumbnails/25right.gif,,,,,1,0,1,0,0,47,47,24,,,,,,,,,,,,,,,,,,,,,,,70,48,2,271,0.043631016,-2.499619238,25,Experiment,,,,,,,,,143,33,-8,-8,,,,,,,,,,,,,,,1131.610478,1132.121049,1131.610478,1132.121049,89.11564626,1575475384,1575475386,2.167360067,1575475382,1575475384,,,S7,1,57,m,expert radiologist,2019_Dec_04_0945,AdjustEyeTrack,3.1.5,60.48037396
128,Stimuli/Morph128.JPG,Stimuli/Morph128.png,Stimuli/BlurLevel5/BlurEditedMorph128,Stimuli/BlurLevel5/BlurEditedMorph128.png,Stimuli/BlurLevel5/NumberedMorphs/BlurEditedMorph128.png,Stimuli/BlurLevel5/OriginalBlur/BlurEditedMorph128.png,Stimuli/BlurMorphTrio/EditedMorph128.png,None,None,,,,,1,0,1,0,0,48,48,127,,,,,,,,,,,,,,,,,,,,,,,88,49,2,12,2.445369002,0.519779227,128,Experiment,,,,,,,,,24,97,31,31,,,,,,,,,,,,,,,1136.573811,1137.091748,1136.573811,1137.091748,57.82312925,1575475389,1575475392,2.880867004,1575475387,1575475389,,,S7,1,57,m,expert radiologist,2019_Dec_04_0945,AdjustEyeTrack,3.1.5,60.48037396
54,Stimuli/Morph54.JPG,Stimuli/Morph54.png,Stimuli/BlurLevel5/BlurEditedMorph54,Stimuli/BlurLevel5/BlurEditedMorph54.png,Stimuli/BlurLevel5/NumberedMorphs/BlurEditedMorph54.png,Stimuli/BlurLevel5/OriginalBlur/BlurEditedMorph54.png,Stimuli/BlurMorphTrio/EditedMorph54.png,010150right.gif,Stimuli/normal_thumbnails/54right.gif,,,,,1,0,1,0,0,49,49,53,,,,,,,,,,,,,,,,,,,,,,,91,50,2,102,-0.519779227,2.445369002,54,Experiment,,,,,,,,,40,52,2,2,,,,,,,,,,,,,,,1142.456499,1142.954424,1142.456499,1142.954424,97.27891156,1575475395,1575475399,3.585896969,1575475392,1575475395,,,S7,1,57,m,expert radiologist,2019_Dec_04_0945,AdjustEyeTrack,3.1.5,60.48037396
95,Stimuli/Morph95.JPG,Stimuli/Morph95.png,Stimuli/BlurLevel5/BlurEditedMorph95,Stimuli/BlurLevel5/BlurEditedMorph95.png,Stimuli/BlurLevel5/NumberedMorphs/BlurEditedMorph95.png,Stimuli/BlurLevel5/OriginalBlur/BlurEditedMorph95.png,Stimuli/BlurMorphTrio/EditedMorph95.png,020287right.gif,Stimuli/normal_thumbnails/95right.gif,,,,,1,0,1,0,0,50,50,94,,,,,,,,,,,,,,,,,,,,,,,64,51,2,17,2.39076189,0.730929262,95,Experiment,,,,,,,,,56,100,-5,-5,,,,,,,,,,,,,,,1148.722404,1149.226017,1148.722404,1149.226017,93.19727891,1575475401,1575475405,3.752309322,1575475399,1575475401,,,S7,1,57,m,expert radiologist,2019_Dec_04_0945,AdjustEyeTrack,3.1.5,60.48037396
18,Stimuli/Morph18.JPG,Stimuli/Morph18.png,Stimuli/BlurLevel5/BlurEditedMorph18,Stimuli/BlurLevel5/BlurEditedMorph18.png,Stimuli/BlurLevel5/NumberedMorphs/BlurEditedMorph18.png,Stimuli/BlurLevel5/OriginalBlur/BlurEditedMorph18.png,Stimuli/BlurMorphTrio/EditedMorph18.png,010039right.gif,Stimuli/normal_thumbnails/18right.gif,,,,,1,0,1,0,0,51,51,17,,,,,,,,,,,,,,,,,,,,,,,62,52,2,66,1.016841608,2.283863644,18,Experiment,,,,,,,,,127,16,2,2,,,,,,,,,,,,,,,1155.022504,1155.521298,1155.022504,1155.521298,97.27891156,1575475408,1575475410,2.399589062,1575475405,1575475408,,,S7,1,57,m,expert radiologist,2019_Dec_04_0945,AdjustEyeTrack,3.1.5,60.48037396
111,Stimuli/Morph111.JPG,Stimuli/Morph111.png,Stimuli/BlurLevel5/BlurEditedMorph111,Stimuli/BlurLevel5/BlurEditedMorph111.png,Stimuli/BlurLevel5/NumberedMorphs/BlurEditedMorph111.png,Stimuli/BlurLevel5/OriginalBlur/BlurEditedMorph111.png,Stimuli/BlurMorphTrio/EditedMorph111.png,None,None,,,,,1,0,1,0,0,52,52,110,,,,,,,,,,,,,,,,,,,,,,,16,53,2,356,2.493910126,-0.174391184,111,Experiment,,,,,,,,,89,89,22,22,,,,,,,,,,,,,,,1160.094774,1160.58736,1160.094774,1160.58736,70.06802721,1575475413,1575475414,1.666346073,1575475410,1575475413,,,S7,1,57,m,expert radiologist,2019_Dec_04_0945,AdjustEyeTrack,3.1.5,60.48037396
129,Stimuli/Morph129.JPG,Stimuli/Morph129.png,Stimuli/BlurLevel5/BlurEditedMorph129,Stimuli/BlurLevel5/BlurEditedMorph129.png,Stimuli/BlurLevel5/NumberedMorphs/BlurEditedMorph129.png,Stimuli/BlurLevel5/OriginalBlur/BlurEditedMorph129.png,Stimuli/BlurMorphTrio/EditedMorph129.png,None,None,,,,,1,0,1,0,0,53,53,128,,,,,,,,,,,,,,,,,,,,,,,73,54,2,12,2.445369002,0.519779227,129,Experiment,,,,,,,,,26,139,-10,-10,,,,,,,,,,,,,,,1164.43844,1164.937039,1164.43844,1164.937039,86.39455782,1575475417,1575475420,3.155184984,1575475415,1575475417,,,S7,1,57,m,expert radiologist,2019_Dec_04_0945,AdjustEyeTrack,3.1.5,60.48037396
82,Stimuli/Morph82.JPG,Stimuli/Morph82.png,Stimuli/BlurLevel5/BlurEditedMorph82,Stimuli/BlurLevel5/BlurEditedMorph82.png,Stimuli/BlurLevel5/NumberedMorphs/BlurEditedMorph82.png,Stimuli/BlurLevel5/OriginalBlur/BlurEditedMorph82.png,Stimuli/BlurMorphTrio/EditedMorph82.png,020247right.gif,Stimuli/normal_thumbnails/82right.gif,,,,,1,0,1,0,0,54,54,81,,,,,,,,,,,,,,,,,,,,,,,82,55,2,111,-0.895919874,2.333951066,82,Experiment,,,,,,,,,110,106,-24,-24,,,,,,,,,,,,,,,1170.43872,1170.937228,1170.43872,1170.937228,67.34693878,1575475423,1575475425,1.633677006,1575475420,1575475423,,,S7,1,57,m,expert radiologist,2019_Dec_04_0945,AdjustEyeTrack,3.1.5,60.48037396
13,Stimuli/Morph13.JPG,Stimuli/Morph13.png,Stimuli/BlurLevel5/BlurEditedMorph13,Stimuli/BlurLevel5/BlurEditedMorph13.png,Stimuli/BlurLevel5/NumberedMorphs/BlurEditedMorph13.png,Stimuli/BlurLevel5/OriginalBlur/BlurEditedMorph13.png,Stimuli/BlurMorphTrio/EditedMorph13.png,010027right.gif,Stimuli/normal_thumbnails/13right.gif,,,,,1,0,1,0,0,55,55,12,,,,,,,,,,,,,,,,,,,,,,,90,56,2,349,2.454067959,-0.477022488,13,Experiment,,,,,,,,,8,8,5,5,,,,,,,,,,,,,,,1174.77297,1175.272054,1174.77297,1175.272054,93.19727891,1575475427,1575475428,0.931200027,1575475425,1575475427,,,S7,1,57,m,expert radiologist,2019_Dec_04_0945,AdjustEyeTrack,3.1.5,60.48037396
39,Stimuli/Morph39.JPG,Stimuli/Morph39.png,Stimuli/BlurLevel5/BlurEditedMorph39,Stimuli/BlurLevel5/BlurEditedMorph39.png,Stimuli/BlurLevel5/NumberedMorphs/BlurEditedMorph39.png,Stimuli/BlurLevel5/OriginalBlur/BlurEditedMorph39.png,Stimuli/BlurMorphTrio/EditedMorph39.png,010109right.gif,Stimuli/normal_thumbnails/39right.gif,,,,,1,0,1,0,0,56,56,38,,,,,,,,,,,,,,,,,,,,,,,35,57,2,78,0.519779227,2.445369002,39,Experiment,,,,,,,,,2,34,5,5,,,,,,,,,,,,,,,1178.468377,1178.971438,1178.468377,1178.971438,93.19727891,1575475431,1575475435,3.733434916,1575475428,1575475431,,,S7,1,57,m,expert radiologist,2019_Dec_04_0945,AdjustEyeTrack,3.1.5,60.48037396
116,Stimuli/Morph116.JPG,Stimuli/Morph116.png,Stimuli/BlurLevel5/BlurEditedMorph116,Stimuli/BlurLevel5/BlurEditedMorph116.png,Stimuli/BlurLevel5/NumberedMorphs/BlurEditedMorph116.png,Stimuli/BlurLevel5/OriginalBlur/BlurEditedMorph116.png,Stimuli/BlurMorphTrio/EditedMorph116.png,None,None,,,,,1,0,1,0,0,57,57,115,,,,,,,,,,,,,,,,,,,,,,,4,58,2,158,-2.317959636,0.936516484,116,Experiment,,,,,,,,,6,92,24,24,,,,,,,,,,,,,,,1185.39368,1185.90493,1185.39368,1185.90493,67.34693878,1575475438,1575475441,3.114490032,1575475435,1575475438,,,S7,1,57,m,expert radiologist,2019_Dec_04_0945,AdjustEyeTrack,3.1.5,60.48037396
