stimulusID,stimulus_JPG,stimulusPath,stimulusPath2,stimulusPath3,stimulusPath4,stimulusPath5,stimulusPath6,xRayOriginal,xRayPath,Training.thisRepN,Training.thisTrialN,Training.thisN,Training.thisIndex,Blocks.thisRepN,Blocks.thisTrialN,Blocks.thisN,Blocks.thisIndex,Trials.thisRepN,Trials.thisTrialN,Trials.thisN,Trials.thisIndex,text_2.started,text_2.stopped,image.started,image.stopped,image_2.started,image_2.stopped,image_3.started,image_3.stopped,image_4.started,image_4.stopped,image_6.started,image_6.stopped,image_7.started,image_7.stopped,image_8.started,image_8.stopped,image_9.started,image_9.stopped,image_10.started,image_10.stopped,image_12.started,image_12.stopped,xrayID,trialNumber,blockNumber,stimLocationDeg,stimXCoord,stimYCoord,stimulusID,blockType,trainingXray.started,trainingXray.stopped,trainingTumors.started,trainingTumors.stopped,trainingScore%,startTrainingRespTime,endTrainingRespTime,trainingRT,morphTrack,morphID,errorRaw,errorCorrected,startTrainingStimTime,endTrainingStimTime,key_resp_3.keys,key_resp_3.rt,text.started,text.stopped,text_3.started,text_3.stopped,text_4.started,text_4.stopped,key_resp_5.keys,key_resp_5.rt,key_resp_5.started,key_resp_5.stopped,xray1.started,xray1.stopped,tumors.started,tumors.stopped,trialCorrect%,startRespTime,endRespTime,RT,startStimTime,endStimTime,key_resp.keys,key_resp.rt,participant,session,age,gender,status,date,expName,psychopyVersion,frameRate
39,Stimuli/Morph39.JPG,Stimuli/Morph39.png,Stimuli/BlurLevel5/BlurEditedMorph39,Stimuli/BlurLevel5/BlurEditedMorph39.png,Stimuli/BlurLevel5/NumberedMorphs/BlurEditedMorph39.png,Stimuli/BlurLevel5/OriginalBlur/BlurEditedMorph39.png,Stimuli/BlurMorphTrio/EditedMorph39.png,010109right.gif,Stimuli/normal_thumbnails/39right.gif,0,0,0,38,,,,,,,,,87.47462892,None,87.47462892,None,87.47462892,None,87.47462892,None,87.47462892,None,87.47462892,None,87.47462892,None,87.47462892,None,87.47462892,None,87.47462892,None,87.47462892,None,95,-100,-100,312,1.672826516,-1.857862064,39,training,122.7206442,123.2395139,122.7206442,123.2395139,82.31292517,1575478910,1575478915,4.566298008,121,52,-13,-13,1575478907,1575478910,space,2.781157674,,,,,,,,,,,,,,,,,,,,,,,S8,1,47,m,expert radiologist,2019_Dec_04_1101,AdjustEyeTrack,3.1.5,59.82063811
58,Stimuli/Morph58.JPG,Stimuli/Morph58.png,Stimuli/BlurLevel5/BlurEditedMorph58,Stimuli/BlurLevel5/BlurEditedMorph58.png,Stimuli/BlurLevel5/NumberedMorphs/BlurEditedMorph58.png,Stimuli/BlurLevel5/OriginalBlur/BlurEditedMorph58.png,Stimuli/BlurMorphTrio/EditedMorph58.png,010159right.gif,Stimuli/normal_thumbnails/58right.gif,0,1,1,57,,,,,,,,,,,,,,,,,,,,,,,,,,,,,,,16,-100,-100,36,2.022542486,1.469463131,58,training,132.6432938,133.1407964,132.6432938,133.1407964,91.83673469,1575478920,1575478922,1.934128046,81,64,-6,-6,1575478917,1575478920,space,5.152851208,,,,,,,,,,,,,,,,,,,,,,,S8,1,47,m,expert radiologist,2019_Dec_04_1101,AdjustEyeTrack,3.1.5,59.82063811
127,Stimuli/Morph127.JPG,Stimuli/Morph127.png,Stimuli/BlurLevel5/BlurEditedMorph127,Stimuli/BlurLevel5/BlurEditedMorph127.png,Stimuli/BlurLevel5/NumberedMorphs/BlurEditedMorph127.png,Stimuli/BlurLevel5/OriginalBlur/BlurEditedMorph127.png,Stimuli/BlurMorphTrio/EditedMorph127.png,None,None,0,2,2,126,,,,,,,,,,,,,,,,,,,,,,,,,,,,,,,89,-100,-100,239,-1.287595187,-2.142918252,127,training,142.3497614,142.8397014,142.3497614,142.8397014,70.06802721,1575478930,1575478932,2.699726105,98,105,22,22,1575478927,1575478930,space,5.731175806,,,,,,,,,,,,,,,,,,,,,,,S8,1,47,m,expert radiologist,2019_Dec_04_1101,AdjustEyeTrack,3.1.5,59.82063811
27,Stimuli/Morph27.JPG,Stimuli/Morph27.png,Stimuli/BlurLevel5/BlurEditedMorph27,Stimuli/BlurLevel5/BlurEditedMorph27.png,Stimuli/BlurLevel5/NumberedMorphs/BlurEditedMorph27.png,Stimuli/BlurLevel5/OriginalBlur/BlurEditedMorph27.png,Stimuli/BlurMorphTrio/EditedMorph27.png,010072right.gif,Stimuli/normal_thumbnails/27right.gif,0,3,3,26,,,,,,,,,,,,,,,,,,,,,,,,,,,,,,,87,-100,-100,91,-0.043631016,2.499619238,27,training,153.5448079,154.0557641,153.5448079,154.0557641,75.51020408,1575478941,1575478960,19.41605401,133,9,18,18,1575478938,1575478941,space,0.804835792,,,,,,,,,,,,,,,,,,,,,,,S8,1,47,m,expert radiologist,2019_Dec_04_1101,AdjustEyeTrack,3.1.5,59.82063811
50,Stimuli/Morph50.JPG,Stimuli/Morph50.png,Stimuli/BlurLevel5/BlurEditedMorph50,Stimuli/BlurLevel5/BlurEditedMorph50.png,Stimuli/BlurLevel5/NumberedMorphs/BlurEditedMorph50.png,Stimuli/BlurLevel5/OriginalBlur/BlurEditedMorph50.png,Stimuli/BlurMorphTrio/EditedMorph50.png,010142right.gif,Stimuli/normal_thumbnails/50right.gif,0,4,4,49,,,,,,,,,,,,,,,,,,,,,,,,,,,,,,,93,-100,-100,16,2.40315424,0.68909339,50,training,177.4580285,177.9890425,177.4580285,177.9890425,72.78911565,1575478965,1575478967,2.766218901,73,70,-20,-20,1575478961,1575478965,space,3.249296363,,,,,,,,,,,,,,,,,,,,,,,S8,1,47,m,expert radiologist,2019_Dec_04_1101,AdjustEyeTrack,3.1.5,59.82063811
140,Stimuli/Morph140.JPG,Stimuli/Morph140.png,Stimuli/BlurLevel5/BlurEditedMorph140,Stimuli/BlurLevel5/BlurEditedMorph140.png,Stimuli/BlurLevel5/NumberedMorphs/BlurEditedMorph140.png,Stimuli/BlurLevel5/OriginalBlur/BlurEditedMorph140.png,Stimuli/BlurMorphTrio/EditedMorph140.png,None,None,0,5,5,139,,,,,,,,,,,,,,,,,,,,,,,,,,,,,,,1,-100,-100,216,-2.022542486,-1.469463131,140,training,185.3390086,185.8391694,185.3390086,185.8391694,41.49659864,1575478973,1575478983,10.64976501,61,36,104,-43,1575478971,1575478973,space,2.160399433,,,,,,,,,,,,,,,,,,,,,,,S8,1,47,m,expert radiologist,2019_Dec_04_1101,AdjustEyeTrack,3.1.5,59.82063811
113,Stimuli/Morph113.JPG,Stimuli/Morph113.png,Stimuli/BlurLevel5/BlurEditedMorph113,Stimuli/BlurLevel5/BlurEditedMorph113.png,Stimuli/BlurLevel5/NumberedMorphs/BlurEditedMorph113.png,Stimuli/BlurLevel5/OriginalBlur/BlurEditedMorph113.png,Stimuli/BlurMorphTrio/EditedMorph113.png,None,None,0,6,6,112,,,,,,,,,,,,,,,,,,,,,,,,,,,,,,,46,-100,-100,281,0.477022488,-2.454067959,113,training,200.4246456,200.9387771,200.4246456,200.9387771,100,1575478988,1575478990,2.082767963,113,113,0,0,1575478985,1575478988,space,3.534376675,,,,,,,,,,,,,,,,,,,,,,,S8,1,47,m,expert radiologist,2019_Dec_04_1101,AdjustEyeTrack,3.1.5,59.82063811
69,Stimuli/Morph69.JPG,Stimuli/Morph69.png,Stimuli/BlurLevel5/BlurEditedMorph69,Stimuli/BlurLevel5/BlurEditedMorph69.png,Stimuli/BlurLevel5/NumberedMorphs/BlurEditedMorph69.png,Stimuli/BlurLevel5/OriginalBlur/BlurEditedMorph69.png,Stimuli/BlurMorphTrio/EditedMorph69.png,020220right.gif,Stimuli/normal_thumbnails/69right.gif,0,7,7,68,,,,,,,,,,,,,,,,,,,,,,,,,,,,,,,51,-100,-100,139,-1.886773951,1.640147572,69,training,208.9599574,209.4572743,208.9599574,209.4572743,97.27891156,1575478996,1575478999,2.965929985,146,71,-2,-2,1575478993,1575478996,space,4.376277747,,,,,,,,,,,,,,,,,,,,,,,S8,1,47,m,expert radiologist,2019_Dec_04_1101,AdjustEyeTrack,3.1.5,59.82063811
10,Stimuli/Morph10.JPG,Stimuli/Morph10.png,Stimuli/BlurLevel5/BlurEditedMorph10,Stimuli/BlurLevel5/BlurEditedMorph10.png,Stimuli/BlurLevel5/NumberedMorphs/BlurEditedMorph10.png,Stimuli/BlurLevel5/OriginalBlur/BlurEditedMorph10.png,Stimuli/BlurMorphTrio/EditedMorph10.png,010016right.gif,Stimuli/normal_thumbnails/10right.gif,0,8,8,9,,,,,,,,,,,,,,,,,,,,,,,,,,,,,,,3,-100,-100,106,-0.68909339,2.40315424,10,training,218.7818825,219.2887947,218.7818825,219.2887947,98.63945578,1575479006,1575479017,10.537117,17,11,-1,-1,1575479004,1575479006,space,1.808371631,,,,,,,,,,,,,,,,,,,,,,,S8,1,47,m,expert radiologist,2019_Dec_04_1101,AdjustEyeTrack,3.1.5,59.82063811
126,Stimuli/Morph126.JPG,Stimuli/Morph126.png,Stimuli/BlurLevel5/BlurEditedMorph126,Stimuli/BlurLevel5/BlurEditedMorph126.png,Stimuli/BlurLevel5/NumberedMorphs/BlurEditedMorph126.png,Stimuli/BlurLevel5/OriginalBlur/BlurEditedMorph126.png,Stimuli/BlurMorphTrio/EditedMorph126.png,None,None,0,9,9,125,,,,,,,,,,,,,,,,,,,,,,,,,,,,,,,85,-100,-100,218,-1.970026884,-1.539153688,126,training,233.5309303,234.0225766,233.5309303,234.0225766,46.93877551,1575479021,1575479030,9.065800905,44,18,108,-39,1575479018,1575479021,space,2.910271122,,,,,,,,,,,,,,,,,,,,,,,S8,1,47,m,expert radiologist,2019_Dec_04_1101,AdjustEyeTrack,3.1.5,59.82063811
,,,,,,,,,,,,,,,,,,,,,,,,,,,,,,,,,,,,,,,,,,,,,-100,-100,,,,,training,,,,,,,,,,,,,,,,,247.1560259,None,247.1560259,None,247.1560259,None,space,28.80897674,247.1560259,None,,,,,,,,,,,,,S8,1,47,m,expert radiologist,2019_Dec_04_1101,AdjustEyeTrack,3.1.5,59.82063811
67,Stimuli/Morph67.JPG,Stimuli/Morph67.png,Stimuli/BlurLevel5/BlurEditedMorph67,Stimuli/BlurLevel5/BlurEditedMorph67.png,Stimuli/BlurLevel5/NumberedMorphs/BlurEditedMorph67.png,Stimuli/BlurLevel5/OriginalBlur/BlurEditedMorph67.png,Stimuli/BlurMorphTrio/EditedMorph67.png,020217right.gif,Stimuli/normal_thumbnails/67right.gif,,,,,0,0,0,0,0,0,0,66,,,,,,,,,,,,,,,,,,,,,,,2,1,1,199,-2.363796439,-0.813920386,67,Experiment,,,,,,,,,109,72,-5,-5,,,,,,,,,,,,,,,277.2197218,277.7211738,277.2197218,277.7211738,93.19727891,1575479064,1575479071,6.474011898,1575479062,1575479064,,,S8,1,47,m,expert radiologist,2019_Dec_04_1101,AdjustEyeTrack,3.1.5,59.82063811
58,Stimuli/Morph58.JPG,Stimuli/Morph58.png,Stimuli/BlurLevel5/BlurEditedMorph58,Stimuli/BlurLevel5/BlurEditedMorph58.png,Stimuli/BlurLevel5/NumberedMorphs/BlurEditedMorph58.png,Stimuli/BlurLevel5/OriginalBlur/BlurEditedMorph58.png,Stimuli/BlurMorphTrio/EditedMorph58.png,010159right.gif,Stimuli/normal_thumbnails/58right.gif,,,,,0,0,0,0,0,1,1,57,,,,,,,,,,,,,,,,,,,,,,,62,2,1,0,2.5,0,58,Experiment,,,,,,,,,136,70,-12,-12,,,,,,,,,,,,,,,286.580711,287.0910729,286.580711,287.0910729,83.67346939,1575479074,1575479077,2.899034023,1575479071,1575479074,,,S8,1,47,m,expert radiologist,2019_Dec_04_1101,AdjustEyeTrack,3.1.5,59.82063811
57,Stimuli/Morph57.JPG,Stimuli/Morph57.png,Stimuli/BlurLevel5/BlurEditedMorph57,Stimuli/BlurLevel5/BlurEditedMorph57.png,Stimuli/BlurLevel5/NumberedMorphs/BlurEditedMorph57.png,Stimuli/BlurLevel5/OriginalBlur/BlurEditedMorph57.png,Stimuli/BlurMorphTrio/EditedMorph57.png,010158right.gif,Stimuli/normal_thumbnails/57right.gif,,,,,0,0,0,0,0,2,2,56,,,,,,,,,,,,,,,,,,,,,,,57,3,1,331,2.186549268,-1.212024051,57,Experiment,,,,,,,,,49,76,-19,-19,,,,,,,,,,,,,,,292.3916747,292.9062087,292.3916747,292.9062087,74.14965986,1575479080,1575479082,2.149815083,1575479077,1575479080,,,S8,1,47,m,expert radiologist,2019_Dec_04_1101,AdjustEyeTrack,3.1.5,59.82063811
133,Stimuli/Morph133.JPG,Stimuli/Morph133.png,Stimuli/BlurLevel5/BlurEditedMorph133,Stimuli/BlurLevel5/BlurEditedMorph133.png,Stimuli/BlurLevel5/NumberedMorphs/BlurEditedMorph133.png,Stimuli/BlurLevel5/OriginalBlur/BlurEditedMorph133.png,Stimuli/BlurMorphTrio/EditedMorph133.png,None,None,,,,,0,0,0,0,0,3,3,132,,,,,,,,,,,,,,,,,,,,,,,15,4,1,235,-1.433941091,-2.047880111,133,Experiment,,,,,,,,,104,78,55,55,,,,,,,,,,,,,,,297.3086925,297.8211416,297.3086925,297.8211416,25.17006803,1575479085,1575479089,4.49972105,1575479082,1575479085,,,S8,1,47,m,expert radiologist,2019_Dec_04_1101,AdjustEyeTrack,3.1.5,59.82063811
135,Stimuli/Morph135.JPG,Stimuli/Morph135.png,Stimuli/BlurLevel5/BlurEditedMorph135,Stimuli/BlurLevel5/BlurEditedMorph135.png,Stimuli/BlurLevel5/NumberedMorphs/BlurEditedMorph135.png,Stimuli/BlurLevel5/OriginalBlur/BlurEditedMorph135.png,Stimuli/BlurMorphTrio/EditedMorph135.png,None,None,,,,,0,0,0,0,0,4,4,134,,,,,,,,,,,,,,,,,,,,,,,86,5,1,277,0.304673359,-2.481365379,135,Experiment,,,,,,,,,32,143,-8,-8,,,,,,,,,,,,,,,304.7528954,305.2566426,304.7528954,305.2566426,89.11564626,1575479092,1575479096,4.315843821,1575479089,1575479092,,,S8,1,47,m,expert radiologist,2019_Dec_04_1101,AdjustEyeTrack,3.1.5,59.82063811
127,Stimuli/Morph127.JPG,Stimuli/Morph127.png,Stimuli/BlurLevel5/BlurEditedMorph127,Stimuli/BlurLevel5/BlurEditedMorph127.png,Stimuli/BlurLevel5/NumberedMorphs/BlurEditedMorph127.png,Stimuli/BlurLevel5/OriginalBlur/BlurEditedMorph127.png,Stimuli/BlurMorphTrio/EditedMorph127.png,None,None,,,,,0,0,0,0,0,5,5,126,,,,,,,,,,,,,,,,,,,,,,,85,6,1,29,2.186549268,1.212024051,127,Experiment,,,,,,,,,60,144,-17,-17,,,,,,,,,,,,,,,311.8074783,312.3041715,311.8074783,312.3041715,76.8707483,1575479099,1575479102,3.183390856,1575479097,1575479099,,,S8,1,47,m,expert radiologist,2019_Dec_04_1101,AdjustEyeTrack,3.1.5,59.82063811
25,Stimuli/Morph25.JPG,Stimuli/Morph25.png,Stimuli/BlurLevel5/BlurEditedMorph25,Stimuli/BlurLevel5/BlurEditedMorph25.png,Stimuli/BlurLevel5/NumberedMorphs/BlurEditedMorph25.png,Stimuli/BlurLevel5/OriginalBlur/BlurEditedMorph25.png,Stimuli/BlurMorphTrio/EditedMorph25.png,010069right.gif,Stimuli/normal_thumbnails/25right.gif,,,,,0,0,0,0,0,6,6,24,,,,,,,,,,,,,,,,,,,,,,,79,7,1,171,-2.469220851,0.391086163,25,Experiment,,,,,,,,,26,26,-1,-1,,,,,,,,,,,,,,,317.7284877,318.2204776,317.7284877,318.2204776,98.63945578,1575479105,1575479106,1.09988308,1575479102,1575479105,,,S8,1,47,m,expert radiologist,2019_Dec_04_1101,AdjustEyeTrack,3.1.5,59.82063811
101,Stimuli/Morph101.JPG,Stimuli/Morph101.png,Stimuli/BlurLevel5/BlurEditedMorph101,Stimuli/BlurLevel5/BlurEditedMorph101.png,Stimuli/BlurLevel5/NumberedMorphs/BlurEditedMorph101.png,Stimuli/BlurLevel5/OriginalBlur/BlurEditedMorph101.png,Stimuli/BlurMorphTrio/EditedMorph101.png,None,None,,,,,0,0,0,0,0,7,7,100,,,,,,,,,,,,,,,,,,,,,,,68,8,1,160,-2.349231552,0.855050358,101,Experiment,,,,,,,,,7,104,-3,-3,,,,,,,,,,,,,,,321.7211252,322.2215189,321.7211252,322.2215189,95.91836735,1575479109,1575479113,4.300511122,1575479106,1575479109,,,S8,1,47,m,expert radiologist,2019_Dec_04_1101,AdjustEyeTrack,3.1.5,59.82063811
131,Stimuli/Morph131.JPG,Stimuli/Morph131.png,Stimuli/BlurLevel5/BlurEditedMorph131,Stimuli/BlurLevel5/BlurEditedMorph131.png,Stimuli/BlurLevel5/NumberedMorphs/BlurEditedMorph131.png,Stimuli/BlurLevel5/OriginalBlur/BlurEditedMorph131.png,Stimuli/BlurMorphTrio/EditedMorph131.png,None,None,,,,,0,0,0,0,0,8,8,130,,,,,,,,,,,,,,,,,,,,,,,89,9,1,301,1.287595187,-2.142918252,131,Experiment,,,,,,,,,15,140,-9,-9,,,,,,,,,,,,,,,328.5957702,329.1048716,328.5957702,329.1048716,87.75510204,1575479116,1575479127,11.38290095,1575479113,1575479116,,,S8,1,47,m,expert radiologist,2019_Dec_04_1101,AdjustEyeTrack,3.1.5,59.82063811
5,Stimuli/Morph5.JPG,Stimuli/Morph5.png,Stimuli/BlurLevel5/BlurEditedMorph5,Stimuli/BlurLevel5/BlurEditedMorph5.png,Stimuli/BlurLevel5/NumberedMorphs/BlurEditedMorph5.png,Stimuli/BlurLevel5/OriginalBlur/BlurEditedMorph5.png,Stimuli/BlurMorphTrio/EditedMorph5.png,010011right.gif,Stimuli/normal_thumbnails/5right.gif,,,,,0,0,0,0,0,9,9,4,,,,,,,,,,,,,,,,,,,,,,,23,10,1,67,0.976827821,2.301262134,5,Experiment,,,,,,,,,59,5,0,0,,,,,,,,,,,,,,,342.4260512,342.920457,342.4260512,342.920457,100,1575479130,1575479133,3.53169179,1575479127,1575479130,,,S8,1,47,m,expert radiologist,2019_Dec_04_1101,AdjustEyeTrack,3.1.5,59.82063811
122,Stimuli/Morph122.JPG,Stimuli/Morph122.png,Stimuli/BlurLevel5/BlurEditedMorph122,Stimuli/BlurLevel5/BlurEditedMorph122.png,Stimuli/BlurLevel5/NumberedMorphs/BlurEditedMorph122.png,Stimuli/BlurLevel5/OriginalBlur/BlurEditedMorph122.png,Stimuli/BlurMorphTrio/EditedMorph122.png,None,None,,,,,0,0,0,0,0,10,10,121,,,,,,,,,,,,,,,,,,,,,,,69,11,1,82,0.347932752,2.475670172,122,Experiment,,,,,,,,,58,12,110,-37,,,,,,,,,,,,,,,348.9773831,349.4705377,348.9773831,349.4705377,49.65986395,1575479136,1575479139,3.316788912,1575479133,1575479136,,,S8,1,47,m,expert radiologist,2019_Dec_04_1101,AdjustEyeTrack,3.1.5,59.82063811
108,Stimuli/Morph108.JPG,Stimuli/Morph108.png,Stimuli/BlurLevel5/BlurEditedMorph108,Stimuli/BlurLevel5/BlurEditedMorph108.png,Stimuli/BlurLevel5/NumberedMorphs/BlurEditedMorph108.png,Stimuli/BlurLevel5/OriginalBlur/BlurEditedMorph108.png,Stimuli/BlurMorphTrio/EditedMorph108.png,None,None,,,,,0,0,0,0,0,11,11,107,,,,,,,,,,,,,,,,,,,,,,,16,12,1,89,0.043631016,2.499619238,108,Experiment,,,,,,,,,94,112,-4,-4,,,,,,,,,,,,,,,355.1879083,355.6879218,355.1879083,355.6879218,94.55782313,1575479142,1575479148,5.683295965,1575479140,1575479142,,,S8,1,47,m,expert radiologist,2019_Dec_04_1101,AdjustEyeTrack,3.1.5,59.82063811
126,Stimuli/Morph126.JPG,Stimuli/Morph126.png,Stimuli/BlurLevel5/BlurEditedMorph126,Stimuli/BlurLevel5/BlurEditedMorph126.png,Stimuli/BlurLevel5/NumberedMorphs/BlurEditedMorph126.png,Stimuli/BlurLevel5/OriginalBlur/BlurEditedMorph126.png,Stimuli/BlurMorphTrio/EditedMorph126.png,None,None,,,,,0,0,0,0,0,12,12,125,,,,,,,,,,,,,,,,,,,,,,,53,13,1,350,2.462019383,-0.434120444,126,Experiment,,,,,,,,,36,111,15,15,,,,,,,,,,,,,,,363.9590883,364.4733544,363.9590883,364.4733544,79.59183673,1575479151,1575479154,3.232711792,1575479148,1575479151,,,S8,1,47,m,expert radiologist,2019_Dec_04_1101,AdjustEyeTrack,3.1.5,59.82063811
30,Stimuli/Morph30.JPG,Stimuli/Morph30.png,Stimuli/BlurLevel5/BlurEditedMorph30,Stimuli/BlurLevel5/BlurEditedMorph30.png,Stimuli/BlurLevel5/NumberedMorphs/BlurEditedMorph30.png,Stimuli/BlurLevel5/OriginalBlur/BlurEditedMorph30.png,Stimuli/BlurMorphTrio/EditedMorph30.png,010076right.gif,Stimuli/normal_thumbnails/30right.gif,,,,,0,0,0,0,0,13,13,29,,,,,,,,,,,,,,,,,,,,,,,2,14,1,187,-2.481365379,-0.304673359,30,Experiment,,,,,,,,,134,32,-2,-2,,,,,,,,,,,,,,,369.8737627,370.386729,369.8737627,370.386729,97.27891156,1575479157,1575479161,3.763752222,1575479155,1575479157,,,S8,1,47,m,expert radiologist,2019_Dec_04_1101,AdjustEyeTrack,3.1.5,59.82063811
128,Stimuli/Morph128.JPG,Stimuli/Morph128.png,Stimuli/BlurLevel5/BlurEditedMorph128,Stimuli/BlurLevel5/BlurEditedMorph128.png,Stimuli/BlurLevel5/NumberedMorphs/BlurEditedMorph128.png,Stimuli/BlurLevel5/OriginalBlur/BlurEditedMorph128.png,Stimuli/BlurMorphTrio/EditedMorph128.png,None,None,,,,,0,0,0,0,0,14,14,127,,,,,,,,,,,,,,,,,,,,,,,41,15,1,190,-2.462019383,-0.434120444,128,Experiment,,,,,,,,,111,111,17,17,,,,,,,,,,,,,,,376.4207374,376.9197255,376.4207374,376.9197255,76.8707483,1575479164,1575479165,1.09992075,1575479161,1575479164,,,S8,1,47,m,expert radiologist,2019_Dec_04_1101,AdjustEyeTrack,3.1.5,59.82063811
80,Stimuli/Morph80.JPG,Stimuli/Morph80.png,Stimuli/BlurLevel5/BlurEditedMorph80,Stimuli/BlurLevel5/BlurEditedMorph80.png,Stimuli/BlurLevel5/NumberedMorphs/BlurEditedMorph80.png,Stimuli/BlurLevel5/OriginalBlur/BlurEditedMorph80.png,Stimuli/BlurMorphTrio/EditedMorph80.png,020240right.gif,Stimuli/normal_thumbnails/80right.gif,,,,,0,0,0,0,0,15,15,79,,,,,,,,,,,,,,,,,,,,,,,35,16,1,100,-0.434120444,2.462019383,80,Experiment,,,,,,,,,55,72,8,8,,,,,,,,,,,,,,,380.2697802,380.7863526,380.2697802,380.7863526,89.11564626,1575479167,1575479180,12.28266764,1575479165,1575479167,,,S8,1,47,m,expert radiologist,2019_Dec_04_1101,AdjustEyeTrack,3.1.5,59.82063811
138,Stimuli/Morph138.JPG,Stimuli/Morph138.png,Stimuli/BlurLevel5/BlurEditedMorph138,Stimuli/BlurLevel5/BlurEditedMorph138.png,Stimuli/BlurLevel5/NumberedMorphs/BlurEditedMorph138.png,Stimuli/BlurLevel5/OriginalBlur/BlurEditedMorph138.png,Stimuli/BlurMorphTrio/EditedMorph138.png,None,None,,,,,0,0,0,0,0,16,16,137,,,,,,,,,,,,,,,,,,,,,,,45,17,1,237,-1.361597588,-2.09667642,138,Experiment,,,,,,,,,42,31,107,-40,,,,,,,,,,,,,,,394.9208226,395.4195399,394.9208226,395.4195399,45.57823129,1575479182,1575479192,9.433410883,1575479180,1575479182,,,S8,1,47,m,expert radiologist,2019_Dec_04_1101,AdjustEyeTrack,3.1.5,59.82063811
124,Stimuli/Morph124.JPG,Stimuli/Morph124.png,Stimuli/BlurLevel5/BlurEditedMorph124,Stimuli/BlurLevel5/BlurEditedMorph124.png,Stimuli/BlurLevel5/NumberedMorphs/BlurEditedMorph124.png,Stimuli/BlurLevel5/OriginalBlur/BlurEditedMorph124.png,Stimuli/BlurMorphTrio/EditedMorph124.png,None,None,,,,,0,0,0,0,0,17,17,123,,,,,,,,,,,,,,,,,,,,,,,27,18,1,227,-1.7049959,-1.828384254,124,Experiment,,,,,,,,,141,105,19,19,,,,,,,,,,,,,,,406.8377599,407.3365865,406.8377599,407.3365865,74.14965986,1575479194,1575479198,4.436342955,1575479192,1575479194,,,S8,1,47,m,expert radiologist,2019_Dec_04_1101,AdjustEyeTrack,3.1.5,59.82063811
63,Stimuli/Morph63.JPG,Stimuli/Morph63.png,Stimuli/BlurLevel5/BlurEditedMorph63,Stimuli/BlurLevel5/BlurEditedMorph63.png,Stimuli/BlurLevel5/NumberedMorphs/BlurEditedMorph63.png,Stimuli/BlurLevel5/OriginalBlur/BlurEditedMorph63.png,Stimuli/BlurMorphTrio/EditedMorph63.png,020206right.gif,Stimuli/normal_thumbnails/63right.gif,,,,,0,0,0,0,0,18,18,62,,,,,,,,,,,,,,,,,,,,,,,1,19,1,210,-2.165063509,-1.25,63,Experiment,,,,,,,,,105,66,-3,-3,,,,,,,,,,,,,,,413.2386656,413.738147,413.2386656,413.738147,95.91836735,1575479200,1575479204,3.499443769,1575479199,1575479200,,,S8,1,47,m,expert radiologist,2019_Dec_04_1101,AdjustEyeTrack,3.1.5,59.82063811
56,Stimuli/Morph56.JPG,Stimuli/Morph56.png,Stimuli/BlurLevel5/BlurEditedMorph56,Stimuli/BlurLevel5/BlurEditedMorph56.png,Stimuli/BlurLevel5/NumberedMorphs/BlurEditedMorph56.png,Stimuli/BlurLevel5/OriginalBlur/BlurEditedMorph56.png,Stimuli/BlurMorphTrio/EditedMorph56.png,010157right.gif,Stimuli/normal_thumbnails/56right.gif,,,,,0,0,0,0,0,19,19,55,,,,,,,,,,,,,,,,,,,,,,,19,20,1,31,2.142918252,1.287595187,56,Experiment,,,,,,,,,25,83,-27,-27,,,,,,,,,,,,,,,419.6031295,420.102647,419.6031295,420.102647,63.26530612,1575479207,1575479213,6.599967241,1575479204,1575479207,,,S8,1,47,m,expert radiologist,2019_Dec_04_1101,AdjustEyeTrack,3.1.5,59.82063811
49,Stimuli/Morph49.JPG,Stimuli/Morph49.png,Stimuli/BlurLevel5/BlurEditedMorph49,Stimuli/BlurLevel5/BlurEditedMorph49.png,Stimuli/BlurLevel5/NumberedMorphs/BlurEditedMorph49.png,Stimuli/BlurLevel5/OriginalBlur/BlurEditedMorph49.png,Stimuli/BlurMorphTrio/EditedMorph49.png,010135right.gif,Stimuli/normal_thumbnails/49right.gif,,,,,0,0,0,0,0,20,20,48,,,,,,,,,,,,,,,,,,,,,,,25,21,1,30,2.165063509,1.25,49,Experiment,,,,,,,,,22,64,-15,-15,,,,,,,,,,,,,,,428.8899761,429.4046301,428.8899761,429.4046301,79.59183673,1575479216,1575479218,2.251074791,1575479214,1575479216,,,S8,1,47,m,expert radiologist,2019_Dec_04_1101,AdjustEyeTrack,3.1.5,59.82063811
114,Stimuli/Morph114.JPG,Stimuli/Morph114.png,Stimuli/BlurLevel5/BlurEditedMorph114,Stimuli/BlurLevel5/BlurEditedMorph114.png,Stimuli/BlurLevel5/NumberedMorphs/BlurEditedMorph114.png,Stimuli/BlurLevel5/OriginalBlur/BlurEditedMorph114.png,Stimuli/BlurMorphTrio/EditedMorph114.png,None,None,,,,,0,0,0,0,0,21,21,113,,,,,,,,,,,,,,,,,,,,,,,29,22,1,1,2.499619238,0.043631016,114,Experiment,,,,,,,,,28,92,22,22,,,,,,,,,,,,,,,434.2718737,434.770917,434.2718737,434.770917,70.06802721,1575479221,1575479224,2.783049107,1575479219,1575479221,,,S8,1,47,m,expert radiologist,2019_Dec_04_1101,AdjustEyeTrack,3.1.5,59.82063811
45,Stimuli/Morph45.JPG,Stimuli/Morph45.png,Stimuli/BlurLevel5/BlurEditedMorph45,Stimuli/BlurLevel5/BlurEditedMorph45.png,Stimuli/BlurLevel5/NumberedMorphs/BlurEditedMorph45.png,Stimuli/BlurLevel5/OriginalBlur/BlurEditedMorph45.png,Stimuli/BlurMorphTrio/EditedMorph45.png,010127right.gif,Stimuli/normal_thumbnails/45right.gif,,,,,0,0,0,0,0,22,22,44,,,,,,,,,,,,,,,,,,,,,,,24,23,1,199,-2.363796439,-0.813920386,45,Experiment,,,,,,,,,76,46,-1,-1,,,,,,,,,,,,,,,439.9529742,440.453115,439.9529742,440.453115,98.63945578,1575479227,1575479235,7.382296801,1575479225,1575479227,,,S8,1,47,m,expert radiologist,2019_Dec_04_1101,AdjustEyeTrack,3.1.5,59.82063811
32,Stimuli/Morph32.JPG,Stimuli/Morph32.png,Stimuli/BlurLevel5/BlurEditedMorph32,Stimuli/BlurLevel5/BlurEditedMorph32.png,Stimuli/BlurLevel5/NumberedMorphs/BlurEditedMorph32.png,Stimuli/BlurLevel5/OriginalBlur/BlurEditedMorph32.png,Stimuli/BlurMorphTrio/EditedMorph32.png,010080right.gif,Stimuli/normal_thumbnails/32right.gif,,,,,0,0,0,0,0,23,23,31,,,,,,,,,,,,,,,,,,,,,,,49,24,1,291,0.895919874,-2.333951066,32,Experiment,,,,,,,,,105,31,1,1,,,,,,,,,,,,,,,450.1770139,450.6853807,450.1770139,450.6853807,98.63945578,1575479237,1575479241,4.0335958,1575479235,1575479237,,,S8,1,47,m,expert radiologist,2019_Dec_04_1101,AdjustEyeTrack,3.1.5,59.82063811
84,Stimuli/Morph84.JPG,Stimuli/Morph84.png,Stimuli/BlurLevel5/BlurEditedMorph84,Stimuli/BlurLevel5/BlurEditedMorph84.png,Stimuli/BlurLevel5/NumberedMorphs/BlurEditedMorph84.png,Stimuli/BlurLevel5/OriginalBlur/BlurEditedMorph84.png,Stimuli/BlurMorphTrio/EditedMorph84.png,020261right.gif,Stimuli/normal_thumbnails/84right.gif,,,,,0,0,0,0,0,24,24,83,,,,,,,,,,,,,,,,,,,,,,,76,25,1,215,-2.047880111,-1.433941091,84,Experiment,,,,,,,,,144,90,-6,-6,,,,,,,,,,,,,,,456.5238287,457.0183149,456.5238287,457.0183149,91.83673469,1575479244,1575479248,3.782966614,1575479242,1575479244,,,S8,1,47,m,expert radiologist,2019_Dec_04_1101,AdjustEyeTrack,3.1.5,59.82063811
35,Stimuli/Morph35.JPG,Stimuli/Morph35.png,Stimuli/BlurLevel5/BlurEditedMorph35,Stimuli/BlurLevel5/BlurEditedMorph35.png,Stimuli/BlurLevel5/NumberedMorphs/BlurEditedMorph35.png,Stimuli/BlurLevel5/OriginalBlur/BlurEditedMorph35.png,Stimuli/BlurMorphTrio/EditedMorph35.png,010094right.gif,Stimuli/normal_thumbnails/35right.gif,,,,,0,0,0,0,0,25,25,34,,,,,,,,,,,,,,,,,,,,,,,94,26,1,265,-0.217889357,-2.490486745,35,Experiment,,,,,,,,,129,38,-3,-3,,,,,,,,,,,,,,,462.9281815,463.4346747,462.9281815,463.4346747,95.91836735,1575479250,1575479253,2.965490103,1575479248,1575479250,,,S8,1,47,m,expert radiologist,2019_Dec_04_1101,AdjustEyeTrack,3.1.5,59.82063811
64,Stimuli/Morph64.JPG,Stimuli/Morph64.png,Stimuli/BlurLevel5/BlurEditedMorph64,Stimuli/BlurLevel5/BlurEditedMorph64.png,Stimuli/BlurLevel5/NumberedMorphs/BlurEditedMorph64.png,Stimuli/BlurLevel5/OriginalBlur/BlurEditedMorph64.png,Stimuli/BlurMorphTrio/EditedMorph64.png,020208right.gif,Stimuli/normal_thumbnails/64right.gif,,,,,0,0,0,0,0,26,26,63,,,,,,,,,,,,,,,,,,,,,,,68,27,1,176,-2.493910126,0.174391184,64,Experiment,,,,,,,,,30,75,-11,-11,,,,,,,,,,,,,,,468.6704485,469.1769098,468.6704485,469.1769098,85.03401361,1575479256,1575479258,2.266407967,1575479253,1575479256,,,S8,1,47,m,expert radiologist,2019_Dec_04_1101,AdjustEyeTrack,3.1.5,59.82063811
15,Stimuli/Morph15.JPG,Stimuli/Morph15.png,Stimuli/BlurLevel5/BlurEditedMorph15,Stimuli/BlurLevel5/BlurEditedMorph15.png,Stimuli/BlurLevel5/NumberedMorphs/BlurEditedMorph15.png,Stimuli/BlurLevel5/OriginalBlur/BlurEditedMorph15.png,Stimuli/BlurMorphTrio/EditedMorph15.png,010031right.gif,Stimuli/normal_thumbnails/15right.gif,,,,,0,0,0,0,0,27,27,14,,,,,,,,,,,,,,,,,,,,,,,79,28,1,57,1.361597588,2.09667642,15,Experiment,,,,,,,,,95,22,-7,-7,,,,,,,,,,,,,,,473.603772,474.1019359,473.603772,474.1019359,90.47619048,1575479261,1575479266,5.666578054,1575479258,1575479261,,,S8,1,47,m,expert radiologist,2019_Dec_04_1101,AdjustEyeTrack,3.1.5,59.82063811
8,Stimuli/Morph8.JPG,Stimuli/Morph8.png,Stimuli/BlurLevel5/BlurEditedMorph8,Stimuli/BlurLevel5/BlurEditedMorph8.png,Stimuli/BlurLevel5/NumberedMorphs/BlurEditedMorph8.png,Stimuli/BlurLevel5/OriginalBlur/BlurEditedMorph8.png,Stimuli/BlurMorphTrio/EditedMorph8.png,010014right.gif,Stimuli/normal_thumbnails/8right.gif,,,,,0,0,0,0,0,28,28,7,,,,,,,,,,,,,,,,,,,,,,,92,29,1,110,-0.855050358,2.349231552,8,Experiment,,,,,,,,,136,26,-18,-18,,,,,,,,,,,,,,,482.6976976,483.2187117,482.6976976,483.2187117,75.51020408,1575479270,1575479276,6.299943924,1575479267,1575479270,,,S8,1,47,m,expert radiologist,2019_Dec_04_1101,AdjustEyeTrack,3.1.5,59.82063811
145,Stimuli/Morph145.JPG,Stimuli/Morph145.png,Stimuli/BlurLevel5/BlurEditedMorph145,Stimuli/BlurLevel5/BlurEditedMorph145.png,Stimuli/BlurLevel5/NumberedMorphs/BlurEditedMorph145.png,Stimuli/BlurLevel5/OriginalBlur/BlurEditedMorph145.png,Stimuli/BlurMorphTrio/EditedMorph145.png,None,None,,,,,0,0,0,0,0,29,29,144,,,,,,,,,,,,,,,,,,,,,,,98,30,1,326,2.072593931,-1.397982259,145,Experiment,,,,,,,,,71,3,142,-5,,,,,,,,,,,,,,,492.0955906,492.6196127,492.0955906,492.6196127,93.19727891,1575479279,1575479282,2.982990742,1575479276,1575479279,,,S8,1,47,m,expert radiologist,2019_Dec_04_1101,AdjustEyeTrack,3.1.5,59.82063811
66,Stimuli/Morph66.JPG,Stimuli/Morph66.png,Stimuli/BlurLevel5/BlurEditedMorph66,Stimuli/BlurLevel5/BlurEditedMorph66.png,Stimuli/BlurLevel5/NumberedMorphs/BlurEditedMorph66.png,Stimuli/BlurLevel5/OriginalBlur/BlurEditedMorph66.png,Stimuli/BlurMorphTrio/EditedMorph66.png,020212right.gif,Stimuli/normal_thumbnails/66right.gif,,,,,0,0,0,0,0,30,30,65,,,,,,,,,,,,,,,,,,,,,,,12,31,1,18,2.377641291,0.772542486,66,Experiment,,,,,,,,,85,76,-10,-10,,,,,,,,,,,,,,,498.4782459,498.9847732,498.4782459,498.9847732,86.39455782,1575479286,1575479291,5.168006897,1575479283,1575479286,,,S8,1,47,m,expert radiologist,2019_Dec_04_1101,AdjustEyeTrack,3.1.5,59.82063811
2,Stimuli/Morph2.JPG,Stimuli/Morph2.png,Stimuli/BlurLevel5/BlurEditedMorph2,Stimuli/BlurLevel5/BlurEditedMorph2.png,Stimuli/BlurLevel5/NumberedMorphs/BlurEditedMorph2.png,Stimuli/BlurLevel5/OriginalBlur/BlurEditedMorph2.png,Stimuli/BlurMorphTrio/EditedMorph2.png,010006right.gif,Stimuli/normal_thumbnails/2right.gif,,,,,0,0,0,0,0,31,31,1,,,,,,,,,,,,,,,,,,,,,,,64,32,1,105,-0.647047613,2.414814566,2,Experiment,,,,,,,,,9,131,-129,18,,,,,,,,,,,,,,,506.252746,506.7510252,506.252746,506.7510252,75.51020408,1575479293,1575479304,10.82475209,1575479291,1575479293,,,S8,1,47,m,expert radiologist,2019_Dec_04_1101,AdjustEyeTrack,3.1.5,59.82063811
23,Stimuli/Morph23.JPG,Stimuli/Morph23.png,Stimuli/BlurLevel5/BlurEditedMorph23,Stimuli/BlurLevel5/BlurEditedMorph23.png,Stimuli/BlurLevel5/NumberedMorphs/BlurEditedMorph23.png,Stimuli/BlurLevel5/OriginalBlur/BlurEditedMorph23.png,Stimuli/BlurMorphTrio/EditedMorph23.png,010063right.gif,Stimuli/normal_thumbnails/23right.gif,,,,,0,0,0,0,0,32,32,22,,,,,,,,,,,,,,,,,,,,,,,14,33,1,66,1.016841608,2.283863644,23,Experiment,,,,,,,,,106,25,-2,-2,,,,,,,,,,,,,,,519.9200502,520.4350172,519.9200502,520.4350172,97.27891156,1575479307,1575479310,2.366969824,1575479305,1575479307,,,S8,1,47,m,expert radiologist,2019_Dec_04_1101,AdjustEyeTrack,3.1.5,59.82063811
33,Stimuli/Morph33.JPG,Stimuli/Morph33.png,Stimuli/BlurLevel5/BlurEditedMorph33,Stimuli/BlurLevel5/BlurEditedMorph33.png,Stimuli/BlurLevel5/NumberedMorphs/BlurEditedMorph33.png,Stimuli/BlurLevel5/OriginalBlur/BlurEditedMorph33.png,Stimuli/BlurMorphTrio/EditedMorph33.png,010089right.gif,Stimuli/normal_thumbnails/33right.gif,,,,,0,0,0,0,0,33,33,32,,,,,,,,,,,,,,,,,,,,,,,93,34,1,227,-1.7049959,-1.828384254,33,Experiment,,,,,,,,,101,35,-2,-2,,,,,,,,,,,,,,,525.7407071,526.2849639,525.7407071,526.2849639,97.27891156,1575479313,1575479317,4.416986227,1575479310,1575479313,,,S8,1,47,m,expert radiologist,2019_Dec_04_1101,AdjustEyeTrack,3.1.5,59.82063811
59,Stimuli/Morph59.JPG,Stimuli/Morph59.png,Stimuli/BlurLevel5/BlurEditedMorph59,Stimuli/BlurLevel5/BlurEditedMorph59.png,Stimuli/BlurLevel5/NumberedMorphs/BlurEditedMorph59.png,Stimuli/BlurLevel5/OriginalBlur/BlurEditedMorph59.png,Stimuli/BlurMorphTrio/EditedMorph59.png,010160right.gif,Stimuli/normal_thumbnails/59right.gif,,,,,0,0,0,0,0,34,34,58,,,,,,,,,,,,,,,,,,,,,,,45,35,1,126,-1.469463131,2.022542486,59,Experiment,,,,,,,,,23,45,14,14,,,,,,,,,,,,,,,532.602356,533.1182697,532.602356,533.1182697,80.95238095,1575479320,1575479322,1.683563709,1575479318,1575479320,,,S8,1,47,m,expert radiologist,2019_Dec_04_1101,AdjustEyeTrack,3.1.5,59.82063811
100,Stimuli/Morph100.JPG,Stimuli/Morph100.png,Stimuli/BlurLevel5/BlurEditedMorph100,Stimuli/BlurLevel5/BlurEditedMorph100.png,Stimuli/BlurLevel5/NumberedMorphs/BlurEditedMorph100.png,Stimuli/BlurLevel5/OriginalBlur/BlurEditedMorph100.png,Stimuli/BlurMorphTrio/EditedMorph100.png,020297right.gif,Stimuli/normal_thumbnails/100right.gif,,,,,0,0,0,0,0,35,35,99,,,,,,,,,,,,,,,,,,,,,,,93,36,1,295,1.056545654,-2.265769468,100,Experiment,,,,,,,,,14,89,11,11,,,,,,,,,,,,,,,537.330488,537.851212,537.330488,537.851212,85.03401361,1575479325,1575479330,5.434008598,1575479322,1575479325,,,S8,1,47,m,expert radiologist,2019_Dec_04_1101,AdjustEyeTrack,3.1.5,59.82063811
11,Stimuli/Morph11.JPG,Stimuli/Morph11.png,Stimuli/BlurLevel5/BlurEditedMorph11,Stimuli/BlurLevel5/BlurEditedMorph11.png,Stimuli/BlurLevel5/NumberedMorphs/BlurEditedMorph11.png,Stimuli/BlurLevel5/OriginalBlur/BlurEditedMorph11.png,Stimuli/BlurMorphTrio/EditedMorph11.png,010024right.gif,Stimuli/normal_thumbnails/11right.gif,,,,,0,0,0,0,0,36,36,10,,,,,,,,,,,,,,,,,,,,,,,99,37,1,132,-1.672826516,1.857862064,11,Experiment,,,,,,,,,75,16,-5,-5,,,,,,,,,,,,,,,545.151265,545.6676247,545.151265,545.6676247,93.19727891,1575479332,1575479338,5.250460148,1575479330,1575479332,,,S8,1,47,m,expert radiologist,2019_Dec_04_1101,AdjustEyeTrack,3.1.5,59.82063811
71,Stimuli/Morph71.JPG,Stimuli/Morph71.png,Stimuli/BlurLevel5/BlurEditedMorph71,Stimuli/BlurLevel5/BlurEditedMorph71.png,Stimuli/BlurLevel5/NumberedMorphs/BlurEditedMorph71.png,Stimuli/BlurLevel5/OriginalBlur/BlurEditedMorph71.png,Stimuli/BlurMorphTrio/EditedMorph71.png,020225right.gif,Stimuli/normal_thumbnails/71right.gif,,,,,0,0,0,0,0,37,37,70,,,,,,,,,,,,,,,,,,,,,,,66,38,1,304,1.397982259,-2.072593931,71,Experiment,,,,,,,,,122,76,-5,-5,,,,,,,,,,,,,,,553.101278,553.6183577,553.101278,553.6183577,93.19727891,1575479340,1575479346,5.998422861,1575479338,1575479340,,,S8,1,47,m,expert radiologist,2019_Dec_04_1101,AdjustEyeTrack,3.1.5,59.82063811
76,Stimuli/Morph76.JPG,Stimuli/Morph76.png,Stimuli/BlurLevel5/BlurEditedMorph76,Stimuli/BlurLevel5/BlurEditedMorph76.png,Stimuli/BlurLevel5/NumberedMorphs/BlurEditedMorph76.png,Stimuli/BlurLevel5/OriginalBlur/BlurEditedMorph76.png,Stimuli/BlurMorphTrio/EditedMorph76.png,020234right.gif,Stimuli/normal_thumbnails/76right.gif,,,,,0,0,0,0,0,38,38,75,,,,,,,,,,,,,,,,,,,,,,,99,39,1,339,2.333951066,-0.895919874,76,Experiment,,,,,,,,,8,73,3,3,,,,,,,,,,,,,,,561.3763101,561.901237,561.3763101,561.901237,95.91836735,1575479349,1575479355,6.533402205,1575479347,1575479349,,,S8,1,47,m,expert radiologist,2019_Dec_04_1101,AdjustEyeTrack,3.1.5,59.82063811
42,Stimuli/Morph42.JPG,Stimuli/Morph42.png,Stimuli/BlurLevel5/BlurEditedMorph42,Stimuli/BlurLevel5/BlurEditedMorph42.png,Stimuli/BlurLevel5/NumberedMorphs/BlurEditedMorph42.png,Stimuli/BlurLevel5/OriginalBlur/BlurEditedMorph42.png,Stimuli/BlurMorphTrio/EditedMorph42.png,010121right.gif,Stimuli/normal_thumbnails/42right.gif,,,,,0,0,0,0,0,39,39,41,,,,,,,,,,,,,,,,,,,,,,,86,40,1,323,1.996588775,-1.504537558,42,Experiment,,,,,,,,,73,67,-25,-25,,,,,,,,,,,,,,,570.6011182,571.1167455,570.6011182,571.1167455,65.98639456,1575479358,1575479366,7.751111984,1575479355,1575479358,,,S8,1,47,m,expert radiologist,2019_Dec_04_1101,AdjustEyeTrack,3.1.5,59.82063811
98,Stimuli/Morph98.JPG,Stimuli/Morph98.png,Stimuli/BlurLevel5/BlurEditedMorph98,Stimuli/BlurLevel5/BlurEditedMorph98.png,Stimuli/BlurLevel5/NumberedMorphs/BlurEditedMorph98.png,Stimuli/BlurLevel5/OriginalBlur/BlurEditedMorph98.png,Stimuli/BlurMorphTrio/EditedMorph98.png,020298right.gif,Stimuli/normal_thumbnails/98right.gif,,,,,0,0,0,0,0,40,40,97,,,,,,,,,,,,,,,,,,,,,,,70,41,1,176,-2.493910126,0.174391184,98,Experiment,,,,,,,,,99,99,-1,-1,,,,,,,,,,,,,,,580.7013419,581.2164033,580.7013419,581.2164033,98.63945578,1575479368,1575479369,1.332080841,1575479366,1575479368,,,S8,1,47,m,expert radiologist,2019_Dec_04_1101,AdjustEyeTrack,3.1.5,59.82063811
109,Stimuli/Morph109.JPG,Stimuli/Morph109.png,Stimuli/BlurLevel5/BlurEditedMorph109,Stimuli/BlurLevel5/BlurEditedMorph109.png,Stimuli/BlurLevel5/NumberedMorphs/BlurEditedMorph109.png,Stimuli/BlurLevel5/OriginalBlur/BlurEditedMorph109.png,Stimuli/BlurMorphTrio/EditedMorph109.png,None,None,,,,,0,0,0,0,0,41,41,108,,,,,,,,,,,,,,,,,,,,,,,69,42,1,313,1.7049959,-1.828384254,109,Experiment,,,,,,,,,133,98,11,11,,,,,,,,,,,,,,,584.9638061,585.483948,584.9638061,585.483948,85.03401361,1575479372,1575479375,3.217430115,1575479370,1575479372,,,S8,1,47,m,expert radiologist,2019_Dec_04_1101,AdjustEyeTrack,3.1.5,59.82063811
143,Stimuli/Morph143.JPG,Stimuli/Morph143.png,Stimuli/BlurLevel5/BlurEditedMorph143,Stimuli/BlurLevel5/BlurEditedMorph143.png,Stimuli/BlurLevel5/NumberedMorphs/BlurEditedMorph143.png,Stimuli/BlurLevel5/OriginalBlur/BlurEditedMorph143.png,Stimuli/BlurMorphTrio/EditedMorph143.png,None,None,,,,,0,0,0,0,0,42,42,142,,,,,,,,,,,,,,,,,,,,,,,77,43,1,2,2.498477068,0.087248742,143,Experiment,,,,,,,,,25,143,0,0,,,,,,,,,,,,,,,590.9698203,591.475637,590.9698203,591.475637,100,1575479378,1575479388,9.799526215,1575479376,1575479378,,,S8,1,47,m,expert radiologist,2019_Dec_04_1101,AdjustEyeTrack,3.1.5,59.82063811
123,Stimuli/Morph123.JPG,Stimuli/Morph123.png,Stimuli/BlurLevel5/BlurEditedMorph123,Stimuli/BlurLevel5/BlurEditedMorph123.png,Stimuli/BlurLevel5/NumberedMorphs/BlurEditedMorph123.png,Stimuli/BlurLevel5/OriginalBlur/BlurEditedMorph123.png,Stimuli/BlurMorphTrio/EditedMorph123.png,None,None,,,,,0,0,0,0,0,43,43,122,,,,,,,,,,,,,,,,,,,,,,,44,44,1,67,0.976827821,2.301262134,123,Experiment,,,,,,,,,61,4,119,-28,,,,,,,,,,,,,,,603.4839248,603.9835416,603.4839248,603.9835416,61.9047619,1575479391,1575479397,6.167501688,1575479388,1575479391,,,S8,1,47,m,expert radiologist,2019_Dec_04_1101,AdjustEyeTrack,3.1.5,59.82063811
111,Stimuli/Morph111.JPG,Stimuli/Morph111.png,Stimuli/BlurLevel5/BlurEditedMorph111,Stimuli/BlurLevel5/BlurEditedMorph111.png,Stimuli/BlurLevel5/NumberedMorphs/BlurEditedMorph111.png,Stimuli/BlurLevel5/OriginalBlur/BlurEditedMorph111.png,Stimuli/BlurMorphTrio/EditedMorph111.png,None,None,,,,,0,0,0,0,0,44,44,110,,,,,,,,,,,,,,,,,,,,,,,42,45,1,224,-1.798349501,-1.736645926,111,Experiment,,,,,,,,,73,91,20,20,,,,,,,,,,,,,,,612.9862081,613.5006189,612.9862081,613.5006189,72.78911565,1575479400,1575479403,2.850319862,1575479397,1575479400,,,S8,1,47,m,expert radiologist,2019_Dec_04_1101,AdjustEyeTrack,3.1.5,59.82063811
86,Stimuli/Morph86.JPG,Stimuli/Morph86.png,Stimuli/BlurLevel5/BlurEditedMorph86,Stimuli/BlurLevel5/BlurEditedMorph86.png,Stimuli/BlurLevel5/NumberedMorphs/BlurEditedMorph86.png,Stimuli/BlurLevel5/OriginalBlur/BlurEditedMorph86.png,Stimuli/BlurMorphTrio/EditedMorph86.png,020266right.gif,Stimuli/normal_thumbnails/86right.gif,,,,,0,0,0,0,0,45,45,85,,,,,,,,,,,,,,,,,,,,,,,22,46,1,316,1.798349501,-1.736645926,86,Experiment,,,,,,,,,112,95,-9,-9,,,,,,,,,,,,,,,618.3188041,618.816757,618.3188041,618.816757,87.75510204,1575479406,1575479410,4.722424984,1575479403,1575479406,,,S8,1,47,m,expert radiologist,2019_Dec_04_1101,AdjustEyeTrack,3.1.5,59.82063811
146,Stimuli/Morph146.JPG,Stimuli/Morph146.png,Stimuli/BlurLevel5/BlurEditedMorph146,Stimuli/BlurLevel5/BlurEditedMorph146.png,Stimuli/BlurLevel5/NumberedMorphs/BlurEditedMorph146.png,Stimuli/BlurLevel5/OriginalBlur/BlurEditedMorph146.png,Stimuli/BlurMorphTrio/EditedMorph146.png,None,None,,,,,0,0,0,0,0,46,46,145,,,,,,,,,,,,,,,,,,,,,,,58,47,1,88,0.087248742,2.498477068,146,Experiment,,,,,,,,,5,3,143,-4,,,,,,,,,,,,,,,625.8033939,626.2996552,625.8033939,626.2996552,94.55782313,1575479413,1575479416,2.902400017,1575479411,1575479413,,,S8,1,47,m,expert radiologist,2019_Dec_04_1101,AdjustEyeTrack,3.1.5,59.82063811
72,Stimuli/Morph72.JPG,Stimuli/Morph72.png,Stimuli/BlurLevel5/BlurEditedMorph72,Stimuli/BlurLevel5/BlurEditedMorph72.png,Stimuli/BlurLevel5/NumberedMorphs/BlurEditedMorph72.png,Stimuli/BlurLevel5/OriginalBlur/BlurEditedMorph72.png,Stimuli/BlurMorphTrio/EditedMorph72.png,020227right.gif,Stimuli/normal_thumbnails/72right.gif,,,,,0,0,0,0,0,47,47,71,,,,,,,,,,,,,,,,,,,,,,,99,48,1,108,-0.772542486,2.377641291,72,Experiment,,,,,,,,,112,70,2,2,,,,,,,,,,,,,,,631.0502902,631.5491804,631.0502902,631.5491804,97.27891156,1575479418,1575479427,8.415850878,1575479416,1575479418,,,S8,1,47,m,expert radiologist,2019_Dec_04_1101,AdjustEyeTrack,3.1.5,59.82063811
147,Stimuli/Morph147.JPG,Stimuli/Morph147.png,Stimuli/BlurLevel5/BlurEditedMorph147,Stimuli/BlurLevel5/BlurEditedMorph147.png,Stimuli/BlurLevel5/NumberedMorphs/BlurEditedMorph147.png,Stimuli/BlurLevel5/OriginalBlur/BlurEditedMorph147.png,Stimuli/BlurMorphTrio/EditedMorph147.png,None,None,,,,,0,0,0,0,0,48,48,146,,,,,,,,,,,,,,,,,,,,,,,7,49,1,134,-1.736645926,1.798349501,147,Experiment,,,,,,,,,99,4,143,-4,,,,,,,,,,,,,,,641.8664517,642.3661449,641.8664517,642.3661449,94.55782313,1575479429,1575479436,6.95016408,1575479427,1575479429,,,S8,1,47,m,expert radiologist,2019_Dec_04_1101,AdjustEyeTrack,3.1.5,59.82063811
75,Stimuli/Morph75.JPG,Stimuli/Morph75.png,Stimuli/BlurLevel5/BlurEditedMorph75,Stimuli/BlurLevel5/BlurEditedMorph75.png,Stimuli/BlurLevel5/NumberedMorphs/BlurEditedMorph75.png,Stimuli/BlurLevel5/OriginalBlur/BlurEditedMorph75.png,Stimuli/BlurMorphTrio/EditedMorph75.png,020233right.gif,Stimuli/normal_thumbnails/75right.gif,,,,,0,0,0,0,0,49,49,74,,,,,,,,,,,,,,,,,,,,,,,78,50,1,114,-1.016841608,2.283863644,75,Experiment,,,,,,,,,137,75,0,0,,,,,,,,,,,,,,,651.2517381,651.765628,651.2517381,651.765628,100,1575479438,1575479448,9.132101774,1575479436,1575479438,,,S8,1,47,m,expert radiologist,2019_Dec_04_1101,AdjustEyeTrack,3.1.5,59.82063811
140,Stimuli/Morph140.JPG,Stimuli/Morph140.png,Stimuli/BlurLevel5/BlurEditedMorph140,Stimuli/BlurLevel5/BlurEditedMorph140.png,Stimuli/BlurLevel5/NumberedMorphs/BlurEditedMorph140.png,Stimuli/BlurLevel5/OriginalBlur/BlurEditedMorph140.png,Stimuli/BlurMorphTrio/EditedMorph140.png,None,None,,,,,0,0,0,0,0,50,50,139,,,,,,,,,,,,,,,,,,,,,,,100,51,1,67,0.976827821,2.301262134,140,Experiment,,,,,,,,,67,1,139,-8,,,,,,,,,,,,,,,663.1271028,663.6328353,663.1271028,663.6328353,89.11564626,1575479450,1575479459,8.383508921,1575479448,1575479450,,,S8,1,47,m,expert radiologist,2019_Dec_04_1101,AdjustEyeTrack,3.1.5,59.82063811
73,Stimuli/Morph73.JPG,Stimuli/Morph73.png,Stimuli/BlurLevel5/BlurEditedMorph73,Stimuli/BlurLevel5/BlurEditedMorph73.png,Stimuli/BlurLevel5/NumberedMorphs/BlurEditedMorph73.png,Stimuli/BlurLevel5/OriginalBlur/BlurEditedMorph73.png,Stimuli/BlurMorphTrio/EditedMorph73.png,020230right.gif,Stimuli/normal_thumbnails/73right.gif,,,,,0,0,0,0,0,51,51,72,,,,,,,,,,,,,,,,,,,,,,,48,52,1,227,-1.7049959,-1.828384254,73,Experiment,,,,,,,,,24,76,-3,-3,,,,,,,,,,,,,,,674.2392114,674.7324475,674.2392114,674.7324475,95.91836735,1575479461,1575479468,6.4491539,1575479459,1575479461,,,S8,1,47,m,expert radiologist,2019_Dec_04_1101,AdjustEyeTrack,3.1.5,59.82063811
20,Stimuli/Morph20.JPG,Stimuli/Morph20.png,Stimuli/BlurLevel5/BlurEditedMorph20,Stimuli/BlurLevel5/BlurEditedMorph20.png,Stimuli/BlurLevel5/NumberedMorphs/BlurEditedMorph20.png,Stimuli/BlurLevel5/OriginalBlur/BlurEditedMorph20.png,Stimuli/BlurMorphTrio/EditedMorph20.png,010046right.gif,Stimuli/normal_thumbnails/20right.gif,,,,,0,0,0,0,0,52,52,19,,,,,,,,,,,,,,,,,,,,,,,19,53,1,29,2.186549268,1.212024051,20,Experiment,,,,,,,,,121,29,-9,-9,,,,,,,,,,,,,,,683.724923,684.2513265,683.724923,684.2513265,87.75510204,1575479471,1575479474,3.401770115,1575479468,1575479471,,,S8,1,47,m,expert radiologist,2019_Dec_04_1101,AdjustEyeTrack,3.1.5,59.82063811
90,Stimuli/Morph90.JPG,Stimuli/Morph90.png,Stimuli/BlurLevel5/BlurEditedMorph90,Stimuli/BlurLevel5/BlurEditedMorph90.png,Stimuli/BlurLevel5/NumberedMorphs/BlurEditedMorph90.png,Stimuli/BlurLevel5/OriginalBlur/BlurEditedMorph90.png,Stimuli/BlurMorphTrio/EditedMorph90.png,020275right.gif,Stimuli/normal_thumbnails/90right.gif,,,,,0,0,0,0,0,53,53,89,,,,,,,,,,,,,,,,,,,,,,,92,54,1,19,2.363796439,0.813920386,90,Experiment,,,,,,,,,75,90,0,0,,,,,,,,,,,,,,,690.6224893,691.183458,690.6224893,691.183458,100,1575479478,1575479484,6.116941929,1575479475,1575479478,,,S8,1,47,m,expert radiologist,2019_Dec_04_1101,AdjustEyeTrack,3.1.5,59.82063811
6,Stimuli/Morph6.JPG,Stimuli/Morph6.png,Stimuli/BlurLevel5/BlurEditedMorph6,Stimuli/BlurLevel5/BlurEditedMorph6.png,Stimuli/BlurLevel5/NumberedMorphs/BlurEditedMorph6.png,Stimuli/BlurLevel5/OriginalBlur/BlurEditedMorph6.png,Stimuli/BlurMorphTrio/EditedMorph6.png,010012right.gif,Stimuli/normal_thumbnails/6right.gif,,,,,0,0,0,0,0,54,54,5,,,,,,,,,,,,,,,,,,,,,,,48,55,1,39,1.942864904,1.573300978,6,Experiment,,,,,,,,,27,3,3,3,,,,,,,,,,,,,,,699.2019105,699.7151122,699.2019105,699.7151122,95.91836735,1575479487,1575479491,4.200306892,1575479484,1575479487,,,S8,1,47,m,expert radiologist,2019_Dec_04_1101,AdjustEyeTrack,3.1.5,59.82063811
136,Stimuli/Morph136.JPG,Stimuli/Morph136.png,Stimuli/BlurLevel5/BlurEditedMorph136,Stimuli/BlurLevel5/BlurEditedMorph136.png,Stimuli/BlurLevel5/NumberedMorphs/BlurEditedMorph136.png,Stimuli/BlurLevel5/OriginalBlur/BlurEditedMorph136.png,Stimuli/BlurMorphTrio/EditedMorph136.png,None,None,,,,,0,0,0,0,0,55,55,135,,,,,,,,,,,,,,,,,,,,,,,98,56,1,254,-0.68909339,-2.40315424,136,Experiment,,,,,,,,,61,81,55,55,,,,,,,,,,,,,,,706.1225964,706.6348634,706.1225964,706.6348634,25.17006803,1575479493,1575479497,4.133723021,1575479491,1575479493,,,S8,1,47,m,expert radiologist,2019_Dec_04_1101,AdjustEyeTrack,3.1.5,59.82063811
60,Stimuli/Morph60.JPG,Stimuli/Morph60.png,Stimuli/BlurLevel5/BlurEditedMorph60,Stimuli/BlurLevel5/BlurEditedMorph60.png,Stimuli/BlurLevel5/NumberedMorphs/BlurEditedMorph60.png,Stimuli/BlurLevel5/OriginalBlur/BlurEditedMorph60.png,Stimuli/BlurMorphTrio/EditedMorph60.png,020200right.gif,Stimuli/normal_thumbnails/60right.gif,,,,,0,0,0,0,0,56,56,59,,,,,,,,,,,,,,,,,,,,,,,2,57,1,229,-1.640147572,-1.886773951,60,Experiment,,,,,,,,,10,75,-15,-15,,,,,,,,,,,,,,,712.6699414,713.1690366,712.6699414,713.1690366,79.59183673,1575479500,1575479507,7.448523998,1575479498,1575479500,,,S8,1,47,m,expert radiologist,2019_Dec_04_1101,AdjustEyeTrack,3.1.5,59.82063811
37,Stimuli/Morph37.JPG,Stimuli/Morph37.png,Stimuli/BlurLevel5/BlurEditedMorph37,Stimuli/BlurLevel5/BlurEditedMorph37.png,Stimuli/BlurLevel5/NumberedMorphs/BlurEditedMorph37.png,Stimuli/BlurLevel5/OriginalBlur/BlurEditedMorph37.png,Stimuli/BlurMorphTrio/EditedMorph37.png,010097right.gif,Stimuli/normal_thumbnails/37right.gif,,,,,0,0,0,0,0,57,57,36,,,,,,,,,,,,,,,,,,,,,,,22,58,1,20,2.349231552,0.855050358,37,Experiment,,,,,,,,,43,32,5,5,,,,,,,,,,,,,,,722.8746649,723.3986153,722.8746649,723.3986153,93.19727891,1575479510,1575479513,3.153828144,1575479508,1575479510,,,S8,1,47,m,expert radiologist,2019_Dec_04_1101,AdjustEyeTrack,3.1.5,59.82063811
29,Stimuli/Morph29.JPG,Stimuli/Morph29.png,Stimuli/BlurLevel5/BlurEditedMorph29,Stimuli/BlurLevel5/BlurEditedMorph29.png,Stimuli/BlurLevel5/NumberedMorphs/BlurEditedMorph29.png,Stimuli/BlurLevel5/OriginalBlur/BlurEditedMorph29.png,Stimuli/BlurMorphTrio/EditedMorph29.png,010074right.gif,Stimuli/normal_thumbnails/29right.gif,,,,,0,0,0,0,0,58,58,28,,,,,,,,,,,,,,,,,,,,,,,90,59,1,177,-2.496573837,0.130839891,29,Experiment,,,,,,,,,127,30,-1,-1,,,,,,,,,,,,,,,728.7622676,729.2821801,728.7622676,729.2821801,98.63945578,1575479516,1575479520,4.400213957,1575479514,1575479516,,,S8,1,47,m,expert radiologist,2019_Dec_04_1101,AdjustEyeTrack,3.1.5,59.82063811
87,Stimuli/Morph87.JPG,Stimuli/Morph87.png,Stimuli/BlurLevel5/BlurEditedMorph87,Stimuli/BlurLevel5/BlurEditedMorph87.png,Stimuli/BlurLevel5/NumberedMorphs/BlurEditedMorph87.png,Stimuli/BlurLevel5/OriginalBlur/BlurEditedMorph87.png,Stimuli/BlurMorphTrio/EditedMorph87.png,020270right.gif,Stimuli/normal_thumbnails/87right.gif,,,,,0,0,0,0,0,59,59,86,,,,,,,,,,,,,,,,,,,,,,,7,60,1,96,-0.261321158,2.486304738,87,Experiment,,,,,,,,,129,105,-18,-18,,,,,,,,,,,,,,,735.9377788,736.4488759,735.9377788,736.4488759,75.51020408,1575479523,1575479527,3.383581877,1575479521,1575479523,,,S8,1,47,m,expert radiologist,2019_Dec_04_1101,AdjustEyeTrack,3.1.5,59.82063811
105,Stimuli/Morph105.JPG,Stimuli/Morph105.png,Stimuli/BlurLevel5/BlurEditedMorph105,Stimuli/BlurLevel5/BlurEditedMorph105.png,Stimuli/BlurLevel5/NumberedMorphs/BlurEditedMorph105.png,Stimuli/BlurLevel5/OriginalBlur/BlurEditedMorph105.png,Stimuli/BlurMorphTrio/EditedMorph105.png,None,None,,,,,0,0,0,0,0,60,60,104,,,,,,,,,,,,,,,,,,,,,,,1,61,1,323,1.996588775,-1.504537558,105,Experiment,,,,,,,,,68,95,10,10,,,,,,,,,,,,,,,741.3331647,741.8325311,741.3331647,741.8325311,86.39455782,1575479529,1575479533,4.019762993,1575479527,1575479529,,,S8,1,47,m,expert radiologist,2019_Dec_04_1101,AdjustEyeTrack,3.1.5,59.82063811
54,Stimuli/Morph54.JPG,Stimuli/Morph54.png,Stimuli/BlurLevel5/BlurEditedMorph54,Stimuli/BlurLevel5/BlurEditedMorph54.png,Stimuli/BlurLevel5/NumberedMorphs/BlurEditedMorph54.png,Stimuli/BlurLevel5/OriginalBlur/BlurEditedMorph54.png,Stimuli/BlurMorphTrio/EditedMorph54.png,010150right.gif,Stimuli/normal_thumbnails/54right.gif,,,,,0,0,0,0,0,61,61,53,,,,,,,,,,,,,,,,,,,,,,,67,62,1,262,-0.347932752,-2.475670172,54,Experiment,,,,,,,,,45,47,7,7,,,,,,,,,,,,,,,748.3516729,748.8650539,748.3516729,748.8650539,90.47619048,1575479536,1575479541,5.082940817,1575479533,1575479536,,,S8,1,47,m,expert radiologist,2019_Dec_04_1101,AdjustEyeTrack,3.1.5,59.82063811
83,Stimuli/Morph83.JPG,Stimuli/Morph83.png,Stimuli/BlurLevel5/BlurEditedMorph83,Stimuli/BlurLevel5/BlurEditedMorph83.png,Stimuli/BlurLevel5/NumberedMorphs/BlurEditedMorph83.png,Stimuli/BlurLevel5/OriginalBlur/BlurEditedMorph83.png,Stimuli/BlurMorphTrio/EditedMorph83.png,020259right.gif,Stimuli/normal_thumbnails/83right.gif,,,,,0,0,0,0,0,62,62,82,,,,,,,,,,,,,,,,,,,,,,,90,63,1,353,2.481365379,-0.304673359,83,Experiment,,,,,,,,,46,101,-18,-18,,,,,,,,,,,,,,,755.9171184,756.4481061,755.9171184,756.4481061,75.51020408,1575479543,1575479552,9.049089909,1575479541,1575479543,,,S8,1,47,m,expert radiologist,2019_Dec_04_1101,AdjustEyeTrack,3.1.5,59.82063811
103,Stimuli/Morph103.JPG,Stimuli/Morph103.png,Stimuli/BlurLevel5/BlurEditedMorph103,Stimuli/BlurLevel5/BlurEditedMorph103.png,Stimuli/BlurLevel5/NumberedMorphs/BlurEditedMorph103.png,Stimuli/BlurLevel5/OriginalBlur/BlurEditedMorph103.png,Stimuli/BlurMorphTrio/EditedMorph103.png,None,None,,,,,0,0,0,0,0,63,63,102,,,,,,,,,,,,,,,,,,,,,,,74,64,1,142,-1.970026884,1.539153688,103,Experiment,,,,,,,,,14,92,11,11,,,,,,,,,,,,,,,767.467264,767.965016,767.467264,767.965016,85.03401361,1575479555,1575479558,3.782964945,1575479552,1575479555,,,S8,1,47,m,expert radiologist,2019_Dec_04_1101,AdjustEyeTrack,3.1.5,59.82063811
112,Stimuli/Morph112.JPG,Stimuli/Morph112.png,Stimuli/BlurLevel5/BlurEditedMorph112,Stimuli/BlurLevel5/BlurEditedMorph112.png,Stimuli/BlurLevel5/NumberedMorphs/BlurEditedMorph112.png,Stimuli/BlurLevel5/OriginalBlur/BlurEditedMorph112.png,Stimuli/BlurMorphTrio/EditedMorph112.png,None,None,,,,,0,0,0,0,0,64,64,111,,,,,,,,,,,,,,,,,,,,,,,74,65,1,270,-4.59E-16,-2.5,112,Experiment,,,,,,,,,18,90,22,22,,,,,,,,,,,,,,,773.5652941,774.082105,773.5652941,774.082105,70.06802721,1575479561,1575479565,3.803969145,1575479559,1575479561,,,S8,1,47,m,expert radiologist,2019_Dec_04_1101,AdjustEyeTrack,3.1.5,59.82063811
18,Stimuli/Morph18.JPG,Stimuli/Morph18.png,Stimuli/BlurLevel5/BlurEditedMorph18,Stimuli/BlurLevel5/BlurEditedMorph18.png,Stimuli/BlurLevel5/NumberedMorphs/BlurEditedMorph18.png,Stimuli/BlurLevel5/OriginalBlur/BlurEditedMorph18.png,Stimuli/BlurMorphTrio/EditedMorph18.png,010039right.gif,Stimuli/normal_thumbnails/18right.gif,,,,,0,0,0,0,0,65,65,17,,,,,,,,,,,,,,,,,,,,,,,52,66,1,349,2.454067959,-0.477022488,18,Experiment,,,,,,,,,61,22,-4,-4,,,,,,,,,,,,,,,779.832684,780.33152,779.832684,780.33152,94.55782313,1575479567,1575479574,7.167660952,1575479565,1575479567,,,S8,1,47,m,expert radiologist,2019_Dec_04_1101,AdjustEyeTrack,3.1.5,59.82063811
121,Stimuli/Morph121.JPG,Stimuli/Morph121.png,Stimuli/BlurLevel5/BlurEditedMorph121,Stimuli/BlurLevel5/BlurEditedMorph121.png,Stimuli/BlurLevel5/NumberedMorphs/BlurEditedMorph121.png,Stimuli/BlurLevel5/OriginalBlur/BlurEditedMorph121.png,Stimuli/BlurMorphTrio/EditedMorph121.png,None,None,,,,,0,0,0,0,0,66,66,120,,,,,,,,,,,,,,,,,,,,,,,63,67,1,267,-0.130839891,-2.496573837,121,Experiment,,,,,,,,,32,85,36,36,,,,,,,,,,,,,,,789.6672468,790.181869,789.6672468,790.181869,51.02040816,1575479577,1575479581,4.368302107,1575479574,1575479577,,,S8,1,47,m,expert radiologist,2019_Dec_04_1101,AdjustEyeTrack,3.1.5,59.82063811
129,Stimuli/Morph129.JPG,Stimuli/Morph129.png,Stimuli/BlurLevel5/BlurEditedMorph129,Stimuli/BlurLevel5/BlurEditedMorph129.png,Stimuli/BlurLevel5/NumberedMorphs/BlurEditedMorph129.png,Stimuli/BlurLevel5/OriginalBlur/BlurEditedMorph129.png,Stimuli/BlurMorphTrio/EditedMorph129.png,None,None,,,,,0,0,0,0,0,67,67,128,,,,,,,,,,,,,,,,,,,,,,,17,68,1,255,-0.647047613,-2.414814566,129,Experiment,,,,,,,,,145,95,34,34,,,,,,,,,,,,,,,797.0996391,797.5983109,797.0996391,797.5983109,53.7414966,1575479584,1575479587,2.799546957,1575479582,1575479584,,,S8,1,47,m,expert radiologist,2019_Dec_04_1101,AdjustEyeTrack,3.1.5,59.82063811
36,Stimuli/Morph36.JPG,Stimuli/Morph36.png,Stimuli/BlurLevel5/BlurEditedMorph36,Stimuli/BlurLevel5/BlurEditedMorph36.png,Stimuli/BlurLevel5/NumberedMorphs/BlurEditedMorph36.png,Stimuli/BlurLevel5/OriginalBlur/BlurEditedMorph36.png,Stimuli/BlurMorphTrio/EditedMorph36.png,010095right.gif,Stimuli/normal_thumbnails/36right.gif,,,,,0,0,0,0,0,68,68,35,,,,,,,,,,,,,,,,,,,,,,,58,69,1,33,2.09667642,1.361597588,36,Experiment,,,,,,,,,47,43,-7,-7,,,,,,,,,,,,,,,802.7512196,803.2645442,802.7512196,803.2645442,90.47619048,1575479590,1575479599,9.117146015,1575479587,1575479590,,,S8,1,47,m,expert radiologist,2019_Dec_04_1101,AdjustEyeTrack,3.1.5,59.82063811
79,Stimuli/Morph79.JPG,Stimuli/Morph79.png,Stimuli/BlurLevel5/BlurEditedMorph79,Stimuli/BlurLevel5/BlurEditedMorph79.png,Stimuli/BlurLevel5/NumberedMorphs/BlurEditedMorph79.png,Stimuli/BlurLevel5/OriginalBlur/BlurEditedMorph79.png,Stimuli/BlurMorphTrio/EditedMorph79.png,020239right.gif,Stimuli/normal_thumbnails/79right.gif,,,,,0,0,0,0,0,69,69,78,,,,,,,,,,,,,,,,,,,,,,,41,70,1,100,-0.434120444,2.462019383,79,Experiment,,,,,,,,,145,96,-17,-17,,,,,,,,,,,,,,,814.7724769,815.2642371,814.7724769,815.2642371,76.8707483,1575479602,1575479605,2.968629837,1575479599,1575479602,,,S8,1,47,m,expert radiologist,2019_Dec_04_1101,AdjustEyeTrack,3.1.5,59.82063811
17,Stimuli/Morph17.JPG,Stimuli/Morph17.png,Stimuli/BlurLevel5/BlurEditedMorph17,Stimuli/BlurLevel5/BlurEditedMorph17.png,Stimuli/BlurLevel5/NumberedMorphs/BlurEditedMorph17.png,Stimuli/BlurLevel5/OriginalBlur/BlurEditedMorph17.png,Stimuli/BlurMorphTrio/EditedMorph17.png,010036right.gif,Stimuli/normal_thumbnails/17right.gif,,,,,0,0,0,0,0,70,70,16,,,,,,,,,,,,,,,,,,,,,,,39,71,1,66,1.016841608,2.283863644,17,Experiment,,,,,,,,,33,17,0,0,,,,,,,,,,,,,,,820.4997854,821.0135845,820.4997854,821.0135845,100,1575479608,1575479612,4.365149975,1575479605,1575479608,,,S8,1,47,m,expert radiologist,2019_Dec_04_1101,AdjustEyeTrack,3.1.5,59.82063811
144,Stimuli/Morph144.JPG,Stimuli/Morph144.png,Stimuli/BlurLevel5/BlurEditedMorph144,Stimuli/BlurLevel5/BlurEditedMorph144.png,Stimuli/BlurLevel5/NumberedMorphs/BlurEditedMorph144.png,Stimuli/BlurLevel5/OriginalBlur/BlurEditedMorph144.png,Stimuli/BlurMorphTrio/EditedMorph144.png,None,None,,,,,0,0,0,0,0,71,71,143,,,,,,,,,,,,,,,,,,,,,,,2,72,1,42,1.857862064,1.672826516,144,Experiment,,,,,,,,,94,1,143,-4,,,,,,,,,,,,,,,827.3010027,827.8305112,827.3010027,827.8305112,94.55782313,1575479615,1575479618,3.783046961,1575479612,1575479615,,,S8,1,47,m,expert radiologist,2019_Dec_04_1101,AdjustEyeTrack,3.1.5,59.82063811
22,Stimuli/Morph22.JPG,Stimuli/Morph22.png,Stimuli/BlurLevel5/BlurEditedMorph22,Stimuli/BlurLevel5/BlurEditedMorph22.png,Stimuli/BlurLevel5/NumberedMorphs/BlurEditedMorph22.png,Stimuli/BlurLevel5/OriginalBlur/BlurEditedMorph22.png,Stimuli/BlurMorphTrio/EditedMorph22.png,010055right.gif,Stimuli/normal_thumbnails/22right.gif,,,,,0,0,0,0,0,72,72,21,,,,,,,,,,,,,,,,,,,,,,,30,73,1,227,-1.7049959,-1.828384254,22,Experiment,,,,,,,,,108,18,4,4,,,,,,,,,,,,,,,833.6532899,834.1635707,833.6532899,834.1635707,94.55782313,1575479621,1575479625,4.484024763,1575479619,1575479621,,,S8,1,47,m,expert radiologist,2019_Dec_04_1101,AdjustEyeTrack,3.1.5,59.82063811
91,Stimuli/Morph91.JPG,Stimuli/Morph91.png,Stimuli/BlurLevel5/BlurEditedMorph91,Stimuli/BlurLevel5/BlurEditedMorph91.png,Stimuli/BlurLevel5/NumberedMorphs/BlurEditedMorph91.png,Stimuli/BlurLevel5/OriginalBlur/BlurEditedMorph91.png,Stimuli/BlurMorphTrio/EditedMorph91.png,020276right.gif,Stimuli/normal_thumbnails/91right.gif,,,,,0,0,0,0,0,73,73,90,,,,,,,,,,,,,,,,,,,,,,,78,74,1,221,-1.886773951,-1.640147572,91,Experiment,,,,,,,,,107,107,-16,-16,,,,,,,,,,,,,,,840.7646773,841.2637835,840.7646773,841.2637835,78.23129252,1575479628,1575479629,1.085015059,1575479626,1575479628,,,S8,1,47,m,expert radiologist,2019_Dec_04_1101,AdjustEyeTrack,3.1.5,59.82063811
119,Stimuli/Morph119.JPG,Stimuli/Morph119.png,Stimuli/BlurLevel5/BlurEditedMorph119,Stimuli/BlurLevel5/BlurEditedMorph119.png,Stimuli/BlurLevel5/NumberedMorphs/BlurEditedMorph119.png,Stimuli/BlurLevel5/OriginalBlur/BlurEditedMorph119.png,Stimuli/BlurMorphTrio/EditedMorph119.png,None,None,,,,,0,0,0,0,0,74,74,118,,,,,,,,,,,,,,,,,,,,,,,85,75,1,226,-1.736645926,-1.798349501,119,Experiment,,,,,,,,,43,95,24,24,,,,,,,,,,,,,,,844.5507539,845.0636155,844.5507539,845.0636155,67.34693878,1575479632,1575479634,2.000409842,1575479629,1575479632,,,S8,1,47,m,expert radiologist,2019_Dec_04_1101,AdjustEyeTrack,3.1.5,59.82063811
26,Stimuli/Morph26.JPG,Stimuli/Morph26.png,Stimuli/BlurLevel5/BlurEditedMorph26,Stimuli/BlurLevel5/BlurEditedMorph26.png,Stimuli/BlurLevel5/NumberedMorphs/BlurEditedMorph26.png,Stimuli/BlurLevel5/OriginalBlur/BlurEditedMorph26.png,Stimuli/BlurMorphTrio/EditedMorph26.png,010070right.gif,Stimuli/normal_thumbnails/26right.gif,,,,,0,0,0,0,0,75,75,25,,,,,,,,,,,,,,,,,,,,,,,58,76,1,358,2.498477068,-0.087248742,26,Experiment,,,,,,,,,63,17,9,9,,,,,,,,,,,,,,,849.2322219,849.7637277,849.2322219,849.7637277,87.75510204,1575479636,1575479641,4.366900206,1575479634,1575479636,,,S8,1,47,m,expert radiologist,2019_Dec_04_1101,AdjustEyeTrack,3.1.5,59.82063811
89,Stimuli/Morph89.JPG,Stimuli/Morph89.png,Stimuli/BlurLevel5/BlurEditedMorph89,Stimuli/BlurLevel5/BlurEditedMorph89.png,Stimuli/BlurLevel5/NumberedMorphs/BlurEditedMorph89.png,Stimuli/BlurLevel5/OriginalBlur/BlurEditedMorph89.png,Stimuli/BlurMorphTrio/EditedMorph89.png,020273right.gif,Stimuli/normal_thumbnails/89right.gif,,,,,0,0,0,0,0,76,76,88,,,,,,,,,,,,,,,,,,,,,,,2,77,1,201,-2.333951066,-0.895919874,89,Experiment,,,,,,,,,121,112,-23,-23,,,,,,,,,,,,,,,856.1207029,856.6315874,856.1207029,856.6315874,68.70748299,1575479643,1575479646,2.932849884,1575479641,1575479643,,,S8,1,47,m,expert radiologist,2019_Dec_04_1101,AdjustEyeTrack,3.1.5,59.82063811
107,Stimuli/Morph107.JPG,Stimuli/Morph107.png,Stimuli/BlurLevel5/BlurEditedMorph107,Stimuli/BlurLevel5/BlurEditedMorph107.png,Stimuli/BlurLevel5/NumberedMorphs/BlurEditedMorph107.png,Stimuli/BlurLevel5/OriginalBlur/BlurEditedMorph107.png,Stimuli/BlurMorphTrio/EditedMorph107.png,None,None,,,,,0,0,0,0,0,77,77,106,,,,,,,,,,,,,,,,,,,,,,,99,78,1,189,-2.469220851,-0.391086163,107,Experiment,,,,,,,,,14,96,11,11,,,,,,,,,,,,,,,861.5843218,862.0809305,861.5843218,862.0809305,85.03401361,1575479649,1575479652,2.73617506,1575479647,1575479649,,,S8,1,47,m,expert radiologist,2019_Dec_04_1101,AdjustEyeTrack,3.1.5,59.82063811
130,Stimuli/Morph130.JPG,Stimuli/Morph130.png,Stimuli/BlurLevel5/BlurEditedMorph130,Stimuli/BlurLevel5/BlurEditedMorph130.png,Stimuli/BlurLevel5/NumberedMorphs/BlurEditedMorph130.png,Stimuli/BlurLevel5/OriginalBlur/BlurEditedMorph130.png,Stimuli/BlurMorphTrio/EditedMorph130.png,None,None,,,,,0,0,0,0,0,78,78,129,,,,,,,,,,,,,,,,,,,,,,,25,79,1,275,0.217889357,-2.490486745,130,Experiment,,,,,,,,,63,122,8,8,,,,,,,,,,,,,,,866.9668053,867.4802893,866.9668053,867.4802893,89.11564626,1575479654,1575479657,2.716495037,1575479652,1575479654,,,S8,1,47,m,expert radiologist,2019_Dec_04_1101,AdjustEyeTrack,3.1.5,59.82063811
28,Stimuli/Morph28.JPG,Stimuli/Morph28.png,Stimuli/BlurLevel5/BlurEditedMorph28,Stimuli/BlurLevel5/BlurEditedMorph28.png,Stimuli/BlurLevel5/NumberedMorphs/BlurEditedMorph28.png,Stimuli/BlurLevel5/OriginalBlur/BlurEditedMorph28.png,Stimuli/BlurMorphTrio/EditedMorph28.png,010073right.gif,Stimuli/normal_thumbnails/28right.gif,,,,,0,0,0,0,0,79,79,27,,,,,,,,,,,,,,,,,,,,,,,57,80,1,102,-0.519779227,2.445369002,28,Experiment,,,,,,,,,30,30,-2,-2,,,,,,,,,,,,,,,872.6891009,873.1975759,872.6891009,873.1975759,97.27891156,1575479660,1575479661,1.082298994,1575479657,1575479660,,,S8,1,47,m,expert radiologist,2019_Dec_04_1101,AdjustEyeTrack,3.1.5,59.82063811
70,Stimuli/Morph70.JPG,Stimuli/Morph70.png,Stimuli/BlurLevel5/BlurEditedMorph70,Stimuli/BlurLevel5/BlurEditedMorph70.png,Stimuli/BlurLevel5/NumberedMorphs/BlurEditedMorph70.png,Stimuli/BlurLevel5/OriginalBlur/BlurEditedMorph70.png,Stimuli/BlurMorphTrio/EditedMorph70.png,020221right.gif,Stimuli/normal_thumbnails/70right.gif,,,,,0,0,0,0,0,80,80,69,,,,,,,,,,,,,,,,,,,,,,,41,81,1,16,2.40315424,0.68909339,70,Experiment,,,,,,,,,41,74,-4,-4,,,,,,,,,,,,,,,876.3334795,876.8305535,876.3334795,876.8305535,94.55782313,1575479664,1575479668,3.966495037,1575479661,1575479664,,,S8,1,47,m,expert radiologist,2019_Dec_04_1101,AdjustEyeTrack,3.1.5,59.82063811
62,Stimuli/Morph62.JPG,Stimuli/Morph62.png,Stimuli/BlurLevel5/BlurEditedMorph62,Stimuli/BlurLevel5/BlurEditedMorph62.png,Stimuli/BlurLevel5/NumberedMorphs/BlurEditedMorph62.png,Stimuli/BlurLevel5/OriginalBlur/BlurEditedMorph62.png,Stimuli/BlurMorphTrio/EditedMorph62.png,020205right.gif,Stimuli/normal_thumbnails/62right.gif,,,,,0,0,0,0,0,81,81,61,,,,,,,,,,,,,,,,,,,,,,,69,82,1,157,-2.301262134,0.976827821,62,Experiment,,,,,,,,,63,63,-1,-1,,,,,,,,,,,,,,,882.9235863,883.4303642,882.9235863,883.4303642,98.63945578,1575479670,1575479671,1.235644817,1575479668,1575479670,,,S8,1,47,m,expert radiologist,2019_Dec_04_1101,AdjustEyeTrack,3.1.5,59.82063811
46,Stimuli/Morph46.JPG,Stimuli/Morph46.png,Stimuli/BlurLevel5/BlurEditedMorph46,Stimuli/BlurLevel5/BlurEditedMorph46.png,Stimuli/BlurLevel5/NumberedMorphs/BlurEditedMorph46.png,Stimuli/BlurLevel5/OriginalBlur/BlurEditedMorph46.png,Stimuli/BlurMorphTrio/EditedMorph46.png,010128right.gif,Stimuli/normal_thumbnails/46right.gif,,,,,0,0,0,0,0,82,82,45,,,,,,,,,,,,,,,,,,,,,,,74,83,1,44,1.798349501,1.736645926,46,Experiment,,,,,,,,,3,3,43,43,,,,,,,,,,,,,,,886.9737426,887.4812883,886.9737426,887.4812883,41.49659864,1575479674,1575479675,0.717003822,1575479672,1575479674,,,S8,1,47,m,expert radiologist,2019_Dec_04_1101,AdjustEyeTrack,3.1.5,59.82063811
116,Stimuli/Morph116.JPG,Stimuli/Morph116.png,Stimuli/BlurLevel5/BlurEditedMorph116,Stimuli/BlurLevel5/BlurEditedMorph116.png,Stimuli/BlurLevel5/NumberedMorphs/BlurEditedMorph116.png,Stimuli/BlurLevel5/OriginalBlur/BlurEditedMorph116.png,Stimuli/BlurMorphTrio/EditedMorph116.png,None,None,,,,,0,0,0,0,0,83,83,115,,,,,,,,,,,,,,,,,,,,,,,40,84,1,73,0.730929262,2.39076189,116,Experiment,,,,,,,,,147,100,16,16,,,,,,,,,,,,,,,890.4793184,891.0036838,890.4793184,891.0036838,78.23129252,1575479678,1575479681,3.482595921,1575479675,1575479678,,,S8,1,47,m,expert radiologist,2019_Dec_04_1101,AdjustEyeTrack,3.1.5,59.82063811
106,Stimuli/Morph106.JPG,Stimuli/Morph106.png,Stimuli/BlurLevel5/BlurEditedMorph106,Stimuli/BlurLevel5/BlurEditedMorph106.png,Stimuli/BlurLevel5/NumberedMorphs/BlurEditedMorph106.png,Stimuli/BlurLevel5/OriginalBlur/BlurEditedMorph106.png,Stimuli/BlurMorphTrio/EditedMorph106.png,None,None,,,,,0,0,0,0,0,84,84,105,,,,,,,,,,,,,,,,,,,,,,,32,85,1,339,2.333951066,-0.895919874,106,Experiment,,,,,,,,,118,118,-12,-12,,,,,,,,,,,,,,,896.781776,897.2981555,896.781776,897.2981555,83.67346939,1575479684,1575479685,0.834470987,1575479681,1575479684,,,S8,1,47,m,expert radiologist,2019_Dec_04_1101,AdjustEyeTrack,3.1.5,59.82063811
7,Stimuli/Morph7.JPG,Stimuli/Morph7.png,Stimuli/BlurLevel5/BlurEditedMorph7,Stimuli/BlurLevel5/BlurEditedMorph7.png,Stimuli/BlurLevel5/NumberedMorphs/BlurEditedMorph7.png,Stimuli/BlurLevel5/OriginalBlur/BlurEditedMorph7.png,Stimuli/BlurMorphTrio/EditedMorph7.png,010013right.gif,Stimuli/normal_thumbnails/7right.gif,,,,,1,0,1,0,0,0,0,6,,,,,,,,,,,,,,,,,,,,,,,40,1,2,132,-1.672826516,1.857862064,7,Experiment,,,,,,,,,113,8,-1,-1,,,,,,,,,,,,,,,918.7315694,919.2461717,918.7315694,919.2461717,98.63945578,1575479706,1575479710,4.432711124,1575479704,1575479706,space,18.05104591,S8,1,47,m,expert radiologist,2019_Dec_04_1101,AdjustEyeTrack,3.1.5,59.82063811
122,Stimuli/Morph122.JPG,Stimuli/Morph122.png,Stimuli/BlurLevel5/BlurEditedMorph122,Stimuli/BlurLevel5/BlurEditedMorph122.png,Stimuli/BlurLevel5/NumberedMorphs/BlurEditedMorph122.png,Stimuli/BlurLevel5/OriginalBlur/BlurEditedMorph122.png,Stimuli/BlurMorphTrio/EditedMorph122.png,None,None,,,,,1,0,1,0,0,1,1,121,,,,,,,,,,,,,,,,,,,,,,,49,2,2,194,-2.425739316,-0.604804739,122,Experiment,,,,,,,,,67,101,21,21,,,,,,,,,,,,,,,925.9643,926.4638457,925.9643,926.4638457,71.42857143,1575479713,1575479715,1.619543076,1575479711,1575479713,,,S8,1,47,m,expert radiologist,2019_Dec_04_1101,AdjustEyeTrack,3.1.5,59.82063811
6,Stimuli/Morph6.JPG,Stimuli/Morph6.png,Stimuli/BlurLevel5/BlurEditedMorph6,Stimuli/BlurLevel5/BlurEditedMorph6.png,Stimuli/BlurLevel5/NumberedMorphs/BlurEditedMorph6.png,Stimuli/BlurLevel5/OriginalBlur/BlurEditedMorph6.png,Stimuli/BlurMorphTrio/EditedMorph6.png,010012right.gif,Stimuli/normal_thumbnails/6right.gif,,,,,1,0,1,0,0,2,2,5,,,,,,,,,,,,,,,,,,,,,,,65,3,2,155,-2.265769468,1.056545654,6,Experiment,,,,,,,,,110,146,-140,7,,,,,,,,,,,,,,,930.4375686,930.9458263,930.4375686,930.9458263,90.47619048,1575479718,1575479720,1.851187944,1575479715,1575479718,,,S8,1,47,m,expert radiologist,2019_Dec_04_1101,AdjustEyeTrack,3.1.5,59.82063811
91,Stimuli/Morph91.JPG,Stimuli/Morph91.png,Stimuli/BlurLevel5/BlurEditedMorph91,Stimuli/BlurLevel5/BlurEditedMorph91.png,Stimuli/BlurLevel5/NumberedMorphs/BlurEditedMorph91.png,Stimuli/BlurLevel5/OriginalBlur/BlurEditedMorph91.png,Stimuli/BlurMorphTrio/EditedMorph91.png,020276right.gif,Stimuli/normal_thumbnails/91right.gif,,,,,1,0,1,0,0,3,3,90,,,,,,,,,,,,,,,,,,,,,,,54,4,2,31,2.142918252,1.287595187,91,Experiment,,,,,,,,,63,96,-5,-5,,,,,,,,,,,,,,,935.1494006,935.662873,935.1494006,935.662873,93.19727891,1575479722,1575479724,1.549060106,1575479720,1575479722,,,S8,1,47,m,expert radiologist,2019_Dec_04_1101,AdjustEyeTrack,3.1.5,59.82063811
114,Stimuli/Morph114.JPG,Stimuli/Morph114.png,Stimuli/BlurLevel5/BlurEditedMorph114,Stimuli/BlurLevel5/BlurEditedMorph114.png,Stimuli/BlurLevel5/NumberedMorphs/BlurEditedMorph114.png,Stimuli/BlurLevel5/OriginalBlur/BlurEditedMorph114.png,Stimuli/BlurMorphTrio/EditedMorph114.png,None,None,,,,,1,0,1,0,0,4,4,113,,,,,,,,,,,,,,,,,,,,,,,31,5,2,180,-2.5,3.06E-16,114,Experiment,,,,,,,,,120,114,0,0,,,,,,,,,,,,,,,939.7157608,940.2139058,939.7157608,940.2139058,100,1575479727,1575479730,2.78771615,1575479724,1575479727,,,S8,1,47,m,expert radiologist,2019_Dec_04_1101,AdjustEyeTrack,3.1.5,59.82063811
35,Stimuli/Morph35.JPG,Stimuli/Morph35.png,Stimuli/BlurLevel5/BlurEditedMorph35,Stimuli/BlurLevel5/BlurEditedMorph35.png,Stimuli/BlurLevel5/NumberedMorphs/BlurEditedMorph35.png,Stimuli/BlurLevel5/OriginalBlur/BlurEditedMorph35.png,Stimuli/BlurMorphTrio/EditedMorph35.png,010094right.gif,Stimuli/normal_thumbnails/35right.gif,,,,,1,0,1,0,0,5,5,34,,,,,,,,,,,,,,,,,,,,,,,36,6,2,312,1.672826516,-1.857862064,35,Experiment,,,,,,,,,42,43,-8,-8,,,,,,,,,,,,,,,945.2679657,945.7796933,945.2679657,945.7796933,89.11564626,1575479733,1575479740,7.500048876,1575479730,1575479733,,,S8,1,47,m,expert radiologist,2019_Dec_04_1101,AdjustEyeTrack,3.1.5,59.82063811
1,Stimuli/Morph1.JPG,Stimuli/Morph1.png,Stimuli/BlurLevel5/BlurEditedMorph1,Stimuli/BlurLevel5/BlurEditedMorph1.png,Stimuli/BlurLevel5/NumberedMorphs/BlurEditedMorph1.png,Stimuli/BlurLevel5/OriginalBlur/BlurEditedMorph1.png,Stimuli/BlurMorphTrio/EditedMorph1.png,010003right.gif,Stimuli/normal_thumbnails/1right.gif,,,,,1,0,1,0,0,6,6,0,,,,,,,,,,,,,,,,,,,,,,,83,7,2,351,2.469220851,-0.391086163,1,Experiment,,,,,,,,,65,65,-64,-64,,,,,,,,,,,,,,,955.6896733,956.2132037,955.6896733,956.2132037,12.92517007,1575479743,1575479747,3.949603796,1575479740,1575479743,,,S8,1,47,m,expert radiologist,2019_Dec_04_1101,AdjustEyeTrack,3.1.5,59.82063811
22,Stimuli/Morph22.JPG,Stimuli/Morph22.png,Stimuli/BlurLevel5/BlurEditedMorph22,Stimuli/BlurLevel5/BlurEditedMorph22.png,Stimuli/BlurLevel5/NumberedMorphs/BlurEditedMorph22.png,Stimuli/BlurLevel5/OriginalBlur/BlurEditedMorph22.png,Stimuli/BlurMorphTrio/EditedMorph22.png,010055right.gif,Stimuli/normal_thumbnails/22right.gif,,,,,1,0,1,0,0,7,7,21,,,,,,,,,,,,,,,,,,,,,,,33,8,2,338,2.317959636,-0.936516484,22,Experiment,,,,,,,,,64,23,-1,-1,,,,,,,,,,,,,,,962.3819307,962.8963815,962.3819307,962.8963815,98.63945578,1575479750,1575479753,3.800256014,1575479747,1575479750,,,S8,1,47,m,expert radiologist,2019_Dec_04_1101,AdjustEyeTrack,3.1.5,59.82063811
3,Stimuli/Morph3.JPG,Stimuli/Morph3.png,Stimuli/BlurLevel5/BlurEditedMorph3,Stimuli/BlurLevel5/BlurEditedMorph3.png,Stimuli/BlurLevel5/NumberedMorphs/BlurEditedMorph3.png,Stimuli/BlurLevel5/OriginalBlur/BlurEditedMorph3.png,Stimuli/BlurMorphTrio/EditedMorph3.png,010009right.gif,Stimuli/normal_thumbnails/3right.gif,,,,,1,0,1,0,0,8,8,2,,,,,,,,,,,,,,,,,,,,,,,18,9,2,216,-2.022542486,-1.469463131,3,Experiment,,,,,,,,,121,147,-144,3,,,,,,,,,,,,,,,968.513502,969.0118381,968.513502,969.0118381,95.91836735,1575479756,1575479758,2.066442966,1575479754,1575479756,,,S8,1,47,m,expert radiologist,2019_Dec_04_1101,AdjustEyeTrack,3.1.5,59.82063811
71,Stimuli/Morph71.JPG,Stimuli/Morph71.png,Stimuli/BlurLevel5/BlurEditedMorph71,Stimuli/BlurLevel5/BlurEditedMorph71.png,Stimuli/BlurLevel5/NumberedMorphs/BlurEditedMorph71.png,Stimuli/BlurLevel5/OriginalBlur/BlurEditedMorph71.png,Stimuli/BlurMorphTrio/EditedMorph71.png,020225right.gif,Stimuli/normal_thumbnails/71right.gif,,,,,1,0,1,0,0,9,9,70,,,,,,,,,,,,,,,,,,,,,,,24,10,2,281,0.477022488,-2.454067959,71,Experiment,,,,,,,,,100,73,-2,-2,,,,,,,,,,,,,,,973.4042373,973.9135226,973.4042373,973.9135226,97.27891156,1575479761,1575479766,5.282871008,1575479758,1575479761,,,S8,1,47,m,expert radiologist,2019_Dec_04_1101,AdjustEyeTrack,3.1.5,59.82063811
59,Stimuli/Morph59.JPG,Stimuli/Morph59.png,Stimuli/BlurLevel5/BlurEditedMorph59,Stimuli/BlurLevel5/BlurEditedMorph59.png,Stimuli/BlurLevel5/NumberedMorphs/BlurEditedMorph59.png,Stimuli/BlurLevel5/OriginalBlur/BlurEditedMorph59.png,Stimuli/BlurMorphTrio/EditedMorph59.png,010160right.gif,Stimuli/normal_thumbnails/59right.gif,,,,,1,0,1,0,0,10,10,58,,,,,,,,,,,,,,,,,,,,,,,63,11,2,94,-0.174391184,2.493910126,59,Experiment,,,,,,,,,80,58,1,1,,,,,,,,,,,,,,,981.3052538,981.8126251,981.3052538,981.8126251,98.63945578,1575479769,1575479772,3.353652,1575479766,1575479769,,,S8,1,47,m,expert radiologist,2019_Dec_04_1101,AdjustEyeTrack,3.1.5,59.82063811
86,Stimuli/Morph86.JPG,Stimuli/Morph86.png,Stimuli/BlurLevel5/BlurEditedMorph86,Stimuli/BlurLevel5/BlurEditedMorph86.png,Stimuli/BlurLevel5/NumberedMorphs/BlurEditedMorph86.png,Stimuli/BlurLevel5/OriginalBlur/BlurEditedMorph86.png,Stimuli/BlurMorphTrio/EditedMorph86.png,020266right.gif,Stimuli/normal_thumbnails/86right.gif,,,,,1,0,1,0,0,11,11,85,,,,,,,,,,,,,,,,,,,,,,,22,12,2,125,-1.433941091,2.047880111,86,Experiment,,,,,,,,,74,91,-5,-5,,,,,,,,,,,,,,,987.46497,987.9785974,987.46497,987.9785974,93.19727891,1575479775,1575479777,2.236845016,1575479772,1575479775,,,S8,1,47,m,expert radiologist,2019_Dec_04_1101,AdjustEyeTrack,3.1.5,59.82063811
24,Stimuli/Morph24.JPG,Stimuli/Morph24.png,Stimuli/BlurLevel5/BlurEditedMorph24,Stimuli/BlurLevel5/BlurEditedMorph24.png,Stimuli/BlurLevel5/NumberedMorphs/BlurEditedMorph24.png,Stimuli/BlurLevel5/OriginalBlur/BlurEditedMorph24.png,Stimuli/BlurMorphTrio/EditedMorph24.png,010068right.gif,Stimuli/normal_thumbnails/24right.gif,,,,,1,0,1,0,0,12,12,23,,,,,,,,,,,,,,,,,,,,,,,79,13,2,225,-1.767766953,-1.767766953,24,Experiment,,,,,,,,,81,32,-8,-8,,,,,,,,,,,,,,,992.3364927,992.8617136,992.3364927,992.8617136,89.11564626,1575479780,1575479783,3.164348364,1575479777,1575479780,,,S8,1,47,m,expert radiologist,2019_Dec_04_1101,AdjustEyeTrack,3.1.5,59.82063811
75,Stimuli/Morph75.JPG,Stimuli/Morph75.png,Stimuli/BlurLevel5/BlurEditedMorph75,Stimuli/BlurLevel5/BlurEditedMorph75.png,Stimuli/BlurLevel5/NumberedMorphs/BlurEditedMorph75.png,Stimuli/BlurLevel5/OriginalBlur/BlurEditedMorph75.png,Stimuli/BlurMorphTrio/EditedMorph75.png,020233right.gif,Stimuli/normal_thumbnails/75right.gif,,,,,1,0,1,0,0,13,13,74,,,,,,,,,,,,,,,,,,,,,,,74,14,2,22,2.317959636,0.936516484,75,Experiment,,,,,,,,,146,73,2,2,,,,,,,,,,,,,,,998.211791,998.7120573,998.211791,998.7120573,97.27891156,1575479785,1575479789,3.115903139,1575479783,1575479785,,,S8,1,47,m,expert radiologist,2019_Dec_04_1101,AdjustEyeTrack,3.1.5,59.82063811
49,Stimuli/Morph49.JPG,Stimuli/Morph49.png,Stimuli/BlurLevel5/BlurEditedMorph49,Stimuli/BlurLevel5/BlurEditedMorph49.png,Stimuli/BlurLevel5/NumberedMorphs/BlurEditedMorph49.png,Stimuli/BlurLevel5/OriginalBlur/BlurEditedMorph49.png,Stimuli/BlurMorphTrio/EditedMorph49.png,010135right.gif,Stimuli/normal_thumbnails/49right.gif,,,,,1,0,1,0,0,14,14,48,,,,,,,,,,,,,,,,,,,,,,,89,15,2,236,-1.397982259,-2.072593931,49,Experiment,,,,,,,,,7,61,-12,-12,,,,,,,,,,,,,,,1003.832906,1004.345935,1003.832906,1004.345935,83.67346939,1575479791,1575479793,1.986929178,1575479789,1575479791,,,S8,1,47,m,expert radiologist,2019_Dec_04_1101,AdjustEyeTrack,3.1.5,59.82063811
57,Stimuli/Morph57.JPG,Stimuli/Morph57.png,Stimuli/BlurLevel5/BlurEditedMorph57,Stimuli/BlurLevel5/BlurEditedMorph57.png,Stimuli/BlurLevel5/NumberedMorphs/BlurEditedMorph57.png,Stimuli/BlurLevel5/OriginalBlur/BlurEditedMorph57.png,Stimuli/BlurMorphTrio/EditedMorph57.png,010158right.gif,Stimuli/normal_thumbnails/57right.gif,,,,,1,0,1,0,0,15,15,56,,,,,,,,,,,,,,,,,,,,,,,80,16,2,326,2.072593931,-1.397982259,57,Experiment,,,,,,,,,86,55,2,2,,,,,,,,,,,,,,,1008.448706,1008.944704,1008.448706,1008.944704,97.27891156,1575479796,1575479799,3.233994961,1575479793,1575479796,,,S8,1,47,m,expert radiologist,2019_Dec_04_1101,AdjustEyeTrack,3.1.5,59.82063811
32,Stimuli/Morph32.JPG,Stimuli/Morph32.png,Stimuli/BlurLevel5/BlurEditedMorph32,Stimuli/BlurLevel5/BlurEditedMorph32.png,Stimuli/BlurLevel5/NumberedMorphs/BlurEditedMorph32.png,Stimuli/BlurLevel5/OriginalBlur/BlurEditedMorph32.png,Stimuli/BlurMorphTrio/EditedMorph32.png,010080right.gif,Stimuli/normal_thumbnails/32right.gif,,,,,1,0,1,0,0,16,16,31,,,,,,,,,,,,,,,,,,,,,,,81,17,2,303,1.361597588,-2.09667642,32,Experiment,,,,,,,,,42,33,-1,-1,,,,,,,,,,,,,,,1014.247258,1014.761224,1014.247258,1014.761224,98.63945578,1575479801,1575479806,4.603157043,1575479799,1575479801,,,S8,1,47,m,expert radiologist,2019_Dec_04_1101,AdjustEyeTrack,3.1.5,59.82063811
82,Stimuli/Morph82.JPG,Stimuli/Morph82.png,Stimuli/BlurLevel5/BlurEditedMorph82,Stimuli/BlurLevel5/BlurEditedMorph82.png,Stimuli/BlurLevel5/NumberedMorphs/BlurEditedMorph82.png,Stimuli/BlurLevel5/OriginalBlur/BlurEditedMorph82.png,Stimuli/BlurMorphTrio/EditedMorph82.png,020247right.gif,Stimuli/normal_thumbnails/82right.gif,,,,,1,0,1,0,0,17,17,81,,,,,,,,,,,,,,,,,,,,,,,17,18,2,202,-2.317959636,-0.936516484,82,Experiment,,,,,,,,,4,74,8,8,,,,,,,,,,,,,,,1021.979634,1022.495665,1021.979634,1022.495665,89.11564626,1575479809,1575479814,4.532784939,1575479806,1575479809,,,S8,1,47,m,expert radiologist,2019_Dec_04_1101,AdjustEyeTrack,3.1.5,59.82063811
99,Stimuli/Morph99.JPG,Stimuli/Morph99.png,Stimuli/BlurLevel5/BlurEditedMorph99,Stimuli/BlurLevel5/BlurEditedMorph99.png,Stimuli/BlurLevel5/NumberedMorphs/BlurEditedMorph99.png,Stimuli/BlurLevel5/OriginalBlur/BlurEditedMorph99.png,Stimuli/BlurMorphTrio/EditedMorph99.png,020299right.gif,Stimuli/normal_thumbnails/99right.gif,,,,,1,0,1,0,0,18,18,98,,,,,,,,,,,,,,,,,,,,,,,12,19,2,100,-0.434120444,2.462019383,99,Experiment,,,,,,,,,28,97,2,2,,,,,,,,,,,,,,,1029.703126,1030.211358,1029.703126,1030.211358,97.27891156,1575479817,1575479819,1.89948988,1575479814,1575479817,,,S8,1,47,m,expert radiologist,2019_Dec_04_1101,AdjustEyeTrack,3.1.5,59.82063811
83,Stimuli/Morph83.JPG,Stimuli/Morph83.png,Stimuli/BlurLevel5/BlurEditedMorph83,Stimuli/BlurLevel5/BlurEditedMorph83.png,Stimuli/BlurLevel5/NumberedMorphs/BlurEditedMorph83.png,Stimuli/BlurLevel5/OriginalBlur/BlurEditedMorph83.png,Stimuli/BlurMorphTrio/EditedMorph83.png,020259right.gif,Stimuli/normal_thumbnails/83right.gif,,,,,1,0,1,0,0,19,19,82,,,,,,,,,,,,,,,,,,,,,,,74,20,2,119,-1.212024051,2.186549268,83,Experiment,,,,,,,,,59,98,-15,-15,,,,,,,,,,,,,,,1034.546676,1035.045263,1034.546676,1035.045263,79.59183673,1575479822,1575479824,1.867218971,1575479819,1575479822,,,S8,1,47,m,expert radiologist,2019_Dec_04_1101,AdjustEyeTrack,3.1.5,59.82063811
43,Stimuli/Morph43.JPG,Stimuli/Morph43.png,Stimuli/BlurLevel5/BlurEditedMorph43,Stimuli/BlurLevel5/BlurEditedMorph43.png,Stimuli/BlurLevel5/NumberedMorphs/BlurEditedMorph43.png,Stimuli/BlurLevel5/OriginalBlur/BlurEditedMorph43.png,Stimuli/BlurMorphTrio/EditedMorph43.png,010124right.gif,Stimuli/normal_thumbnails/43right.gif,,,,,1,0,1,0,0,20,20,42,,,,,,,,,,,,,,,,,,,,,,,53,21,2,313,1.7049959,-1.828384254,43,Experiment,,,,,,,,,93,52,-9,-9,,,,,,,,,,,,,,,1039.549597,1040.063052,1039.549597,1040.063052,87.75510204,1575479827,1575479830,2.863633156,1575479824,1575479827,,,S8,1,47,m,expert radiologist,2019_Dec_04_1101,AdjustEyeTrack,3.1.5,59.82063811
53,Stimuli/Morph53.JPG,Stimuli/Morph53.png,Stimuli/BlurLevel5/BlurEditedMorph53,Stimuli/BlurLevel5/BlurEditedMorph53.png,Stimuli/BlurLevel5/NumberedMorphs/BlurEditedMorph53.png,Stimuli/BlurLevel5/OriginalBlur/BlurEditedMorph53.png,Stimuli/BlurMorphTrio/EditedMorph53.png,010149right.gif,Stimuli/normal_thumbnails/53right.gif,,,,,1,0,1,0,0,21,21,52,,,,,,,,,,,,,,,,,,,,,,,92,22,2,30,2.165063509,1.25,53,Experiment,,,,,,,,,13,57,-4,-4,,,,,,,,,,,,,,,1045.818504,1046.377774,1045.818504,1046.377774,94.55782313,1575479833,1575479835,1.900177002,1575479830,1575479833,,,S8,1,47,m,expert radiologist,2019_Dec_04_1101,AdjustEyeTrack,3.1.5,59.82063811
30,Stimuli/Morph30.JPG,Stimuli/Morph30.png,Stimuli/BlurLevel5/BlurEditedMorph30,Stimuli/BlurLevel5/BlurEditedMorph30.png,Stimuli/BlurLevel5/NumberedMorphs/BlurEditedMorph30.png,Stimuli/BlurLevel5/OriginalBlur/BlurEditedMorph30.png,Stimuli/BlurMorphTrio/EditedMorph30.png,010076right.gif,Stimuli/normal_thumbnails/30right.gif,,,,,1,0,1,0,0,22,22,29,,,,,,,,,,,,,,,,,,,,,,,85,23,2,298,1.173678907,-2.207368982,30,Experiment,,,,,,,,,50,34,-4,-4,,,,,,,,,,,,,,,1050.395883,1050.89592,1050.395883,1050.89592,94.55782313,1575479838,1575479842,4.251691103,1575479835,1575479838,,,S8,1,47,m,expert radiologist,2019_Dec_04_1101,AdjustEyeTrack,3.1.5,59.82063811
120,Stimuli/Morph120.JPG,Stimuli/Morph120.png,Stimuli/BlurLevel5/BlurEditedMorph120,Stimuli/BlurLevel5/BlurEditedMorph120.png,Stimuli/BlurLevel5/NumberedMorphs/BlurEditedMorph120.png,Stimuli/BlurLevel5/OriginalBlur/BlurEditedMorph120.png,Stimuli/BlurMorphTrio/EditedMorph120.png,None,None,,,,,1,0,1,0,0,23,23,119,,,,,,,,,,,,,,,,,,,,,,,98,24,2,104,-0.604804739,2.425739316,120,Experiment,,,,,,,,,53,132,-12,-12,,,,,,,,,,,,,,,1057.544901,1058.044336,1057.544901,1058.044336,83.67346939,1575479845,1575479848,2.900735855,1575479842,1575479845,,,S8,1,47,m,expert radiologist,2019_Dec_04_1101,AdjustEyeTrack,3.1.5,59.82063811
96,Stimuli/Morph96.JPG,Stimuli/Morph96.png,Stimuli/BlurLevel5/BlurEditedMorph96,Stimuli/BlurLevel5/BlurEditedMorph96.png,Stimuli/BlurLevel5/NumberedMorphs/BlurEditedMorph96.png,Stimuli/BlurLevel5/OriginalBlur/BlurEditedMorph96.png,Stimuli/BlurMorphTrio/EditedMorph96.png,020292right.gif,Stimuli/normal_thumbnails/96right.gif,,,,,1,0,1,0,0,24,24,95,,,,,,,,,,,,,,,,,,,,,,,36,25,2,32,2.12012024,1.324798161,96,Experiment,,,,,,,,,65,136,-40,-40,,,,,,,,,,,,,,,1063.021355,1063.528828,1063.021355,1063.528828,45.57823129,1575479850,1575479853,2.400709867,1575479848,1575479850,,,S8,1,47,m,expert radiologist,2019_Dec_04_1101,AdjustEyeTrack,3.1.5,59.82063811
18,Stimuli/Morph18.JPG,Stimuli/Morph18.png,Stimuli/BlurLevel5/BlurEditedMorph18,Stimuli/BlurLevel5/BlurEditedMorph18.png,Stimuli/BlurLevel5/NumberedMorphs/BlurEditedMorph18.png,Stimuli/BlurLevel5/OriginalBlur/BlurEditedMorph18.png,Stimuli/BlurMorphTrio/EditedMorph18.png,010039right.gif,Stimuli/normal_thumbnails/18right.gif,,,,,1,0,1,0,0,25,25,17,,,,,,,,,,,,,,,,,,,,,,,29,26,2,193,-2.435925162,-0.562377636,18,Experiment,,,,,,,,,29,21,-3,-3,,,,,,,,,,,,,,,1068.611726,1069.126706,1068.611726,1069.126706,95.91836735,1575479856,1575479858,1.999077082,1575479853,1575479856,,,S8,1,47,m,expert radiologist,2019_Dec_04_1101,AdjustEyeTrack,3.1.5,59.82063811
10,Stimuli/Morph10.JPG,Stimuli/Morph10.png,Stimuli/BlurLevel5/BlurEditedMorph10,Stimuli/BlurLevel5/BlurEditedMorph10.png,Stimuli/BlurLevel5/NumberedMorphs/BlurEditedMorph10.png,Stimuli/BlurLevel5/OriginalBlur/BlurEditedMorph10.png,Stimuli/BlurMorphTrio/EditedMorph10.png,010016right.gif,Stimuli/normal_thumbnails/10right.gif,,,,,1,0,1,0,0,26,26,9,,,,,,,,,,,,,,,,,,,,,,,68,27,2,275,0.217889357,-2.490486745,10,Experiment,,,,,,,,,89,17,-7,-7,,,,,,,,,,,,,,,1073.39529,1073.914052,1073.39529,1073.914052,90.47619048,1575479861,1575479864,3.53455019,1575479858,1575479861,,,S8,1,47,m,expert radiologist,2019_Dec_04_1101,AdjustEyeTrack,3.1.5,59.82063811
92,Stimuli/Morph92.JPG,Stimuli/Morph92.png,Stimuli/BlurLevel5/BlurEditedMorph92,Stimuli/BlurLevel5/BlurEditedMorph92.png,Stimuli/BlurLevel5/NumberedMorphs/BlurEditedMorph92.png,Stimuli/BlurLevel5/OriginalBlur/BlurEditedMorph92.png,Stimuli/BlurMorphTrio/EditedMorph92.png,020277right.gif,Stimuli/normal_thumbnails/92right.gif,,,,,1,0,1,0,0,27,27,91,,,,,,,,,,,,,,,,,,,,,,,11,28,2,213,-2.09667642,-1.361597588,92,Experiment,,,,,,,,,133,101,-9,-9,,,,,,,,,,,,,,,1080.371505,1080.92906,1080.371505,1080.92906,87.75510204,1575479868,1575479871,3.034883022,1575479864,1575479868,,,S8,1,47,m,expert radiologist,2019_Dec_04_1101,AdjustEyeTrack,3.1.5,59.82063811
147,Stimuli/Morph147.JPG,Stimuli/Morph147.png,Stimuli/BlurLevel5/BlurEditedMorph147,Stimuli/BlurLevel5/BlurEditedMorph147.png,Stimuli/BlurLevel5/NumberedMorphs/BlurEditedMorph147.png,Stimuli/BlurLevel5/OriginalBlur/BlurEditedMorph147.png,Stimuli/BlurMorphTrio/EditedMorph147.png,None,None,,,,,1,0,1,0,0,28,28,146,,,,,,,,,,,,,,,,,,,,,,,69,29,2,130,-1.606969024,1.915111108,147,Experiment,,,,,,,,,47,1,146,-1,,,,,,,,,,,,,,,1086.662503,1087.161891,1086.662503,1087.161891,98.63945578,1575479874,1575479878,4.016914129,1575479871,1575479874,,,S8,1,47,m,expert radiologist,2019_Dec_04_1101,AdjustEyeTrack,3.1.5,59.82063811
146,Stimuli/Morph146.JPG,Stimuli/Morph146.png,Stimuli/BlurLevel5/BlurEditedMorph146,Stimuli/BlurLevel5/BlurEditedMorph146.png,Stimuli/BlurLevel5/NumberedMorphs/BlurEditedMorph146.png,Stimuli/BlurLevel5/OriginalBlur/BlurEditedMorph146.png,Stimuli/BlurMorphTrio/EditedMorph146.png,None,None,,,,,1,0,1,0,0,29,29,145,,,,,,,,,,,,,,,,,,,,,,,5,30,2,333,2.22751631,-1.134976249,146,Experiment,,,,,,,,,29,147,-1,-1,,,,,,,,,,,,,,,1093.380584,1093.91008,1093.380584,1093.91008,98.63945578,1575479881,1575479887,6.334090948,1575479878,1575479881,,,S8,1,47,m,expert radiologist,2019_Dec_04_1101,AdjustEyeTrack,3.1.5,59.82063811
69,Stimuli/Morph69.JPG,Stimuli/Morph69.png,Stimuli/BlurLevel5/BlurEditedMorph69,Stimuli/BlurLevel5/BlurEditedMorph69.png,Stimuli/BlurLevel5/NumberedMorphs/BlurEditedMorph69.png,Stimuli/BlurLevel5/OriginalBlur/BlurEditedMorph69.png,Stimuli/BlurMorphTrio/EditedMorph69.png,020220right.gif,Stimuli/normal_thumbnails/69right.gif,,,,,1,0,1,0,0,30,30,68,,,,,,,,,,,,,,,,,,,,,,,56,31,2,295,1.056545654,-2.265769468,69,Experiment,,,,,,,,,78,80,-11,-11,,,,,,,,,,,,,,,1102.696502,1103.227383,1102.696502,1103.227383,85.03401361,1575479890,1575479894,3.867249727,1575479887,1575479890,,,S8,1,47,m,expert radiologist,2019_Dec_04_1101,AdjustEyeTrack,3.1.5,59.82063811
137,Stimuli/Morph137.JPG,Stimuli/Morph137.png,Stimuli/BlurLevel5/BlurEditedMorph137,Stimuli/BlurLevel5/BlurEditedMorph137.png,Stimuli/BlurLevel5/NumberedMorphs/BlurEditedMorph137.png,Stimuli/BlurLevel5/OriginalBlur/BlurEditedMorph137.png,Stimuli/BlurMorphTrio/EditedMorph137.png,None,None,,,,,1,0,1,0,0,31,31,136,,,,,,,,,,,,,,,,,,,,,,,44,32,2,129,-1.573300978,1.942864904,137,Experiment,,,,,,,,,76,146,-9,-9,,,,,,,,,,,,,,,1109.47926,1109.983578,1109.47926,1109.983578,87.75510204,1575479897,1575479900,3.415226936,1575479894,1575479897,,,S8,1,47,m,expert radiologist,2019_Dec_04_1101,AdjustEyeTrack,3.1.5,59.82063811
63,Stimuli/Morph63.JPG,Stimuli/Morph63.png,Stimuli/BlurLevel5/BlurEditedMorph63,Stimuli/BlurLevel5/BlurEditedMorph63.png,Stimuli/BlurLevel5/NumberedMorphs/BlurEditedMorph63.png,Stimuli/BlurLevel5/OriginalBlur/BlurEditedMorph63.png,Stimuli/BlurMorphTrio/EditedMorph63.png,020206right.gif,Stimuli/normal_thumbnails/63right.gif,,,,,1,0,1,0,0,32,32,62,,,,,,,,,,,,,,,,,,,,,,,2,33,2,336,2.283863644,-1.016841608,63,Experiment,,,,,,,,,9,69,-6,-6,,,,,,,,,,,,,,,1115.66147,1116.161342,1115.66147,1116.161342,91.83673469,1575479903,1575479905,2.599794865,1575479900,1575479903,,,S8,1,47,m,expert radiologist,2019_Dec_04_1101,AdjustEyeTrack,3.1.5,59.82063811
23,Stimuli/Morph23.JPG,Stimuli/Morph23.png,Stimuli/BlurLevel5/BlurEditedMorph23,Stimuli/BlurLevel5/BlurEditedMorph23.png,Stimuli/BlurLevel5/NumberedMorphs/BlurEditedMorph23.png,Stimuli/BlurLevel5/OriginalBlur/BlurEditedMorph23.png,Stimuli/BlurMorphTrio/EditedMorph23.png,010063right.gif,Stimuli/normal_thumbnails/23right.gif,,,,,1,0,1,0,0,33,33,22,,,,,,,,,,,,,,,,,,,,,,,18,34,2,327,2.09667642,-1.361597588,23,Experiment,,,,,,,,,130,22,1,1,,,,,,,,,,,,,,,1120.577225,1121.293675,1120.577225,1121.293675,98.63945578,1575479908,1575479910,1.883302212,1575479906,1575479908,,,S8,1,47,m,expert radiologist,2019_Dec_04_1101,AdjustEyeTrack,3.1.5,59.82063811
60,Stimuli/Morph60.JPG,Stimuli/Morph60.png,Stimuli/BlurLevel5/BlurEditedMorph60,Stimuli/BlurLevel5/BlurEditedMorph60.png,Stimuli/BlurLevel5/NumberedMorphs/BlurEditedMorph60.png,Stimuli/BlurLevel5/OriginalBlur/BlurEditedMorph60.png,Stimuli/BlurMorphTrio/EditedMorph60.png,020200right.gif,Stimuli/normal_thumbnails/60right.gif,,,,,1,0,1,0,0,34,34,59,,,,,,,,,,,,,,,,,,,,,,,53,35,2,54,1.469463131,2.022542486,60,Experiment,,,,,,,,,32,78,-18,-18,,,,,,,,,,,,,,,1125.234963,1125.744034,1125.234963,1125.744034,75.51020408,1575479912,1575479916,3.050375938,1575479910,1575479912,,,S8,1,47,m,expert radiologist,2019_Dec_04_1101,AdjustEyeTrack,3.1.5,59.82063811
88,Stimuli/Morph88.JPG,Stimuli/Morph88.png,Stimuli/BlurLevel5/BlurEditedMorph88,Stimuli/BlurLevel5/BlurEditedMorph88.png,Stimuli/BlurLevel5/NumberedMorphs/BlurEditedMorph88.png,Stimuli/BlurLevel5/OriginalBlur/BlurEditedMorph88.png,Stimuli/BlurMorphTrio/EditedMorph88.png,020271right.gif,Stimuli/normal_thumbnails/88right.gif,,,,,1,0,1,0,0,35,35,87,,,,,,,,,,,,,,,,,,,,,,,21,36,2,353,2.481365379,-0.304673359,88,Experiment,,,,,,,,,144,83,5,5,,,,,,,,,,,,,,,1130.777063,1131.292902,1130.777063,1131.292902,93.19727891,1575479918,1575479921,3.198583126,1575479916,1575479918,,,S8,1,47,m,expert radiologist,2019_Dec_04_1101,AdjustEyeTrack,3.1.5,59.82063811
77,Stimuli/Morph77.JPG,Stimuli/Morph77.png,Stimuli/BlurLevel5/BlurEditedMorph77,Stimuli/BlurLevel5/BlurEditedMorph77.png,Stimuli/BlurLevel5/NumberedMorphs/BlurEditedMorph77.png,Stimuli/BlurLevel5/OriginalBlur/BlurEditedMorph77.png,Stimuli/BlurMorphTrio/EditedMorph77.png,020235right.gif,Stimuli/normal_thumbnails/77right.gif,,,,,1,0,1,0,0,36,36,76,,,,,,,,,,,,,,,,,,,,,,,14,37,2,122,-1.324798161,2.12012024,77,Experiment,,,,,,,,,90,90,-13,-13,,,,,,,,,,,,,,,1137.077256,1137.593435,1137.077256,1137.593435,82.31292517,1575479924,1575479938,14.05237412,1575479921,1575479924,,,S8,1,47,m,expert radiologist,2019_Dec_04_1101,AdjustEyeTrack,3.1.5,59.82063811
11,Stimuli/Morph11.JPG,Stimuli/Morph11.png,Stimuli/BlurLevel5/BlurEditedMorph11,Stimuli/BlurLevel5/BlurEditedMorph11.png,Stimuli/BlurLevel5/NumberedMorphs/BlurEditedMorph11.png,Stimuli/BlurLevel5/OriginalBlur/BlurEditedMorph11.png,Stimuli/BlurMorphTrio/EditedMorph11.png,010024right.gif,Stimuli/normal_thumbnails/11right.gif,,,,,1,0,1,0,0,37,37,10,,,,,,,,,,,,,,,,,,,,,,,95,38,2,224,-1.798349501,-1.736645926,11,Experiment,,,,,,,,,66,19,-8,-8,,,,,,,,,,,,,,,1154.318512,1154.845146,1154.318512,1154.845146,89.11564626,1575479942,1575479945,3.884223938,1575479939,1575479942,,,S8,1,47,m,expert radiologist,2019_Dec_04_1101,AdjustEyeTrack,3.1.5,59.82063811
9,Stimuli/Morph9.JPG,Stimuli/Morph9.png,Stimuli/BlurLevel5/BlurEditedMorph9,Stimuli/BlurLevel5/BlurEditedMorph9.png,Stimuli/BlurLevel5/NumberedMorphs/BlurEditedMorph9.png,Stimuli/BlurLevel5/OriginalBlur/BlurEditedMorph9.png,Stimuli/BlurMorphTrio/EditedMorph9.png,010015right.gif,Stimuli/normal_thumbnails/9right.gif,,,,,1,0,1,0,0,38,38,8,,,,,,,,,,,,,,,,,,,,,,,79,39,2,149,-2.142918252,1.287595187,9,Experiment,,,,,,,,,91,17,-8,-8,,,,,,,,,,,,,,,1160.925939,1161.426561,1160.925939,1161.426561,89.11564626,1575479948,1575479953,4.550916195,1575479946,1575479948,,,S8,1,47,m,expert radiologist,2019_Dec_04_1101,AdjustEyeTrack,3.1.5,59.82063811
38,Stimuli/Morph38.JPG,Stimuli/Morph38.png,Stimuli/BlurLevel5/BlurEditedMorph38,Stimuli/BlurLevel5/BlurEditedMorph38.png,Stimuli/BlurLevel5/NumberedMorphs/BlurEditedMorph38.png,Stimuli/BlurLevel5/OriginalBlur/BlurEditedMorph38.png,Stimuli/BlurMorphTrio/EditedMorph38.png,010108right.gif,Stimuli/normal_thumbnails/38right.gif,,,,,1,0,1,0,0,39,39,37,,,,,,,,,,,,,,,,,,,,,,,85,40,2,129,-1.573300978,1.942864904,38,Experiment,,,,,,,,,62,74,-36,-36,,,,,,,,,,,,,,,1168.166662,1168.676056,1168.166662,1168.676056,51.02040816,1575479955,1575479960,4.972558975,1575479953,1575479955,,,S8,1,47,m,expert radiologist,2019_Dec_04_1101,AdjustEyeTrack,3.1.5,59.82063811
129,Stimuli/Morph129.JPG,Stimuli/Morph129.png,Stimuli/BlurLevel5/BlurEditedMorph129,Stimuli/BlurLevel5/BlurEditedMorph129.png,Stimuli/BlurLevel5/NumberedMorphs/BlurEditedMorph129.png,Stimuli/BlurLevel5/OriginalBlur/BlurEditedMorph129.png,Stimuli/BlurMorphTrio/EditedMorph129.png,None,None,,,,,1,0,1,0,0,40,40,128,,,,,,,,,,,,,,,,,,,,,,,3,41,2,84,0.261321158,2.486304738,129,Experiment,,,,,,,,,29,92,37,37,,,,,,,,,,,,,,,1176.116717,1176.609811,1176.116717,1176.609811,49.65986395,1575479963,1575479966,2.283109188,1575479961,1575479963,,,S8,1,47,m,expert radiologist,2019_Dec_04_1101,AdjustEyeTrack,3.1.5,59.82063811
33,Stimuli/Morph33.JPG,Stimuli/Morph33.png,Stimuli/BlurLevel5/BlurEditedMorph33,Stimuli/BlurLevel5/BlurEditedMorph33.png,Stimuli/BlurLevel5/NumberedMorphs/BlurEditedMorph33.png,Stimuli/BlurLevel5/OriginalBlur/BlurEditedMorph33.png,Stimuli/BlurMorphTrio/EditedMorph33.png,010089right.gif,Stimuli/normal_thumbnails/33right.gif,,,,,1,0,1,0,0,41,41,32,,,,,,,,,,,,,,,,,,,,,,,10,42,2,283,0.562377636,-2.435925162,33,Experiment,,,,,,,,,109,43,-10,-10,,,,,,,,,,,,,,,1180.944754,1181.626076,1180.944754,1181.626076,86.39455782,1575479968,1575479972,3.200328827,1575479966,1575479968,,,S8,1,47,m,expert radiologist,2019_Dec_04_1101,AdjustEyeTrack,3.1.5,59.82063811
138,Stimuli/Morph138.JPG,Stimuli/Morph138.png,Stimuli/BlurLevel5/BlurEditedMorph138,Stimuli/BlurLevel5/BlurEditedMorph138.png,Stimuli/BlurLevel5/NumberedMorphs/BlurEditedMorph138.png,Stimuli/BlurLevel5/OriginalBlur/BlurEditedMorph138.png,Stimuli/BlurMorphTrio/EditedMorph138.png,None,None,,,,,1,0,1,0,0,42,42,137,,,,,,,,,,,,,,,,,,,,,,,7,43,2,56,1.397982259,2.072593931,138,Experiment,,,,,,,,,21,146,-8,-8,,,,,,,,,,,,,,,1186.964858,1187.475747,1186.964858,1187.475747,89.11564626,1575479974,1575479978,3.749950886,1575479972,1575479974,,,S8,1,47,m,expert radiologist,2019_Dec_04_1101,AdjustEyeTrack,3.1.5,59.82063811
90,Stimuli/Morph90.JPG,Stimuli/Morph90.png,Stimuli/BlurLevel5/BlurEditedMorph90,Stimuli/BlurLevel5/BlurEditedMorph90.png,Stimuli/BlurLevel5/NumberedMorphs/BlurEditedMorph90.png,Stimuli/BlurLevel5/OriginalBlur/BlurEditedMorph90.png,Stimuli/BlurMorphTrio/EditedMorph90.png,020275right.gif,Stimuli/normal_thumbnails/90right.gif,,,,,1,0,1,0,0,43,43,89,,,,,,,,,,,,,,,,,,,,,,,11,44,2,213,-2.09667642,-1.361597588,90,Experiment,,,,,,,,,5,93,-3,-3,,,,,,,,,,,,,,,1194.185475,1194.692199,1194.185475,1194.692199,95.91836735,1575479981,1575479984,2.950453997,1575479978,1575479981,,,S8,1,47,m,expert radiologist,2019_Dec_04_1101,AdjustEyeTrack,3.1.5,59.82063811
128,Stimuli/Morph128.JPG,Stimuli/Morph128.png,Stimuli/BlurLevel5/BlurEditedMorph128,Stimuli/BlurLevel5/BlurEditedMorph128.png,Stimuli/BlurLevel5/NumberedMorphs/BlurEditedMorph128.png,Stimuli/BlurLevel5/OriginalBlur/BlurEditedMorph128.png,Stimuli/BlurMorphTrio/EditedMorph128.png,None,None,,,,,1,0,1,0,0,44,44,127,,,,,,,,,,,,,,,,,,,,,,,45,45,2,253,-0.730929262,-2.39076189,128,Experiment,,,,,,,,,145,108,20,20,,,,,,,,,,,,,,,1199.649906,1200.159368,1199.649906,1200.159368,72.78911565,1575479987,1575479993,5.632672071,1575479985,1575479987,,,S8,1,47,m,expert radiologist,2019_Dec_04_1101,AdjustEyeTrack,3.1.5,59.82063811
84,Stimuli/Morph84.JPG,Stimuli/Morph84.png,Stimuli/BlurLevel5/BlurEditedMorph84,Stimuli/BlurLevel5/BlurEditedMorph84.png,Stimuli/BlurLevel5/NumberedMorphs/BlurEditedMorph84.png,Stimuli/BlurLevel5/OriginalBlur/BlurEditedMorph84.png,Stimuli/BlurMorphTrio/EditedMorph84.png,020261right.gif,Stimuli/normal_thumbnails/84right.gif,,,,,1,0,1,0,0,45,45,83,,,,,,,,,,,,,,,,,,,,,,,71,46,2,255,-0.647047613,-2.414814566,84,Experiment,,,,,,,,,100,100,-16,-16,,,,,,,,,,,,,,,1207.78156,1208.277111,1207.78156,1208.277111,78.23129252,1575479995,1575479996,1.199979067,1575479993,1575479995,,,S8,1,47,m,expert radiologist,2019_Dec_04_1101,AdjustEyeTrack,3.1.5,59.82063811
25,Stimuli/Morph25.JPG,Stimuli/Morph25.png,Stimuli/BlurLevel5/BlurEditedMorph25,Stimuli/BlurLevel5/BlurEditedMorph25.png,Stimuli/BlurLevel5/NumberedMorphs/BlurEditedMorph25.png,Stimuli/BlurLevel5/OriginalBlur/BlurEditedMorph25.png,Stimuli/BlurMorphTrio/EditedMorph25.png,010069right.gif,Stimuli/normal_thumbnails/25right.gif,,,,,1,0,1,0,0,46,46,24,,,,,,,,,,,,,,,,,,,,,,,68,47,2,171,-2.469220851,0.391086163,25,Experiment,,,,,,,,,61,26,-1,-1,,,,,,,,,,,,,,,1212.043172,1212.542379,1212.043172,1212.542379,98.63945578,1575479999,1575480004,4.916465044,1575479996,1575479999,,,S8,1,47,m,expert radiologist,2019_Dec_04_1101,AdjustEyeTrack,3.1.5,59.82063811
98,Stimuli/Morph98.JPG,Stimuli/Morph98.png,Stimuli/BlurLevel5/BlurEditedMorph98,Stimuli/BlurLevel5/BlurEditedMorph98.png,Stimuli/BlurLevel5/NumberedMorphs/BlurEditedMorph98.png,Stimuli/BlurLevel5/OriginalBlur/BlurEditedMorph98.png,Stimuli/BlurMorphTrio/EditedMorph98.png,020298right.gif,Stimuli/normal_thumbnails/98right.gif,,,,,1,0,1,0,0,47,47,97,,,,,,,,,,,,,,,,,,,,,,,21,48,2,56,1.397982259,2.072593931,98,Experiment,,,,,,,,,71,98,0,0,,,,,,,,,,,,,,,1219.694587,1220.226099,1219.694587,1220.226099,100,1575480007,1575480009,1.700710297,1575480004,1575480007,,,S8,1,47,m,expert radiologist,2019_Dec_04_1101,AdjustEyeTrack,3.1.5,59.82063811
80,Stimuli/Morph80.JPG,Stimuli/Morph80.png,Stimuli/BlurLevel5/BlurEditedMorph80,Stimuli/BlurLevel5/BlurEditedMorph80.png,Stimuli/BlurLevel5/NumberedMorphs/BlurEditedMorph80.png,Stimuli/BlurLevel5/OriginalBlur/BlurEditedMorph80.png,Stimuli/BlurMorphTrio/EditedMorph80.png,020240right.gif,Stimuli/normal_thumbnails/80right.gif,,,,,1,0,1,0,0,48,48,79,,,,,,,,,,,,,,,,,,,,,,,49,49,2,208,-2.207368982,-1.173678907,80,Experiment,,,,,,,,,67,82,-2,-2,,,,,,,,,,,,,,,1224.295213,1224.80847,1224.295213,1224.80847,97.27891156,1575480012,1575480016,4.81582284,1575480009,1575480012,,,S8,1,47,m,expert radiologist,2019_Dec_04_1101,AdjustEyeTrack,3.1.5,59.82063811
107,Stimuli/Morph107.JPG,Stimuli/Morph107.png,Stimuli/BlurLevel5/BlurEditedMorph107,Stimuli/BlurLevel5/BlurEditedMorph107.png,Stimuli/BlurLevel5/NumberedMorphs/BlurEditedMorph107.png,Stimuli/BlurLevel5/OriginalBlur/BlurEditedMorph107.png,Stimuli/BlurMorphTrio/EditedMorph107.png,None,None,,,,,1,0,1,0,0,49,49,106,,,,,,,,,,,,,,,,,,,,,,,83,50,2,91,-0.043631016,2.499619238,107,Experiment,,,,,,,,,70,94,13,13,,,,,,,,,,,,,,,1232.228519,1232.724702,1232.228519,1232.724702,82.31292517,1575480019,1575480021,1.503587008,1575480017,1575480019,,,S8,1,47,m,expert radiologist,2019_Dec_04_1101,AdjustEyeTrack,3.1.5,59.82063811
140,Stimuli/Morph140.JPG,Stimuli/Morph140.png,Stimuli/BlurLevel5/BlurEditedMorph140,Stimuli/BlurLevel5/BlurEditedMorph140.png,Stimuli/BlurLevel5/NumberedMorphs/BlurEditedMorph140.png,Stimuli/BlurLevel5/OriginalBlur/BlurEditedMorph140.png,Stimuli/BlurMorphTrio/EditedMorph140.png,None,None,,,,,1,0,1,0,0,50,50,139,,,,,,,,,,,,,,,,,,,,,,,85,51,2,146,-2.072593931,1.397982259,140,Experiment,,,,,,,,,142,142,-2,-2,,,,,,,,,,,,,,,1236.329326,1236.842272,1236.329326,1236.842272,97.27891156,1575480024,1575480024,0.833836079,1575480021,1575480024,,,S8,1,47,m,expert radiologist,2019_Dec_04_1101,AdjustEyeTrack,3.1.5,59.82063811
47,Stimuli/Morph47.JPG,Stimuli/Morph47.png,Stimuli/BlurLevel5/BlurEditedMorph47,Stimuli/BlurLevel5/BlurEditedMorph47.png,Stimuli/BlurLevel5/NumberedMorphs/BlurEditedMorph47.png,Stimuli/BlurLevel5/OriginalBlur/BlurEditedMorph47.png,Stimuli/BlurMorphTrio/EditedMorph47.png,010130right.gif,Stimuli/normal_thumbnails/47right.gif,,,,,1,0,1,0,0,51,51,46,,,,,,,,,,,,,,,,,,,,,,,78,52,2,137,-1.828384254,1.7049959,47,Experiment,,,,,,,,,43,43,4,4,,,,,,,,,,,,,,,1239.825497,1240.325553,1239.825497,1240.325553,94.55782313,1575480027,1575480028,0.965738058,1575480025,1575480027,,,S8,1,47,m,expert radiologist,2019_Dec_04_1101,AdjustEyeTrack,3.1.5,59.82063811
89,Stimuli/Morph89.JPG,Stimuli/Morph89.png,Stimuli/BlurLevel5/BlurEditedMorph89,Stimuli/BlurLevel5/BlurEditedMorph89.png,Stimuli/BlurLevel5/NumberedMorphs/BlurEditedMorph89.png,Stimuli/BlurLevel5/OriginalBlur/BlurEditedMorph89.png,Stimuli/BlurMorphTrio/EditedMorph89.png,020273right.gif,Stimuli/normal_thumbnails/89right.gif,,,,,1,0,1,0,0,52,52,88,,,,,,,,,,,,,,,,,,,,,,,86,53,2,56,1.397982259,2.072593931,89,Experiment,,,,,,,,,114,114,-25,-25,,,,,,,,,,,,,,,1243.26818,1243.77491,1243.26818,1243.77491,65.98639456,1575480030,1575480031,0.566123962,1575480028,1575480030,,,S8,1,47,m,expert radiologist,2019_Dec_04_1101,AdjustEyeTrack,3.1.5,59.82063811
55,Stimuli/Morph55.JPG,Stimuli/Morph55.png,Stimuli/BlurLevel5/BlurEditedMorph55,Stimuli/BlurLevel5/BlurEditedMorph55.png,Stimuli/BlurLevel5/NumberedMorphs/BlurEditedMorph55.png,Stimuli/BlurLevel5/OriginalBlur/BlurEditedMorph55.png,Stimuli/BlurMorphTrio/EditedMorph55.png,010151right.gif,Stimuli/normal_thumbnails/55right.gif,,,,,1,0,1,0,0,53,53,54,,,,,,,,,,,,,,,,,,,,,,,33,54,2,26,2.246985116,1.095927867,55,Experiment,,,,,,,,,20,47,8,8,,,,,,,,,,,,,,,1246.29263,1246.808376,1246.29263,1246.808376,89.11564626,1575480034,1575480035,1.76690197,1575480031,1575480034,,,S8,1,47,m,expert radiologist,2019_Dec_04_1101,AdjustEyeTrack,3.1.5,59.82063811
48,Stimuli/Morph48.JPG,Stimuli/Morph48.png,Stimuli/BlurLevel5/BlurEditedMorph48,Stimuli/BlurLevel5/BlurEditedMorph48.png,Stimuli/BlurLevel5/NumberedMorphs/BlurEditedMorph48.png,Stimuli/BlurLevel5/OriginalBlur/BlurEditedMorph48.png,Stimuli/BlurMorphTrio/EditedMorph48.png,010131right.gif,Stimuli/normal_thumbnails/48right.gif,,,,,1,0,1,0,0,54,54,47,,,,,,,,,,,,,,,,,,,,,,,43,55,2,0,2.5,0,48,Experiment,,,,,,,,,27,51,-3,-3,,,,,,,,,,,,,,,1250.580114,1251.092506,1250.580114,1251.092506,95.91836735,1575480038,1575480039,1.570410013,1575480036,1575480038,,,S8,1,47,m,expert radiologist,2019_Dec_04_1101,AdjustEyeTrack,3.1.5,59.82063811
44,Stimuli/Morph44.JPG,Stimuli/Morph44.png,Stimuli/BlurLevel5/BlurEditedMorph44,Stimuli/BlurLevel5/BlurEditedMorph44.png,Stimuli/BlurLevel5/NumberedMorphs/BlurEditedMorph44.png,Stimuli/BlurLevel5/OriginalBlur/BlurEditedMorph44.png,Stimuli/BlurMorphTrio/EditedMorph44.png,010126right.gif,Stimuli/normal_thumbnails/44right.gif,,,,,1,0,1,0,0,55,55,43,,,,,,,,,,,,,,,,,,,,,,,27,56,2,343,2.39076189,-0.730929262,44,Experiment,,,,,,,,,8,44,0,0,,,,,,,,,,,,,,,1255.095732,1255.625211,1255.095732,1255.625211,100,1575480042,1575480045,2.216677904,1575480040,1575480042,,,S8,1,47,m,expert radiologist,2019_Dec_04_1101,AdjustEyeTrack,3.1.5,59.82063811
15,Stimuli/Morph15.JPG,Stimuli/Morph15.png,Stimuli/BlurLevel5/BlurEditedMorph15,Stimuli/BlurLevel5/BlurEditedMorph15.png,Stimuli/BlurLevel5/NumberedMorphs/BlurEditedMorph15.png,Stimuli/BlurLevel5/OriginalBlur/BlurEditedMorph15.png,Stimuli/BlurMorphTrio/EditedMorph15.png,010031right.gif,Stimuli/normal_thumbnails/15right.gif,,,,,1,0,1,0,0,56,56,14,,,,,,,,,,,,,,,,,,,,,,,93,57,2,85,0.217889357,2.490486745,15,Experiment,,,,,,,,,6,6,9,9,,,,,,,,,,,,,,,1261.100851,1261.627491,1261.100851,1261.627491,87.75510204,1575480048,1575480049,0.965989828,1575480045,1575480048,,,S8,1,47,m,expert radiologist,2019_Dec_04_1101,AdjustEyeTrack,3.1.5,59.82063811
70,Stimuli/Morph70.JPG,Stimuli/Morph70.png,Stimuli/BlurLevel5/BlurEditedMorph70,Stimuli/BlurLevel5/BlurEditedMorph70.png,Stimuli/BlurLevel5/NumberedMorphs/BlurEditedMorph70.png,Stimuli/BlurLevel5/OriginalBlur/BlurEditedMorph70.png,Stimuli/BlurMorphTrio/EditedMorph70.png,020221right.gif,Stimuli/normal_thumbnails/70right.gif,,,,,1,0,1,0,0,57,57,69,,,,,,,,,,,,,,,,,,,,,,,58,58,2,188,-2.475670172,-0.347932752,70,Experiment,,,,,,,,,53,75,-5,-5,,,,,,,,,,,,,,,1264.811001,1265.309808,1264.811001,1265.309808,93.19727891,1575480052,1575480055,3.270498037,1575480050,1575480052,,,S8,1,47,m,expert radiologist,2019_Dec_04_1101,AdjustEyeTrack,3.1.5,59.82063811
