stimulusID,stimulus_JPG,stimulusPath,stimulusPath2,stimulusPath3,stimulusPath4,stimulusPath5,stimulusPath6,xRayOriginal,xRayPath,Training.thisRepN,Training.thisTrialN,Training.thisN,Training.thisIndex,Blocks.thisRepN,Blocks.thisTrialN,Blocks.thisN,Blocks.thisIndex,Trials.thisRepN,Trials.thisTrialN,Trials.thisN,Trials.thisIndex,text_2.started,text_2.stopped,image.started,image.stopped,image_2.started,image_2.stopped,image_3.started,image_3.stopped,image_4.started,image_4.stopped,image_6.started,image_6.stopped,image_7.started,image_7.stopped,image_8.started,image_8.stopped,image_9.started,image_9.stopped,image_10.started,image_10.stopped,image_12.started,image_12.stopped,xrayID,trialNumber,blockNumber,stimLocationDeg,stimXCoord,stimYCoord,stimulusID,blockType,trainingXray.started,trainingXray.stopped,trainingTumors.started,trainingTumors.stopped,trainingScore%,startTrainingRespTime,endTrainingRespTime,trainingRT,morphTrack,morphID,errorRaw,errorCorrected,startTrainingStimTime,endTrainingStimTime,key_resp_3.keys,key_resp_3.rt,text.started,text.stopped,text_3.started,text_3.stopped,text_4.started,text_4.stopped,key_resp_5.keys,key_resp_5.rt,key_resp_5.started,key_resp_5.stopped,xray1.started,xray1.stopped,tumors.started,tumors.stopped,trialCorrect%,startRespTime,endRespTime,RT,startStimTime,endStimTime,key_resp.keys,key_resp.rt,participant,session,age,gender,status,date,expName,psychopyVersion,frameRate
96,Stimuli/Morph96.JPG,Stimuli/Morph96.png,Stimuli/BlurLevel5/BlurEditedMorph96,Stimuli/BlurLevel5/BlurEditedMorph96.png,Stimuli/BlurLevel5/NumberedMorphs/BlurEditedMorph96.png,Stimuli/BlurLevel5/OriginalBlur/BlurEditedMorph96.png,Stimuli/BlurMorphTrio/EditedMorph96.png,020292right.gif,Stimuli/normal_thumbnails/96right.gif,0,0,0,95,,,,,,,,,171.0474787,None,171.0474787,None,171.0474787,None,171.0474787,None,171.0474787,None,171.0474787,None,171.0474787,None,171.0474787,None,171.0474787,None,171.0474787,None,171.0474787,None,11,-100,-100,252,-0.772542486,-2.377641291,96,training,235.9946971,236.4966823,235.9946971,236.4966823,95.91836735,1575406551,1575406555,4.417124033,66,99,-3,-3,1575406548,1575406551,space,2.223285753,,,,,,,,,,,,,,,,,,,,,,,S4,1,40,m,Expert Radiologist,2019_Dec_03_1454,AdjustEyeTrack,3.1.5,60.42540585
123,Stimuli/Morph123.JPG,Stimuli/Morph123.png,Stimuli/BlurLevel5/BlurEditedMorph123,Stimuli/BlurLevel5/BlurEditedMorph123.png,Stimuli/BlurLevel5/NumberedMorphs/BlurEditedMorph123.png,Stimuli/BlurLevel5/OriginalBlur/BlurEditedMorph123.png,Stimuli/BlurMorphTrio/EditedMorph123.png,None,None,0,1,1,122,,,,,,,,,,,,,,,,,,,,,,,,,,,,,,,100,-100,-100,37,1.996588775,1.504537558,123,training,244.9236815,245.412915,244.9236815,245.412915,76.8707483,1575406560,1575406569,9.382629156,16,106,17,17,1575406558,1575406560,space,1.579641589,,,,,,,,,,,,,,,,,,,,,,,S4,1,40,m,Expert Radiologist,2019_Dec_03_1454,AdjustEyeTrack,3.1.5,60.42540585
36,Stimuli/Morph36.JPG,Stimuli/Morph36.png,Stimuli/BlurLevel5/BlurEditedMorph36,Stimuli/BlurLevel5/BlurEditedMorph36.png,Stimuli/BlurLevel5/NumberedMorphs/BlurEditedMorph36.png,Stimuli/BlurLevel5/OriginalBlur/BlurEditedMorph36.png,Stimuli/BlurMorphTrio/EditedMorph36.png,010095right.gif,Stimuli/normal_thumbnails/36right.gif,0,2,2,35,,,,,,,,,,,,,,,,,,,,,,,,,,,,,,,44,-100,-100,173,-2.481365379,0.304673359,36,training,258.6847956,259.1963253,258.6847956,259.1963253,79.59183673,1575406574,1575406578,4.882936001,97,21,15,15,1575406571,1575406574,space,16.03433164,,,,,,,,,,,,,,,,,,,,,,,S4,1,40,m,Expert Radiologist,2019_Dec_03_1454,AdjustEyeTrack,3.1.5,60.42540585
52,Stimuli/Morph52.JPG,Stimuli/Morph52.png,Stimuli/BlurLevel5/BlurEditedMorph52,Stimuli/BlurLevel5/BlurEditedMorph52.png,Stimuli/BlurLevel5/NumberedMorphs/BlurEditedMorph52.png,Stimuli/BlurLevel5/OriginalBlur/BlurEditedMorph52.png,Stimuli/BlurMorphTrio/EditedMorph52.png,010148right.gif,Stimuli/normal_thumbnails/52right.gif,0,3,3,51,,,,,,,,,,,,,,,,,,,,,,,,,,,,,,,9,-100,-100,57,1.361597588,2.09667642,52,training,281.8959311,282.3951852,281.8959311,282.3951852,93.19727891,1575406597,1575406600,3.000901937,131,57,-5,-5,1575406595,1575406597,space,6.609290022,,,,,,,,,,,,,,,,,,,,,,,S4,1,40,m,Expert Radiologist,2019_Dec_03_1454,AdjustEyeTrack,3.1.5,60.42540585
9,Stimuli/Morph9.JPG,Stimuli/Morph9.png,Stimuli/BlurLevel5/BlurEditedMorph9,Stimuli/BlurLevel5/BlurEditedMorph9.png,Stimuli/BlurLevel5/NumberedMorphs/BlurEditedMorph9.png,Stimuli/BlurLevel5/OriginalBlur/BlurEditedMorph9.png,Stimuli/BlurMorphTrio/EditedMorph9.png,010015right.gif,Stimuli/normal_thumbnails/9right.gif,0,4,4,8,,,,,,,,,,,,,,,,,,,,,,,,,,,,,,,84,-100,-100,144,-2.022542486,1.469463131,9,training,294.0129455,294.5121046,294.0129455,294.5121046,72.78911565,1575406609,1575406612,3.218994856,143,136,-127,20,1575406606,1575406609,space,7.037359257,,,,,,,,,,,,,,,,,,,,,,,S4,1,40,m,Expert Radiologist,2019_Dec_03_1454,AdjustEyeTrack,3.1.5,60.42540585
72,Stimuli/Morph72.JPG,Stimuli/Morph72.png,Stimuli/BlurLevel5/BlurEditedMorph72,Stimuli/BlurLevel5/BlurEditedMorph72.png,Stimuli/BlurLevel5/NumberedMorphs/BlurEditedMorph72.png,Stimuli/BlurLevel5/OriginalBlur/BlurEditedMorph72.png,Stimuli/BlurMorphTrio/EditedMorph72.png,020227right.gif,Stimuli/normal_thumbnails/72right.gif,0,5,5,71,,,,,,,,,,,,,,,,,,,,,,,,,,,,,,,45,-100,-100,59,1.287595187,2.142918252,72,training,306.7454024,307.24466,306.7454024,307.24466,53.7414966,1575406622,1575406627,4.967114925,23,106,-34,-34,1575406619,1575406622,space,15.20061675,,,,,,,,,,,,,,,,,,,,,,,S4,1,40,m,Expert Radiologist,2019_Dec_03_1454,AdjustEyeTrack,3.1.5,60.42540585
59,Stimuli/Morph59.JPG,Stimuli/Morph59.png,Stimuli/BlurLevel5/BlurEditedMorph59,Stimuli/BlurLevel5/BlurEditedMorph59.png,Stimuli/BlurLevel5/NumberedMorphs/BlurEditedMorph59.png,Stimuli/BlurLevel5/OriginalBlur/BlurEditedMorph59.png,Stimuli/BlurMorphTrio/EditedMorph59.png,010160right.gif,Stimuli/normal_thumbnails/59right.gif,0,6,6,58,,,,,,,,,,,,,,,,,,,,,,,,,,,,,,,56,-100,-100,358,2.498477068,-0.087248742,59,training,329.5653991,330.0615624,329.5653991,330.0615624,79.59183673,1575406644,1575406654,9.833948374,66,74,-15,-15,1575406642,1575406644,space,7.359007818,,,,,,,,,,,,,,,,,,,,,,,S4,1,40,m,Expert Radiologist,2019_Dec_03_1454,AdjustEyeTrack,3.1.5,60.42540585
97,Stimuli/Morph97.JPG,Stimuli/Morph97.png,Stimuli/BlurLevel5/BlurEditedMorph97,Stimuli/BlurLevel5/BlurEditedMorph97.png,Stimuli/BlurLevel5/NumberedMorphs/BlurEditedMorph97.png,Stimuli/BlurLevel5/OriginalBlur/BlurEditedMorph97.png,Stimuli/BlurMorphTrio/EditedMorph97.png,020294right.gif,Stimuli/normal_thumbnails/97right.gif,0,7,7,96,,,,,,,,,,,,,,,,,,,,,,,,,,,,,,,42,-100,-100,250,-0.855050358,-2.349231552,97,training,349.8676337,350.3625197,349.8676337,350.3625197,95.91836735,1575406665,1575406670,5.219489098,82,94,3,3,1575406662,1575406665,space,12.53109949,,,,,,,,,,,,,,,,,,,,,,,S4,1,40,m,Expert Radiologist,2019_Dec_03_1454,AdjustEyeTrack,3.1.5,60.42540585
93,Stimuli/Morph93.JPG,Stimuli/Morph93.png,Stimuli/BlurLevel5/BlurEditedMorph93,Stimuli/BlurLevel5/BlurEditedMorph93.png,Stimuli/BlurLevel5/NumberedMorphs/BlurEditedMorph93.png,Stimuli/BlurLevel5/OriginalBlur/BlurEditedMorph93.png,Stimuli/BlurMorphTrio/EditedMorph93.png,020280right.gif,Stimuli/normal_thumbnails/93right.gif,0,8,8,92,,,,,,,,,,,,,,,,,,,,,,,,,,,,,,,21,-100,-100,283,0.562377636,-2.435925162,93,training,369.9282968,370.4272155,369.9282968,370.4272155,90.47619048,1575406685,1575406692,7.216872931,83,100,-7,-7,1575406683,1575406685,space,4.455780051,,,,,,,,,,,,,,,,,,,,,,,S4,1,40,m,Expert Radiologist,2019_Dec_03_1454,AdjustEyeTrack,3.1.5,60.42540585
4,Stimuli/Morph4.JPG,Stimuli/Morph4.png,Stimuli/BlurLevel5/BlurEditedMorph4,Stimuli/BlurLevel5/BlurEditedMorph4.png,Stimuli/BlurLevel5/NumberedMorphs/BlurEditedMorph4.png,Stimuli/BlurLevel5/OriginalBlur/BlurEditedMorph4.png,Stimuli/BlurMorphTrio/EditedMorph4.png,010010right.gif,Stimuli/normal_thumbnails/4right.gif,0,9,9,3,,,,,,,,,,,,,,,,,,,,,,,,,,,,,,,69,-100,-100,294,1.016841608,-2.283863644,4,training,384.5955345,385.0942322,384.5955345,385.0942322,51.02040816,1575406699,1575406714,14.48458171,39,40,-36,-36,1575406697,1575406699,space,3.234936324,,,,,,,,,,,,,,,,,,,,,,,S4,1,40,m,Expert Radiologist,2019_Dec_03_1454,AdjustEyeTrack,3.1.5,60.42540585
,,,,,,,,,,,,,,,,,,,,,,,,,,,,,,,,,,,,,,,,,,,,,-100,-100,,,,,training,,,,,,,,,,,,,,,,,403.9774843,None,403.9774843,None,403.9774843,None,space,92.33398812,403.9774843,None,,,,,,,,,,,,,S4,1,40,m,Expert Radiologist,2019_Dec_03_1454,AdjustEyeTrack,3.1.5,60.42540585
34,Stimuli/Morph34.JPG,Stimuli/Morph34.png,Stimuli/BlurLevel5/BlurEditedMorph34,Stimuli/BlurLevel5/BlurEditedMorph34.png,Stimuli/BlurLevel5/NumberedMorphs/BlurEditedMorph34.png,Stimuli/BlurLevel5/OriginalBlur/BlurEditedMorph34.png,Stimuli/BlurMorphTrio/EditedMorph34.png,010090right.gif,Stimuli/normal_thumbnails/34right.gif,,,,,0,0,0,0,0,0,0,33,,,,,,,,,,,,,,,,,,,,,,,27,1,1,138,-1.857862064,1.672826516,34,Experiment,,,,,,,,,42,30,4,4,,,,,,,,,,,,,,,497.7951903,498.2928916,497.7951903,498.2928916,94.55782313,1575406813,1575406818,5.350690603,1575406810,1575406813,,,S4,1,40,m,Expert Radiologist,2019_Dec_03_1454,AdjustEyeTrack,3.1.5,60.42540585
102,Stimuli/Morph102.JPG,Stimuli/Morph102.png,Stimuli/BlurLevel5/BlurEditedMorph102,Stimuli/BlurLevel5/BlurEditedMorph102.png,Stimuli/BlurLevel5/NumberedMorphs/BlurEditedMorph102.png,Stimuli/BlurLevel5/OriginalBlur/BlurEditedMorph102.png,Stimuli/BlurMorphTrio/EditedMorph102.png,None,None,,,,,0,0,0,0,0,1,1,101,,,,,,,,,,,,,,,,,,,,,,,14,2,1,265,-0.217889357,-2.490486745,102,Experiment,,,,,,,,,21,118,-16,-16,,,,,,,,,,,,,,,506.1677523,506.6585273,506.1677523,506.6585273,78.23129252,1575406821,1575406828,6.733896971,1575406818,1575406821,,,S4,1,40,m,Expert Radiologist,2019_Dec_03_1454,AdjustEyeTrack,3.1.5,60.42540585
114,Stimuli/Morph114.JPG,Stimuli/Morph114.png,Stimuli/BlurLevel5/BlurEditedMorph114,Stimuli/BlurLevel5/BlurEditedMorph114.png,Stimuli/BlurLevel5/NumberedMorphs/BlurEditedMorph114.png,Stimuli/BlurLevel5/OriginalBlur/BlurEditedMorph114.png,Stimuli/BlurMorphTrio/EditedMorph114.png,None,None,,,,,0,0,0,0,0,2,2,113,,,,,,,,,,,,,,,,,,,,,,,42,3,1,139,-1.886773951,1.640147572,114,Experiment,,,,,,,,,73,102,12,12,,,,,,,,,,,,,,,516.1277414,516.6259027,516.1277414,516.6259027,83.67346939,1575406831,1575406836,4.599833012,1575406828,1575406831,,,S4,1,40,m,Expert Radiologist,2019_Dec_03_1454,AdjustEyeTrack,3.1.5,60.42540585
17,Stimuli/Morph17.JPG,Stimuli/Morph17.png,Stimuli/BlurLevel5/BlurEditedMorph17,Stimuli/BlurLevel5/BlurEditedMorph17.png,Stimuli/BlurLevel5/NumberedMorphs/BlurEditedMorph17.png,Stimuli/BlurLevel5/OriginalBlur/BlurEditedMorph17.png,Stimuli/BlurMorphTrio/EditedMorph17.png,010036right.gif,Stimuli/normal_thumbnails/17right.gif,,,,,0,0,0,0,0,3,3,16,,,,,,,,,,,,,,,,,,,,,,,22,4,1,153,-2.22751631,1.134976249,17,Experiment,,,,,,,,,118,10,7,7,,,,,,,,,,,,,,,523.5097688,524.0087658,523.5097688,524.0087658,90.47619048,1575406838,1575406843,4.517287016,1575406836,1575406838,,,S4,1,40,m,Expert Radiologist,2019_Dec_03_1454,AdjustEyeTrack,3.1.5,60.42540585
32,Stimuli/Morph32.JPG,Stimuli/Morph32.png,Stimuli/BlurLevel5/BlurEditedMorph32,Stimuli/BlurLevel5/BlurEditedMorph32.png,Stimuli/BlurLevel5/NumberedMorphs/BlurEditedMorph32.png,Stimuli/BlurLevel5/OriginalBlur/BlurEditedMorph32.png,Stimuli/BlurMorphTrio/EditedMorph32.png,010080right.gif,Stimuli/normal_thumbnails/32right.gif,,,,,0,0,0,0,0,4,4,31,,,,,,,,,,,,,,,,,,,,,,,51,5,1,166,-2.425739316,0.604804739,32,Experiment,,,,,,,,,95,29,3,3,,,,,,,,,,,,,,,530.7999713,531.3425135,530.7999713,531.3425135,95.91836735,1575406846,1575406855,9.65060997,1575406843,1575406846,,,S4,1,40,m,Expert Radiologist,2019_Dec_03_1454,AdjustEyeTrack,3.1.5,60.42540585
72,Stimuli/Morph72.JPG,Stimuli/Morph72.png,Stimuli/BlurLevel5/BlurEditedMorph72,Stimuli/BlurLevel5/BlurEditedMorph72.png,Stimuli/BlurLevel5/NumberedMorphs/BlurEditedMorph72.png,Stimuli/BlurLevel5/OriginalBlur/BlurEditedMorph72.png,Stimuli/BlurMorphTrio/EditedMorph72.png,020227right.gif,Stimuli/normal_thumbnails/72right.gif,,,,,0,0,0,0,0,5,5,71,,,,,,,,,,,,,,,,,,,,,,,84,6,1,277,0.304673359,-2.481365379,72,Experiment,,,,,,,,,132,40,32,32,,,,,,,,,,,,,,,542.9101933,543.4078674,542.9101933,543.4078674,56.46258503,1575406858,1575406866,8.48341608,1575406856,1575406858,,,S4,1,40,m,Expert Radiologist,2019_Dec_03_1454,AdjustEyeTrack,3.1.5,60.42540585
25,Stimuli/Morph25.JPG,Stimuli/Morph25.png,Stimuli/BlurLevel5/BlurEditedMorph25,Stimuli/BlurLevel5/BlurEditedMorph25.png,Stimuli/BlurLevel5/NumberedMorphs/BlurEditedMorph25.png,Stimuli/BlurLevel5/OriginalBlur/BlurEditedMorph25.png,Stimuli/BlurMorphTrio/EditedMorph25.png,010069right.gif,Stimuli/normal_thumbnails/25right.gif,,,,,0,0,0,0,0,6,6,24,,,,,,,,,,,,,,,,,,,,,,,58,7,1,184,-2.493910126,-0.174391184,25,Experiment,,,,,,,,,20,21,4,4,,,,,,,,,,,,,,,554.1170715,554.6261308,554.1170715,554.6261308,94.55782313,1575406869,1575406873,3.982812881,1575406866,1575406869,,,S4,1,40,m,Expert Radiologist,2019_Dec_03_1454,AdjustEyeTrack,3.1.5,60.42540585
146,Stimuli/Morph146.JPG,Stimuli/Morph146.png,Stimuli/BlurLevel5/BlurEditedMorph146,Stimuli/BlurLevel5/BlurEditedMorph146.png,Stimuli/BlurLevel5/NumberedMorphs/BlurEditedMorph146.png,Stimuli/BlurLevel5/OriginalBlur/BlurEditedMorph146.png,Stimuli/BlurMorphTrio/EditedMorph146.png,None,None,,,,,0,0,0,0,0,7,7,145,,,,,,,,,,,,,,,,,,,,,,,5,8,1,145,-2.047880111,1.433941091,146,Experiment,,,,,,,,,125,11,135,-12,,,,,,,,,,,,,,,560.8422503,561.3413842,560.8422503,561.3413842,83.67346939,1575406876,1575406883,7.184341908,1575406873,1575406876,,,S4,1,40,m,Expert Radiologist,2019_Dec_03_1454,AdjustEyeTrack,3.1.5,60.42540585
52,Stimuli/Morph52.JPG,Stimuli/Morph52.png,Stimuli/BlurLevel5/BlurEditedMorph52,Stimuli/BlurLevel5/BlurEditedMorph52.png,Stimuli/BlurLevel5/NumberedMorphs/BlurEditedMorph52.png,Stimuli/BlurLevel5/OriginalBlur/BlurEditedMorph52.png,Stimuli/BlurMorphTrio/EditedMorph52.png,010148right.gif,Stimuli/normal_thumbnails/52right.gif,,,,,0,0,0,0,0,8,8,51,,,,,,,,,,,,,,,,,,,,,,,41,9,1,151,-2.186549268,1.212024051,52,Experiment,,,,,,,,,19,43,9,9,,,,,,,,,,,,,,,570.8436416,571.3411632,570.8436416,571.3411632,87.75510204,1575406886,1575406891,5.083265066,1575406883,1575406886,,,S4,1,40,m,Expert Radiologist,2019_Dec_03_1454,AdjustEyeTrack,3.1.5,60.42540585
36,Stimuli/Morph36.JPG,Stimuli/Morph36.png,Stimuli/BlurLevel5/BlurEditedMorph36,Stimuli/BlurLevel5/BlurEditedMorph36.png,Stimuli/BlurLevel5/NumberedMorphs/BlurEditedMorph36.png,Stimuli/BlurLevel5/OriginalBlur/BlurEditedMorph36.png,Stimuli/BlurMorphTrio/EditedMorph36.png,010095right.gif,Stimuli/normal_thumbnails/36right.gif,,,,,0,0,0,0,0,9,9,35,,,,,,,,,,,,,,,,,,,,,,,73,10,1,187,-2.481365379,-0.304673359,36,Experiment,,,,,,,,,106,25,11,11,,,,,,,,,,,,,,,578.3585994,578.857517,578.3585994,578.857517,85.03401361,1575406893,1575406906,13.05006289,1575406891,1575406893,,,S4,1,40,m,Expert Radiologist,2019_Dec_03_1454,AdjustEyeTrack,3.1.5,60.42540585
138,Stimuli/Morph138.JPG,Stimuli/Morph138.png,Stimuli/BlurLevel5/BlurEditedMorph138,Stimuli/BlurLevel5/BlurEditedMorph138.png,Stimuli/BlurLevel5/NumberedMorphs/BlurEditedMorph138.png,Stimuli/BlurLevel5/OriginalBlur/BlurEditedMorph138.png,Stimuli/BlurMorphTrio/EditedMorph138.png,None,None,,,,,0,0,0,0,0,10,10,137,,,,,,,,,,,,,,,,,,,,,,,39,11,1,267,-0.130839891,-2.496573837,138,Experiment,,,,,,,,,91,15,123,-24,,,,,,,,,,,,,,,593.9747652,594.474571,593.9747652,594.474571,67.34693878,1575406909,1575406916,7.469979763,1575406907,1575406909,,,S4,1,40,m,Expert Radiologist,2019_Dec_03_1454,AdjustEyeTrack,3.1.5,60.42540585
93,Stimuli/Morph93.JPG,Stimuli/Morph93.png,Stimuli/BlurLevel5/BlurEditedMorph93,Stimuli/BlurLevel5/BlurEditedMorph93.png,Stimuli/BlurLevel5/NumberedMorphs/BlurEditedMorph93.png,Stimuli/BlurLevel5/OriginalBlur/BlurEditedMorph93.png,Stimuli/BlurMorphTrio/EditedMorph93.png,020280right.gif,Stimuli/normal_thumbnails/93right.gif,,,,,0,0,0,0,0,11,11,92,,,,,,,,,,,,,,,,,,,,,,,25,12,1,193,-2.435925162,-0.562377636,93,Experiment,,,,,,,,,79,110,-17,-17,,,,,,,,,,,,,,,604.0744421,604.5765875,604.0744421,604.5765875,76.8707483,1575406919,1575406923,3.649569035,1575406917,1575406919,,,S4,1,40,m,Expert Radiologist,2019_Dec_03_1454,AdjustEyeTrack,3.1.5,60.42540585
20,Stimuli/Morph20.JPG,Stimuli/Morph20.png,Stimuli/BlurLevel5/BlurEditedMorph20,Stimuli/BlurLevel5/BlurEditedMorph20.png,Stimuli/BlurLevel5/NumberedMorphs/BlurEditedMorph20.png,Stimuli/BlurLevel5/OriginalBlur/BlurEditedMorph20.png,Stimuli/BlurMorphTrio/EditedMorph20.png,010046right.gif,Stimuli/normal_thumbnails/20right.gif,,,,,0,0,0,0,0,12,12,19,,,,,,,,,,,,,,,,,,,,,,,13,13,1,172,-2.475670172,0.347932752,20,Experiment,,,,,,,,,66,18,2,2,,,,,,,,,,,,,,,610.8164318,611.3077859,610.8164318,611.3077859,97.27891156,1575406926,1575406933,7.099412918,1575406923,1575406926,,,S4,1,40,m,Expert Radiologist,2019_Dec_03_1454,AdjustEyeTrack,3.1.5,60.42540585
53,Stimuli/Morph53.JPG,Stimuli/Morph53.png,Stimuli/BlurLevel5/BlurEditedMorph53,Stimuli/BlurLevel5/BlurEditedMorph53.png,Stimuli/BlurLevel5/NumberedMorphs/BlurEditedMorph53.png,Stimuli/BlurLevel5/OriginalBlur/BlurEditedMorph53.png,Stimuli/BlurMorphTrio/EditedMorph53.png,010149right.gif,Stimuli/normal_thumbnails/53right.gif,,,,,0,0,0,0,0,13,13,52,,,,,,,,,,,,,,,,,,,,,,,27,14,1,48,1.672826516,1.857862064,53,Experiment,,,,,,,,,112,43,10,10,,,,,,,,,,,,,,,620.8939759,621.3928854,620.8939759,621.3928854,86.39455782,1575406936,1575406942,6.100432873,1575406933,1575406936,,,S4,1,40,m,Expert Radiologist,2019_Dec_03_1454,AdjustEyeTrack,3.1.5,60.42540585
96,Stimuli/Morph96.JPG,Stimuli/Morph96.png,Stimuli/BlurLevel5/BlurEditedMorph96,Stimuli/BlurLevel5/BlurEditedMorph96.png,Stimuli/BlurLevel5/NumberedMorphs/BlurEditedMorph96.png,Stimuli/BlurLevel5/OriginalBlur/BlurEditedMorph96.png,Stimuli/BlurMorphTrio/EditedMorph96.png,020292right.gif,Stimuli/normal_thumbnails/96right.gif,,,,,0,0,0,0,0,14,14,95,,,,,,,,,,,,,,,,,,,,,,,82,15,1,153,-2.22751631,1.134976249,96,Experiment,,,,,,,,,81,108,-12,-12,,,,,,,,,,,,,,,629.607947,630.1079854,629.607947,630.1079854,83.67346939,1575406944,1575406949,4.532100916,1575406942,1575406944,,,S4,1,40,m,Expert Radiologist,2019_Dec_03_1454,AdjustEyeTrack,3.1.5,60.42540585
11,Stimuli/Morph11.JPG,Stimuli/Morph11.png,Stimuli/BlurLevel5/BlurEditedMorph11,Stimuli/BlurLevel5/BlurEditedMorph11.png,Stimuli/BlurLevel5/NumberedMorphs/BlurEditedMorph11.png,Stimuli/BlurLevel5/OriginalBlur/BlurEditedMorph11.png,Stimuli/BlurMorphTrio/EditedMorph11.png,010024right.gif,Stimuli/normal_thumbnails/11right.gif,,,,,0,0,0,0,0,15,15,10,,,,,,,,,,,,,,,,,,,,,,,54,16,1,76,0.604804739,2.425739316,11,Experiment,,,,,,,,,20,11,0,0,,,,,,,,,,,,,,,636.8422022,637.3424354,636.8422022,637.3424354,100,1575406952,1575406954,2.032066107,1575406949,1575406952,,,S4,1,40,m,Expert Radiologist,2019_Dec_03_1454,AdjustEyeTrack,3.1.5,60.42540585
67,Stimuli/Morph67.JPG,Stimuli/Morph67.png,Stimuli/BlurLevel5/BlurEditedMorph67,Stimuli/BlurLevel5/BlurEditedMorph67.png,Stimuli/BlurLevel5/NumberedMorphs/BlurEditedMorph67.png,Stimuli/BlurLevel5/OriginalBlur/BlurEditedMorph67.png,Stimuli/BlurMorphTrio/EditedMorph67.png,020217right.gif,Stimuli/normal_thumbnails/67right.gif,,,,,0,0,0,0,0,16,16,66,,,,,,,,,,,,,,,,,,,,,,,42,17,1,239,-1.287595187,-2.142918252,67,Experiment,,,,,,,,,72,72,-5,-5,,,,,,,,,,,,,,,642.0300687,642.5235965,642.0300687,642.5235965,93.19727891,1575406957,1575406960,3.367455006,1575406954,1575406957,,,S4,1,40,m,Expert Radiologist,2019_Dec_03_1454,AdjustEyeTrack,3.1.5,60.42540585
133,Stimuli/Morph133.JPG,Stimuli/Morph133.png,Stimuli/BlurLevel5/BlurEditedMorph133,Stimuli/BlurLevel5/BlurEditedMorph133.png,Stimuli/BlurLevel5/NumberedMorphs/BlurEditedMorph133.png,Stimuli/BlurLevel5/OriginalBlur/BlurEditedMorph133.png,Stimuli/BlurMorphTrio/EditedMorph133.png,None,None,,,,,0,0,0,0,0,17,17,132,,,,,,,,,,,,,,,,,,,,,,,70,18,1,113,-0.976827821,2.301262134,133,Experiment,,,,,,,,,27,5,128,-19,,,,,,,,,,,,,,,648.0263236,648.5236491,648.0263236,648.5236491,74.14965986,1575406963,1575406968,5.55307126,1575406961,1575406963,,,S4,1,40,m,Expert Radiologist,2019_Dec_03_1454,AdjustEyeTrack,3.1.5,60.42540585
6,Stimuli/Morph6.JPG,Stimuli/Morph6.png,Stimuli/BlurLevel5/BlurEditedMorph6,Stimuli/BlurLevel5/BlurEditedMorph6.png,Stimuli/BlurLevel5/NumberedMorphs/BlurEditedMorph6.png,Stimuli/BlurLevel5/OriginalBlur/BlurEditedMorph6.png,Stimuli/BlurMorphTrio/EditedMorph6.png,010012right.gif,Stimuli/normal_thumbnails/6right.gif,,,,,0,0,0,0,0,18,18,5,,,,,,,,,,,,,,,,,,,,,,,28,19,1,46,1.736645926,1.798349501,6,Experiment,,,,,,,,,61,5,1,1,,,,,,,,,,,,,,,656.1433023,656.6408004,656.1433023,656.6408004,98.63945578,1575406971,1575406979,8.034552813,1575406969,1575406971,,,S4,1,40,m,Expert Radiologist,2019_Dec_03_1454,AdjustEyeTrack,3.1.5,60.42540585
27,Stimuli/Morph27.JPG,Stimuli/Morph27.png,Stimuli/BlurLevel5/BlurEditedMorph27,Stimuli/BlurLevel5/BlurEditedMorph27.png,Stimuli/BlurLevel5/NumberedMorphs/BlurEditedMorph27.png,Stimuli/BlurLevel5/OriginalBlur/BlurEditedMorph27.png,Stimuli/BlurMorphTrio/EditedMorph27.png,010072right.gif,Stimuli/normal_thumbnails/27right.gif,,,,,0,0,0,0,0,19,19,26,,,,,,,,,,,,,,,,,,,,,,,25,20,1,291,0.895919874,-2.333951066,27,Experiment,,,,,,,,,21,30,-3,-3,,,,,,,,,,,,,,,666.8752478,667.3747238,666.8752478,667.3747238,95.91836735,1575406982,1575406985,3.690018177,1575406979,1575406982,,,S4,1,40,m,Expert Radiologist,2019_Dec_03_1454,AdjustEyeTrack,3.1.5,60.42540585
90,Stimuli/Morph90.JPG,Stimuli/Morph90.png,Stimuli/BlurLevel5/BlurEditedMorph90,Stimuli/BlurLevel5/BlurEditedMorph90.png,Stimuli/BlurLevel5/NumberedMorphs/BlurEditedMorph90.png,Stimuli/BlurLevel5/OriginalBlur/BlurEditedMorph90.png,Stimuli/BlurMorphTrio/EditedMorph90.png,020275right.gif,Stimuli/normal_thumbnails/90right.gif,,,,,0,0,0,0,0,20,20,89,,,,,,,,,,,,,,,,,,,,,,,49,21,1,209,-2.186549268,-1.212024051,90,Experiment,,,,,,,,,40,115,-25,-25,,,,,,,,,,,,,,,673.4769348,673.9746258,673.4769348,673.9746258,65.98639456,1575406988,1575406996,7.699289083,1575406986,1575406988,,,S4,1,40,m,Expert Radiologist,2019_Dec_03_1454,AdjustEyeTrack,3.1.5,60.42540585
63,Stimuli/Morph63.JPG,Stimuli/Morph63.png,Stimuli/BlurLevel5/BlurEditedMorph63,Stimuli/BlurLevel5/BlurEditedMorph63.png,Stimuli/BlurLevel5/NumberedMorphs/BlurEditedMorph63.png,Stimuli/BlurLevel5/OriginalBlur/BlurEditedMorph63.png,Stimuli/BlurMorphTrio/EditedMorph63.png,020206right.gif,Stimuli/normal_thumbnails/63right.gif,,,,,0,0,0,0,0,21,21,62,,,,,,,,,,,,,,,,,,,,,,,89,22,1,206,-2.246985116,-1.095927867,63,Experiment,,,,,,,,,12,69,-6,-6,,,,,,,,,,,,,,,684.1424715,684.6409023,684.1424715,684.6409023,91.83673469,1575406999,1575407009,9.533097982,1575406996,1575406999,,,S4,1,40,m,Expert Radiologist,2019_Dec_03_1454,AdjustEyeTrack,3.1.5,60.42540585
118,Stimuli/Morph118.JPG,Stimuli/Morph118.png,Stimuli/BlurLevel5/BlurEditedMorph118,Stimuli/BlurLevel5/BlurEditedMorph118.png,Stimuli/BlurLevel5/NumberedMorphs/BlurEditedMorph118.png,Stimuli/BlurLevel5/OriginalBlur/BlurEditedMorph118.png,Stimuli/BlurMorphTrio/EditedMorph118.png,None,None,,,,,0,0,0,0,0,22,22,117,,,,,,,,,,,,,,,,,,,,,,,85,23,1,176,-2.493910126,0.174391184,118,Experiment,,,,,,,,,5,112,6,6,,,,,,,,,,,,,,,696.3106766,696.8070402,696.3106766,696.8070402,91.83673469,1575407011,1575407015,3.966490984,1575407009,1575407011,,,S4,1,40,m,Expert Radiologist,2019_Dec_03_1454,AdjustEyeTrack,3.1.5,60.42540585
58,Stimuli/Morph58.JPG,Stimuli/Morph58.png,Stimuli/BlurLevel5/BlurEditedMorph58,Stimuli/BlurLevel5/BlurEditedMorph58.png,Stimuli/BlurLevel5/NumberedMorphs/BlurEditedMorph58.png,Stimuli/BlurLevel5/OriginalBlur/BlurEditedMorph58.png,Stimuli/BlurMorphTrio/EditedMorph58.png,010159right.gif,Stimuli/normal_thumbnails/58right.gif,,,,,0,0,0,0,0,23,23,57,,,,,,,,,,,,,,,,,,,,,,,6,24,1,236,-1.397982259,-2.072593931,58,Experiment,,,,,,,,,131,41,17,17,,,,,,,,,,,,,,,703.4901261,703.9898204,703.4901261,703.9898204,76.8707483,1575407018,1575407023,5.053743839,1575407015,1575407018,,,S4,1,40,m,Expert Radiologist,2019_Dec_03_1454,AdjustEyeTrack,3.1.5,60.42540585
134,Stimuli/Morph134.JPG,Stimuli/Morph134.png,Stimuli/BlurLevel5/BlurEditedMorph134,Stimuli/BlurLevel5/BlurEditedMorph134.png,Stimuli/BlurLevel5/NumberedMorphs/BlurEditedMorph134.png,Stimuli/BlurLevel5/OriginalBlur/BlurEditedMorph134.png,Stimuli/BlurMorphTrio/EditedMorph134.png,None,None,,,,,0,0,0,0,0,24,24,133,,,,,,,,,,,,,,,,,,,,,,,36,25,1,193,-2.435925162,-0.562377636,134,Experiment,,,,,,,,,75,3,131,-16,,,,,,,,,,,,,,,711.7159164,712.2433109,711.7159164,712.2433109,78.23129252,1575407027,1575407034,7.767245054,1575407024,1575407027,,,S4,1,40,m,Expert Radiologist,2019_Dec_03_1454,AdjustEyeTrack,3.1.5,60.42540585
66,Stimuli/Morph66.JPG,Stimuli/Morph66.png,Stimuli/BlurLevel5/BlurEditedMorph66,Stimuli/BlurLevel5/BlurEditedMorph66.png,Stimuli/BlurLevel5/NumberedMorphs/BlurEditedMorph66.png,Stimuli/BlurLevel5/OriginalBlur/BlurEditedMorph66.png,Stimuli/BlurMorphTrio/EditedMorph66.png,020212right.gif,Stimuli/normal_thumbnails/66right.gif,,,,,0,0,0,0,0,25,25,65,,,,,,,,,,,,,,,,,,,,,,,47,26,1,61,1.212024051,2.186549268,66,Experiment,,,,,,,,,82,69,-3,-3,,,,,,,,,,,,,,,722.2415755,722.7391132,722.2415755,722.7391132,95.91836735,1575407037,1575407042,4.683519125,1575407035,1575407037,,,S4,1,40,m,Expert Radiologist,2019_Dec_03_1454,AdjustEyeTrack,3.1.5,60.42540585
51,Stimuli/Morph51.JPG,Stimuli/Morph51.png,Stimuli/BlurLevel5/BlurEditedMorph51,Stimuli/BlurLevel5/BlurEditedMorph51.png,Stimuli/BlurLevel5/NumberedMorphs/BlurEditedMorph51.png,Stimuli/BlurLevel5/OriginalBlur/BlurEditedMorph51.png,Stimuli/BlurMorphTrio/EditedMorph51.png,010146right.gif,Stimuli/normal_thumbnails/51right.gif,,,,,0,0,0,0,0,26,26,50,,,,,,,,,,,,,,,,,,,,,,,6,27,1,19,2.363796439,0.813920386,51,Experiment,,,,,,,,,30,48,3,3,,,,,,,,,,,,,,,729.5880204,730.0897812,729.5880204,730.0897812,95.91836735,1575407044,1575407051,6.183728933,1575407042,1575407044,,,S4,1,40,m,Expert Radiologist,2019_Dec_03_1454,AdjustEyeTrack,3.1.5,60.42540585
137,Stimuli/Morph137.JPG,Stimuli/Morph137.png,Stimuli/BlurLevel5/BlurEditedMorph137,Stimuli/BlurLevel5/BlurEditedMorph137.png,Stimuli/BlurLevel5/NumberedMorphs/BlurEditedMorph137.png,Stimuli/BlurLevel5/OriginalBlur/BlurEditedMorph137.png,Stimuli/BlurMorphTrio/EditedMorph137.png,None,None,,,,,0,0,0,0,0,27,27,136,,,,,,,,,,,,,,,,,,,,,,,2,28,1,68,0.936516484,2.317959636,137,Experiment,,,,,,,,,50,8,129,-18,,,,,,,,,,,,,,,738.2471735,738.7387229,738.2471735,738.7387229,75.51020408,1575407053,1575407060,6.632874012,1575407051,1575407053,,,S4,1,40,m,Expert Radiologist,2019_Dec_03_1454,AdjustEyeTrack,3.1.5,60.42540585
21,Stimuli/Morph21.JPG,Stimuli/Morph21.png,Stimuli/BlurLevel5/BlurEditedMorph21,Stimuli/BlurLevel5/BlurEditedMorph21.png,Stimuli/BlurLevel5/NumberedMorphs/BlurEditedMorph21.png,Stimuli/BlurLevel5/OriginalBlur/BlurEditedMorph21.png,Stimuli/BlurMorphTrio/EditedMorph21.png,010049right.gif,Stimuli/normal_thumbnails/21right.gif,,,,,0,0,0,0,0,28,28,20,,,,,,,,,,,,,,,,,,,,,,,20,29,1,290,0.855050358,-2.349231552,21,Experiment,,,,,,,,,28,28,-7,-7,,,,,,,,,,,,,,,747.5121481,748.0063438,747.5121481,748.0063438,90.47619048,1575407062,1575407064,1.685562134,1575407060,1575407062,,,S4,1,40,m,Expert Radiologist,2019_Dec_03_1454,AdjustEyeTrack,3.1.5,60.42540585
89,Stimuli/Morph89.JPG,Stimuli/Morph89.png,Stimuli/BlurLevel5/BlurEditedMorph89,Stimuli/BlurLevel5/BlurEditedMorph89.png,Stimuli/BlurLevel5/NumberedMorphs/BlurEditedMorph89.png,Stimuli/BlurLevel5/OriginalBlur/BlurEditedMorph89.png,Stimuli/BlurMorphTrio/EditedMorph89.png,020273right.gif,Stimuli/normal_thumbnails/89right.gif,,,,,0,0,0,0,0,29,29,88,,,,,,,,,,,,,,,,,,,,,,,28,30,1,73,0.730929262,2.39076189,89,Experiment,,,,,,,,,47,107,-18,-18,,,,,,,,,,,,,,,752.174758,752.6726717,752.174758,752.6726717,75.51020408,1575407067,1575407071,4.448875904,1575407064,1575407067,,,S4,1,40,m,Expert Radiologist,2019_Dec_03_1454,AdjustEyeTrack,3.1.5,60.42540585
15,Stimuli/Morph15.JPG,Stimuli/Morph15.png,Stimuli/BlurLevel5/BlurEditedMorph15,Stimuli/BlurLevel5/BlurEditedMorph15.png,Stimuli/BlurLevel5/NumberedMorphs/BlurEditedMorph15.png,Stimuli/BlurLevel5/OriginalBlur/BlurEditedMorph15.png,Stimuli/BlurMorphTrio/EditedMorph15.png,010031right.gif,Stimuli/normal_thumbnails/15right.gif,,,,,0,0,0,0,0,30,30,14,,,,,,,,,,,,,,,,,,,,,,,81,31,1,286,0.68909339,-2.40315424,15,Experiment,,,,,,,,,39,21,-6,-6,,,,,,,,,,,,,,,759.0740417,759.5727401,759.0740417,759.5727401,91.83673469,1575407074,1575407078,3.683771849,1575407072,1575407074,,,S4,1,40,m,Expert Radiologist,2019_Dec_03_1454,AdjustEyeTrack,3.1.5,60.42540585
76,Stimuli/Morph76.JPG,Stimuli/Morph76.png,Stimuli/BlurLevel5/BlurEditedMorph76,Stimuli/BlurLevel5/BlurEditedMorph76.png,Stimuli/BlurLevel5/NumberedMorphs/BlurEditedMorph76.png,Stimuli/BlurLevel5/OriginalBlur/BlurEditedMorph76.png,Stimuli/BlurMorphTrio/EditedMorph76.png,020234right.gif,Stimuli/normal_thumbnails/76right.gif,,,,,0,0,0,0,0,31,31,75,,,,,,,,,,,,,,,,,,,,,,,63,32,1,176,-2.493910126,0.174391184,76,Experiment,,,,,,,,,3,123,-47,-47,,,,,,,,,,,,,,,765.6566887,766.1563231,765.6566887,766.1563231,36.05442177,1575407081,1575407086,5.066495895,1575407078,1575407080,,,S4,1,40,m,Expert Radiologist,2019_Dec_03_1454,AdjustEyeTrack,3.1.5,60.42540585
43,Stimuli/Morph43.JPG,Stimuli/Morph43.png,Stimuli/BlurLevel5/BlurEditedMorph43,Stimuli/BlurLevel5/BlurEditedMorph43.png,Stimuli/BlurLevel5/NumberedMorphs/BlurEditedMorph43.png,Stimuli/BlurLevel5/OriginalBlur/BlurEditedMorph43.png,Stimuli/BlurMorphTrio/EditedMorph43.png,010124right.gif,Stimuli/normal_thumbnails/43right.gif,,,,,0,0,0,0,0,32,32,42,,,,,,,,,,,,,,,,,,,,,,,72,33,1,26,2.246985116,1.095927867,43,Experiment,,,,,,,,,79,53,-10,-10,,,,,,,,,,,,,,,773.1810195,773.6897284,773.1810195,773.6897284,86.39455782,1575407088,1575407094,5.682685137,1575407086,1575407088,,,S4,1,40,m,Expert Radiologist,2019_Dec_03_1454,AdjustEyeTrack,3.1.5,60.42540585
9,Stimuli/Morph9.JPG,Stimuli/Morph9.png,Stimuli/BlurLevel5/BlurEditedMorph9,Stimuli/BlurLevel5/BlurEditedMorph9.png,Stimuli/BlurLevel5/NumberedMorphs/BlurEditedMorph9.png,Stimuli/BlurLevel5/OriginalBlur/BlurEditedMorph9.png,Stimuli/BlurMorphTrio/EditedMorph9.png,010015right.gif,Stimuli/normal_thumbnails/9right.gif,,,,,0,0,0,0,0,33,33,8,,,,,,,,,,,,,,,,,,,,,,,60,34,1,149,-2.142918252,1.287595187,9,Experiment,,,,,,,,,5,5,4,4,,,,,,,,,,,,,,,781.8401216,782.3380798,781.8401216,782.3380798,94.55782313,1575407097,1575407098,1.300987244,1575407094,1575407097,,,S4,1,40,m,Expert Radiologist,2019_Dec_03_1454,AdjustEyeTrack,3.1.5,60.42540585
129,Stimuli/Morph129.JPG,Stimuli/Morph129.png,Stimuli/BlurLevel5/BlurEditedMorph129,Stimuli/BlurLevel5/BlurEditedMorph129.png,Stimuli/BlurLevel5/NumberedMorphs/BlurEditedMorph129.png,Stimuli/BlurLevel5/OriginalBlur/BlurEditedMorph129.png,Stimuli/BlurMorphTrio/EditedMorph129.png,None,None,,,,,0,0,0,0,0,34,34,128,,,,,,,,,,,,,,,,,,,,,,,96,35,1,260,-0.434120444,-2.462019383,129,Experiment,,,,,,,,,84,89,40,40,,,,,,,,,,,,,,,786.4898645,786.991627,786.4898645,786.991627,45.57823129,1575407101,1575407105,3.618385792,1575407098,1575407101,,,S4,1,40,m,Expert Radiologist,2019_Dec_03_1454,AdjustEyeTrack,3.1.5,60.42540585
147,Stimuli/Morph147.JPG,Stimuli/Morph147.png,Stimuli/BlurLevel5/BlurEditedMorph147,Stimuli/BlurLevel5/BlurEditedMorph147.png,Stimuli/BlurLevel5/NumberedMorphs/BlurEditedMorph147.png,Stimuli/BlurLevel5/OriginalBlur/BlurEditedMorph147.png,Stimuli/BlurMorphTrio/EditedMorph147.png,None,None,,,,,0,0,0,0,0,35,35,146,,,,,,,,,,,,,,,,,,,,,,,43,36,1,13,2.435925162,0.562377636,147,Experiment,,,,,,,,,65,3,144,-3,,,,,,,,,,,,,,,792.6787024,793.1718644,792.6787024,793.1718644,95.91836735,1575407108,1575407113,5.450883865,1575407105,1575407108,,,S4,1,40,m,Expert Radiologist,2019_Dec_03_1454,AdjustEyeTrack,3.1.5,60.42540585
73,Stimuli/Morph73.JPG,Stimuli/Morph73.png,Stimuli/BlurLevel5/BlurEditedMorph73,Stimuli/BlurLevel5/BlurEditedMorph73.png,Stimuli/BlurLevel5/NumberedMorphs/BlurEditedMorph73.png,Stimuli/BlurLevel5/OriginalBlur/BlurEditedMorph73.png,Stimuli/BlurMorphTrio/EditedMorph73.png,020230right.gif,Stimuli/normal_thumbnails/73right.gif,,,,,0,0,0,0,0,36,36,72,,,,,,,,,,,,,,,,,,,,,,,24,37,1,254,-0.68909339,-2.40315424,73,Experiment,,,,,,,,,42,72,1,1,,,,,,,,,,,,,,,800.9052475,801.4054156,800.9052475,801.4054156,98.63945578,1575407116,1575407122,5.886766195,1575407113,1575407116,,,S4,1,40,m,Expert Radiologist,2019_Dec_03_1454,AdjustEyeTrack,3.1.5,60.42540585
49,Stimuli/Morph49.JPG,Stimuli/Morph49.png,Stimuli/BlurLevel5/BlurEditedMorph49,Stimuli/BlurLevel5/BlurEditedMorph49.png,Stimuli/BlurLevel5/NumberedMorphs/BlurEditedMorph49.png,Stimuli/BlurLevel5/OriginalBlur/BlurEditedMorph49.png,Stimuli/BlurMorphTrio/EditedMorph49.png,010135right.gif,Stimuli/normal_thumbnails/49right.gif,,,,,0,0,0,0,0,37,37,48,,,,,,,,,,,,,,,,,,,,,,,85,38,1,268,-0.087248742,-2.498477068,49,Experiment,,,,,,,,,103,48,1,1,,,,,,,,,,,,,,,809.424554,809.9214489,809.424554,809.9214489,98.63945578,1575407124,1575407129,4.351082325,1575407122,1575407124,,,S4,1,40,m,Expert Radiologist,2019_Dec_03_1454,AdjustEyeTrack,3.1.5,60.42540585
56,Stimuli/Morph56.JPG,Stimuli/Morph56.png,Stimuli/BlurLevel5/BlurEditedMorph56,Stimuli/BlurLevel5/BlurEditedMorph56.png,Stimuli/BlurLevel5/NumberedMorphs/BlurEditedMorph56.png,Stimuli/BlurLevel5/OriginalBlur/BlurEditedMorph56.png,Stimuli/BlurMorphTrio/EditedMorph56.png,010157right.gif,Stimuli/normal_thumbnails/56right.gif,,,,,0,0,0,0,0,38,38,55,,,,,,,,,,,,,,,,,,,,,,,18,39,1,125,-1.433941091,2.047880111,56,Experiment,,,,,,,,,124,53,3,3,,,,,,,,,,,,,,,816.2107583,816.7052623,816.2107583,816.7052623,95.91836735,1575407131,1575407135,3.531216145,1575407129,1575407131,,,S4,1,40,m,Expert Radiologist,2019_Dec_03_1454,AdjustEyeTrack,3.1.5,60.42540585
80,Stimuli/Morph80.JPG,Stimuli/Morph80.png,Stimuli/BlurLevel5/BlurEditedMorph80,Stimuli/BlurLevel5/BlurEditedMorph80.png,Stimuli/BlurLevel5/NumberedMorphs/BlurEditedMorph80.png,Stimuli/BlurLevel5/OriginalBlur/BlurEditedMorph80.png,Stimuli/BlurMorphTrio/EditedMorph80.png,020240right.gif,Stimuli/normal_thumbnails/80right.gif,,,,,0,0,0,0,0,39,39,79,,,,,,,,,,,,,,,,,,,,,,,83,40,1,81,0.391086163,2.469220851,80,Experiment,,,,,,,,,127,124,-44,-44,,,,,,,,,,,,,,,822.8396697,823.3379593,822.8396697,823.3379593,40.13605442,1575407138,1575407140,2.352702141,1575407135,1575407138,,,S4,1,40,m,Expert Radiologist,2019_Dec_03_1454,AdjustEyeTrack,3.1.5,60.42540585
81,Stimuli/Morph81.JPG,Stimuli/Morph81.png,Stimuli/BlurLevel5/BlurEditedMorph81,Stimuli/BlurLevel5/BlurEditedMorph81.png,Stimuli/BlurLevel5/NumberedMorphs/BlurEditedMorph81.png,Stimuli/BlurLevel5/OriginalBlur/BlurEditedMorph81.png,Stimuli/BlurMorphTrio/EditedMorph81.png,020245right.gif,Stimuli/normal_thumbnails/81right.gif,,,,,0,0,0,0,0,40,40,80,,,,,,,,,,,,,,,,,,,,,,,2,41,1,64,1.095927867,2.246985116,81,Experiment,,,,,,,,,9,115,-34,-34,,,,,,,,,,,,,,,827.8636249,828.3593864,827.8636249,828.3593864,53.7414966,1575407143,1575407146,3.635960102,1575407140,1575407143,,,S4,1,40,m,Expert Radiologist,2019_Dec_03_1454,AdjustEyeTrack,3.1.5,60.42540585
7,Stimuli/Morph7.JPG,Stimuli/Morph7.png,Stimuli/BlurLevel5/BlurEditedMorph7,Stimuli/BlurLevel5/BlurEditedMorph7.png,Stimuli/BlurLevel5/NumberedMorphs/BlurEditedMorph7.png,Stimuli/BlurLevel5/OriginalBlur/BlurEditedMorph7.png,Stimuli/BlurMorphTrio/EditedMorph7.png,010013right.gif,Stimuli/normal_thumbnails/7right.gif,,,,,0,0,0,0,0,41,41,6,,,,,,,,,,,,,,,,,,,,,,,64,42,1,161,-2.363796439,0.813920386,7,Experiment,,,,,,,,,126,8,-1,-1,,,,,,,,,,,,,,,833.8578727,834.3542902,833.8578727,834.3542902,98.63945578,1575407149,1575407156,7.299080849,1575407147,1575407149,,,S4,1,40,m,Expert Radiologist,2019_Dec_03_1454,AdjustEyeTrack,3.1.5,60.42540585
105,Stimuli/Morph105.JPG,Stimuli/Morph105.png,Stimuli/BlurLevel5/BlurEditedMorph105,Stimuli/BlurLevel5/BlurEditedMorph105.png,Stimuli/BlurLevel5/NumberedMorphs/BlurEditedMorph105.png,Stimuli/BlurLevel5/OriginalBlur/BlurEditedMorph105.png,Stimuli/BlurMorphTrio/EditedMorph105.png,None,None,,,,,0,0,0,0,0,42,42,104,,,,,,,,,,,,,,,,,,,,,,,50,43,1,24,2.283863644,1.016841608,105,Experiment,,,,,,,,,29,114,-9,-9,,,,,,,,,,,,,,,843.6495041,844.1548874,843.6495041,844.1548874,87.75510204,1575407159,1575407164,5.481667757,1575407156,1575407158,,,S4,1,40,m,Expert Radiologist,2019_Dec_03_1454,AdjustEyeTrack,3.1.5,60.42540585
95,Stimuli/Morph95.JPG,Stimuli/Morph95.png,Stimuli/BlurLevel5/BlurEditedMorph95,Stimuli/BlurLevel5/BlurEditedMorph95.png,Stimuli/BlurLevel5/NumberedMorphs/BlurEditedMorph95.png,Stimuli/BlurLevel5/OriginalBlur/BlurEditedMorph95.png,Stimuli/BlurMorphTrio/EditedMorph95.png,020287right.gif,Stimuli/normal_thumbnails/95right.gif,,,,,0,0,0,0,0,43,43,94,,,,,,,,,,,,,,,,,,,,,,,7,44,1,128,-1.539153688,1.970026884,95,Experiment,,,,,,,,,61,102,-7,-7,,,,,,,,,,,,,,,851.8881943,852.3881925,851.8881943,852.3881925,90.47619048,1575407167,1575407172,5.417860985,1575407164,1575407167,,,S4,1,40,m,Expert Radiologist,2019_Dec_03_1454,AdjustEyeTrack,3.1.5,60.42540585
97,Stimuli/Morph97.JPG,Stimuli/Morph97.png,Stimuli/BlurLevel5/BlurEditedMorph97,Stimuli/BlurLevel5/BlurEditedMorph97.png,Stimuli/BlurLevel5/NumberedMorphs/BlurEditedMorph97.png,Stimuli/BlurLevel5/OriginalBlur/BlurEditedMorph97.png,Stimuli/BlurMorphTrio/EditedMorph97.png,020294right.gif,Stimuli/normal_thumbnails/97right.gif,,,,,0,0,0,0,0,44,44,96,,,,,,,,,,,,,,,,,,,,,,,53,45,1,199,-2.363796439,-0.813920386,97,Experiment,,,,,,,,,49,110,-13,-13,,,,,,,,,,,,,,,860.4433332,860.9376132,860.4433332,860.9376132,82.31292517,1575407175,1575407179,4.098658085,1575407172,1575407175,,,S4,1,40,m,Expert Radiologist,2019_Dec_03_1454,AdjustEyeTrack,3.1.5,60.42540585
65,Stimuli/Morph65.JPG,Stimuli/Morph65.png,Stimuli/BlurLevel5/BlurEditedMorph65,Stimuli/BlurLevel5/BlurEditedMorph65.png,Stimuli/BlurLevel5/NumberedMorphs/BlurEditedMorph65.png,Stimuli/BlurLevel5/OriginalBlur/BlurEditedMorph65.png,Stimuli/BlurMorphTrio/EditedMorph65.png,020209right.gif,Stimuli/normal_thumbnails/65right.gif,,,,,0,0,0,0,0,45,45,64,,,,,,,,,,,,,,,,,,,,,,,12,46,1,322,1.970026884,-1.539153688,65,Experiment,,,,,,,,,136,41,24,24,,,,,,,,,,,,,,,867.8053836,868.3049643,867.8053836,868.3049643,67.34693878,1575407183,1575407188,5.166377068,1575407180,1575407183,,,S4,1,40,m,Expert Radiologist,2019_Dec_03_1454,AdjustEyeTrack,3.1.5,60.42540585
61,Stimuli/Morph61.JPG,Stimuli/Morph61.png,Stimuli/BlurLevel5/BlurEditedMorph61,Stimuli/BlurLevel5/BlurEditedMorph61.png,Stimuli/BlurLevel5/NumberedMorphs/BlurEditedMorph61.png,Stimuli/BlurLevel5/OriginalBlur/BlurEditedMorph61.png,Stimuli/BlurMorphTrio/EditedMorph61.png,020201right.gif,Stimuli/normal_thumbnails/61right.gif,,,,,0,0,0,0,0,46,46,60,,,,,,,,,,,,,,,,,,,,,,,74,47,1,117,-1.134976249,2.22751631,61,Experiment,,,,,,,,,36,39,22,22,,,,,,,,,,,,,,,875.8949056,876.4043089,875.8949056,876.4043089,70.06802721,1575407191,1575407195,3.86560607,1575407188,1575407191,,,S4,1,40,m,Expert Radiologist,2019_Dec_03_1454,AdjustEyeTrack,3.1.5,60.42540585
106,Stimuli/Morph106.JPG,Stimuli/Morph106.png,Stimuli/BlurLevel5/BlurEditedMorph106,Stimuli/BlurLevel5/BlurEditedMorph106.png,Stimuli/BlurLevel5/NumberedMorphs/BlurEditedMorph106.png,Stimuli/BlurLevel5/OriginalBlur/BlurEditedMorph106.png,Stimuli/BlurMorphTrio/EditedMorph106.png,None,None,,,,,0,0,0,0,0,47,47,105,,,,,,,,,,,,,,,,,,,,,,,85,48,1,166,-2.425739316,0.604804739,106,Experiment,,,,,,,,,64,121,-15,-15,,,,,,,,,,,,,,,882.5710943,883.0706838,882.5710943,883.0706838,79.59183673,1575407197,1575407203,5.582637072,1575407195,1575407197,,,S4,1,40,m,Expert Radiologist,2019_Dec_03_1454,AdjustEyeTrack,3.1.5,60.42540585
48,Stimuli/Morph48.JPG,Stimuli/Morph48.png,Stimuli/BlurLevel5/BlurEditedMorph48,Stimuli/BlurLevel5/BlurEditedMorph48.png,Stimuli/BlurLevel5/NumberedMorphs/BlurEditedMorph48.png,Stimuli/BlurLevel5/OriginalBlur/BlurEditedMorph48.png,Stimuli/BlurMorphTrio/EditedMorph48.png,010131right.gif,Stimuli/normal_thumbnails/48right.gif,,,,,0,0,0,0,0,48,48,47,,,,,,,,,,,,,,,,,,,,,,,87,49,1,247,-0.976827821,-2.301262134,48,Experiment,,,,,,,,,137,49,-1,-1,,,,,,,,,,,,,,,890.6942742,891.1871717,890.6942742,891.1871717,98.63945578,1575407206,1575407213,7.300291061,1575407203,1575407206,,,S4,1,40,m,Expert Radiologist,2019_Dec_03_1454,AdjustEyeTrack,3.1.5,60.42540585
12,Stimuli/Morph12.JPG,Stimuli/Morph12.png,Stimuli/BlurLevel5/BlurEditedMorph12,Stimuli/BlurLevel5/BlurEditedMorph12.png,Stimuli/BlurLevel5/NumberedMorphs/BlurEditedMorph12.png,Stimuli/BlurLevel5/OriginalBlur/BlurEditedMorph12.png,Stimuli/BlurMorphTrio/EditedMorph12.png,010026right.gif,Stimuli/normal_thumbnails/12right.gif,,,,,0,0,0,0,0,49,49,11,,,,,,,,,,,,,,,,,,,,,,,86,50,1,191,-2.454067959,-0.477022488,12,Experiment,,,,,,,,,140,145,-133,14,,,,,,,,,,,,,,,900.6132162,901.1208664,900.6132162,901.1208664,80.95238095,1575407215,1575407218,2.399107933,1575407213,1575407215,,,S4,1,40,m,Expert Radiologist,2019_Dec_03_1454,AdjustEyeTrack,3.1.5,60.42540585
70,Stimuli/Morph70.JPG,Stimuli/Morph70.png,Stimuli/BlurLevel5/BlurEditedMorph70,Stimuli/BlurLevel5/BlurEditedMorph70.png,Stimuli/BlurLevel5/NumberedMorphs/BlurEditedMorph70.png,Stimuli/BlurLevel5/OriginalBlur/BlurEditedMorph70.png,Stimuli/BlurMorphTrio/EditedMorph70.png,020221right.gif,Stimuli/normal_thumbnails/70right.gif,,,,,0,0,0,0,0,50,50,69,,,,,,,,,,,,,,,,,,,,,,,80,51,1,152,-2.207368982,1.173678907,70,Experiment,,,,,,,,,12,35,35,35,,,,,,,,,,,,,,,905.489306,905.9877517,905.489306,905.9877517,52.38095238,1575407220,1575407225,4.221578836,1575407218,1575407220,,,S4,1,40,m,Expert Radiologist,2019_Dec_03_1454,AdjustEyeTrack,3.1.5,60.42540585
122,Stimuli/Morph122.JPG,Stimuli/Morph122.png,Stimuli/BlurLevel5/BlurEditedMorph122,Stimuli/BlurLevel5/BlurEditedMorph122.png,Stimuli/BlurLevel5/NumberedMorphs/BlurEditedMorph122.png,Stimuli/BlurLevel5/OriginalBlur/BlurEditedMorph122.png,Stimuli/BlurMorphTrio/EditedMorph122.png,None,None,,,,,0,0,0,0,0,51,51,121,,,,,,,,,,,,,,,,,,,,,,,79,52,1,23,2.301262134,0.976827821,122,Experiment,,,,,,,,,54,133,-11,-11,,,,,,,,,,,,,,,912.3075315,912.803895,912.3075315,912.803895,85.03401361,1575407227,1575407232,4.566416025,1575407225,1575407227,,,S4,1,40,m,Expert Radiologist,2019_Dec_03_1454,AdjustEyeTrack,3.1.5,60.42540585
37,Stimuli/Morph37.JPG,Stimuli/Morph37.png,Stimuli/BlurLevel5/BlurEditedMorph37,Stimuli/BlurLevel5/BlurEditedMorph37.png,Stimuli/BlurLevel5/NumberedMorphs/BlurEditedMorph37.png,Stimuli/BlurLevel5/OriginalBlur/BlurEditedMorph37.png,Stimuli/BlurMorphTrio/EditedMorph37.png,010097right.gif,Stimuli/normal_thumbnails/37right.gif,,,,,0,0,0,0,0,52,52,36,,,,,,,,,,,,,,,,,,,,,,,20,53,1,42,1.857862064,1.672826516,37,Experiment,,,,,,,,,83,43,-6,-6,,,,,,,,,,,,,,,919.7309497,920.2362049,919.7309497,920.2362049,91.83673469,1575407235,1575407238,3.850211859,1575407232,1575407235,,,S4,1,40,m,Expert Radiologist,2019_Dec_03_1454,AdjustEyeTrack,3.1.5,60.42540585
132,Stimuli/Morph132.JPG,Stimuli/Morph132.png,Stimuli/BlurLevel5/BlurEditedMorph132,Stimuli/BlurLevel5/BlurEditedMorph132.png,Stimuli/BlurLevel5/NumberedMorphs/BlurEditedMorph132.png,Stimuli/BlurLevel5/OriginalBlur/BlurEditedMorph132.png,Stimuli/BlurMorphTrio/EditedMorph132.png,None,None,,,,,0,0,0,0,0,53,53,131,,,,,,,,,,,,,,,,,,,,,,,32,54,1,80,0.434120444,2.462019383,132,Experiment,,,,,,,,,140,119,13,13,,,,,,,,,,,,,,,926.4212765,926.9199131,926.4212765,926.9199131,82.31292517,1575407241,1575407246,4.53451705,1575407239,1575407241,,,S4,1,40,m,Expert Radiologist,2019_Dec_03_1454,AdjustEyeTrack,3.1.5,60.42540585
78,Stimuli/Morph78.JPG,Stimuli/Morph78.png,Stimuli/BlurLevel5/BlurEditedMorph78,Stimuli/BlurLevel5/BlurEditedMorph78.png,Stimuli/BlurLevel5/NumberedMorphs/BlurEditedMorph78.png,Stimuli/BlurLevel5/OriginalBlur/BlurEditedMorph78.png,Stimuli/BlurMorphTrio/EditedMorph78.png,020238right.gif,Stimuli/normal_thumbnails/78right.gif,,,,,0,0,0,0,0,54,54,77,,,,,,,,,,,,,,,,,,,,,,,83,55,1,342,2.377641291,-0.772542486,78,Experiment,,,,,,,,,87,98,-20,-20,,,,,,,,,,,,,,,934.0274935,934.5200149,934.0274935,934.5200149,72.78911565,1575407249,1575407252,3.40068984,1575407246,1575407249,,,S4,1,40,m,Expert Radiologist,2019_Dec_03_1454,AdjustEyeTrack,3.1.5,60.42540585
101,Stimuli/Morph101.JPG,Stimuli/Morph101.png,Stimuli/BlurLevel5/BlurEditedMorph101,Stimuli/BlurLevel5/BlurEditedMorph101.png,Stimuli/BlurLevel5/NumberedMorphs/BlurEditedMorph101.png,Stimuli/BlurLevel5/OriginalBlur/BlurEditedMorph101.png,Stimuli/BlurMorphTrio/EditedMorph101.png,None,None,,,,,0,0,0,0,0,55,55,100,,,,,,,,,,,,,,,,,,,,,,,69,56,1,125,-1.433941091,2.047880111,101,Experiment,,,,,,,,,9,94,7,7,,,,,,,,,,,,,,,940.6595664,941.1538739,940.6595664,941.1538739,90.47619048,1575407256,1575407260,4.33899641,1575407253,1575407255,,,S4,1,40,m,Expert Radiologist,2019_Dec_03_1454,AdjustEyeTrack,3.1.5,60.42540585
103,Stimuli/Morph103.JPG,Stimuli/Morph103.png,Stimuli/BlurLevel5/BlurEditedMorph103,Stimuli/BlurLevel5/BlurEditedMorph103.png,Stimuli/BlurLevel5/NumberedMorphs/BlurEditedMorph103.png,Stimuli/BlurLevel5/OriginalBlur/BlurEditedMorph103.png,Stimuli/BlurMorphTrio/EditedMorph103.png,None,None,,,,,0,0,0,0,0,56,56,102,,,,,,,,,,,,,,,,,,,,,,,80,57,1,317,1.828384254,-1.7049959,103,Experiment,,,,,,,,,42,100,3,3,,,,,,,,,,,,,,,947.8624182,948.3530273,947.8624182,948.3530273,95.91836735,1575407263,1575407268,5.248898029,1575407260,1575407263,,,S4,1,40,m,Expert Radiologist,2019_Dec_03_1454,AdjustEyeTrack,3.1.5,60.42540585
112,Stimuli/Morph112.JPG,Stimuli/Morph112.png,Stimuli/BlurLevel5/BlurEditedMorph112,Stimuli/BlurLevel5/BlurEditedMorph112.png,Stimuli/BlurLevel5/NumberedMorphs/BlurEditedMorph112.png,Stimuli/BlurLevel5/OriginalBlur/BlurEditedMorph112.png,Stimuli/BlurMorphTrio/EditedMorph112.png,None,None,,,,,0,0,0,0,0,57,57,111,,,,,,,,,,,,,,,,,,,,,,,16,58,1,62,1.173678907,2.207368982,112,Experiment,,,,,,,,,83,97,15,15,,,,,,,,,,,,,,,955.6249338,956.1197325,955.6249338,956.1197325,79.59183673,1575407270,1575407274,3.215800762,1575407268,1575407270,,,S4,1,40,m,Expert Radiologist,2019_Dec_03_1454,AdjustEyeTrack,3.1.5,60.42540585
23,Stimuli/Morph23.JPG,Stimuli/Morph23.png,Stimuli/BlurLevel5/BlurEditedMorph23,Stimuli/BlurLevel5/BlurEditedMorph23.png,Stimuli/BlurLevel5/NumberedMorphs/BlurEditedMorph23.png,Stimuli/BlurLevel5/OriginalBlur/BlurEditedMorph23.png,Stimuli/BlurMorphTrio/EditedMorph23.png,010063right.gif,Stimuli/normal_thumbnails/23right.gif,,,,,0,0,0,0,0,58,58,22,,,,,,,,,,,,,,,,,,,,,,,84,59,1,286,0.68909339,-2.40315424,23,Experiment,,,,,,,,,88,18,5,5,,,,,,,,,,,,,,,961.2036057,961.7028519,961.2036057,961.7028519,93.19727891,1575407276,1575407282,5.965177059,1575407274,1575407276,,,S4,1,40,m,Expert Radiologist,2019_Dec_03_1454,AdjustEyeTrack,3.1.5,60.42540585
130,Stimuli/Morph130.JPG,Stimuli/Morph130.png,Stimuli/BlurLevel5/BlurEditedMorph130,Stimuli/BlurLevel5/BlurEditedMorph130.png,Stimuli/BlurLevel5/NumberedMorphs/BlurEditedMorph130.png,Stimuli/BlurLevel5/OriginalBlur/BlurEditedMorph130.png,Stimuli/BlurMorphTrio/EditedMorph130.png,None,None,,,,,0,0,0,0,0,59,59,129,,,,,,,,,,,,,,,,,,,,,,,36,60,1,30,2.165063509,1.25,130,Experiment,,,,,,,,,104,115,15,15,,,,,,,,,,,,,,,970.1236847,970.6197357,970.1236847,970.6197357,79.59183673,1575407285,1575407288,2.999758959,1575407282,1575407285,,,S4,1,40,m,Expert Radiologist,2019_Dec_03_1454,AdjustEyeTrack,3.1.5,60.42540585
18,Stimuli/Morph18.JPG,Stimuli/Morph18.png,Stimuli/BlurLevel5/BlurEditedMorph18,Stimuli/BlurLevel5/BlurEditedMorph18.png,Stimuli/BlurLevel5/NumberedMorphs/BlurEditedMorph18.png,Stimuli/BlurLevel5/OriginalBlur/BlurEditedMorph18.png,Stimuli/BlurMorphTrio/EditedMorph18.png,010039right.gif,Stimuli/normal_thumbnails/18right.gif,,,,,0,0,0,0,0,60,60,17,,,,,,,,,,,,,,,,,,,,,,,28,61,1,86,0.174391184,2.493910126,18,Experiment,,,,,,,,,6,17,1,1,,,,,,,,,,,,,,,976.0800703,976.5869692,976.0800703,976.5869692,98.63945578,1575407291,1575407295,4.050165892,1575407288,1575407291,,,S4,1,40,m,Expert Radiologist,2019_Dec_03_1454,AdjustEyeTrack,3.1.5,60.42540585
35,Stimuli/Morph35.JPG,Stimuli/Morph35.png,Stimuli/BlurLevel5/BlurEditedMorph35,Stimuli/BlurLevel5/BlurEditedMorph35.png,Stimuli/BlurLevel5/NumberedMorphs/BlurEditedMorph35.png,Stimuli/BlurLevel5/OriginalBlur/BlurEditedMorph35.png,Stimuli/BlurMorphTrio/EditedMorph35.png,010094right.gif,Stimuli/normal_thumbnails/35right.gif,,,,,0,0,0,0,0,61,61,34,,,,,,,,,,,,,,,,,,,,,,,96,62,1,87,0.130839891,2.496573837,35,Experiment,,,,,,,,,142,32,3,3,,,,,,,,,,,,,,,983.5432016,984.035939,983.5432016,984.035939,95.91836735,1575407298,1575407303,4.765371084,1575407295,1575407298,,,S4,1,40,m,Expert Radiologist,2019_Dec_03_1454,AdjustEyeTrack,3.1.5,60.42540585
22,Stimuli/Morph22.JPG,Stimuli/Morph22.png,Stimuli/BlurLevel5/BlurEditedMorph22,Stimuli/BlurLevel5/BlurEditedMorph22.png,Stimuli/BlurLevel5/NumberedMorphs/BlurEditedMorph22.png,Stimuli/BlurLevel5/OriginalBlur/BlurEditedMorph22.png,Stimuli/BlurMorphTrio/EditedMorph22.png,010055right.gif,Stimuli/normal_thumbnails/22right.gif,,,,,0,0,0,0,0,62,62,21,,,,,,,,,,,,,,,,,,,,,,,75,63,1,156,-2.283863644,1.016841608,22,Experiment,,,,,,,,,39,28,-6,-6,,,,,,,,,,,,,,,990.9940167,991.486138,990.9940167,991.486138,91.83673469,1575407306,1575407309,2.949799776,1575407303,1575407306,,,S4,1,40,m,Expert Radiologist,2019_Dec_03_1454,AdjustEyeTrack,3.1.5,60.42540585
143,Stimuli/Morph143.JPG,Stimuli/Morph143.png,Stimuli/BlurLevel5/BlurEditedMorph143,Stimuli/BlurLevel5/BlurEditedMorph143.png,Stimuli/BlurLevel5/NumberedMorphs/BlurEditedMorph143.png,Stimuli/BlurLevel5/OriginalBlur/BlurEditedMorph143.png,Stimuli/BlurMorphTrio/EditedMorph143.png,None,None,,,,,0,0,0,0,0,63,63,142,,,,,,,,,,,,,,,,,,,,,,,90,64,1,192,-2.445369002,-0.519779227,143,Experiment,,,,,,,,,140,3,140,-7,,,,,,,,,,,,,,,996.677646,997.1690857,996.677646,997.1690857,90.47619048,1575407312,1575407314,2.36682868,1575407309,1575407312,,,S4,1,40,m,Expert Radiologist,2019_Dec_03_1454,AdjustEyeTrack,3.1.5,60.42540585
121,Stimuli/Morph121.JPG,Stimuli/Morph121.png,Stimuli/BlurLevel5/BlurEditedMorph121,Stimuli/BlurLevel5/BlurEditedMorph121.png,Stimuli/BlurLevel5/NumberedMorphs/BlurEditedMorph121.png,Stimuli/BlurLevel5/OriginalBlur/BlurEditedMorph121.png,Stimuli/BlurMorphTrio/EditedMorph121.png,None,None,,,,,0,0,0,0,0,64,64,120,,,,,,,,,,,,,,,,,,,,,,,98,65,1,29,2.186549268,1.212024051,121,Experiment,,,,,,,,,33,12,109,-38,,,,,,,,,,,,,,,1001.66892,1002.168517,1001.66892,1002.168517,48.29931973,1575407317,1575407320,3.232990026,1575407314,1575407317,,,S4,1,40,m,Expert Radiologist,2019_Dec_03_1454,AdjustEyeTrack,3.1.5,60.42540585
140,Stimuli/Morph140.JPG,Stimuli/Morph140.png,Stimuli/BlurLevel5/BlurEditedMorph140,Stimuli/BlurLevel5/BlurEditedMorph140.png,Stimuli/BlurLevel5/NumberedMorphs/BlurEditedMorph140.png,Stimuli/BlurLevel5/OriginalBlur/BlurEditedMorph140.png,Stimuli/BlurMorphTrio/EditedMorph140.png,None,None,,,,,0,0,0,0,0,65,65,139,,,,,,,,,,,,,,,,,,,,,,,23,66,1,293,0.976827821,-2.301262134,140,Experiment,,,,,,,,,16,26,114,-33,,,,,,,,,,,,,,,1007.839151,1008.352227,1007.839151,1008.352227,55.10204082,1575407323,1575407326,3.58224678,1575407320,1575407323,,,S4,1,40,m,Expert Radiologist,2019_Dec_03_1454,AdjustEyeTrack,3.1.5,60.42540585
142,Stimuli/Morph142.JPG,Stimuli/Morph142.png,Stimuli/BlurLevel5/BlurEditedMorph142,Stimuli/BlurLevel5/BlurEditedMorph142.png,Stimuli/BlurLevel5/NumberedMorphs/BlurEditedMorph142.png,Stimuli/BlurLevel5/OriginalBlur/BlurEditedMorph142.png,Stimuli/BlurMorphTrio/EditedMorph142.png,None,None,,,,,0,0,0,0,0,66,66,141,,,,,,,,,,,,,,,,,,,,,,,20,67,1,114,-1.016841608,2.283863644,142,Experiment,,,,,,,,,114,14,128,-19,,,,,,,,,,,,,,,1013.881135,1014.385544,1013.881135,1014.385544,74.14965986,1575407329,1575407334,5.049546003,1575407327,1575407329,,,S4,1,40,m,Expert Radiologist,2019_Dec_03_1454,AdjustEyeTrack,3.1.5,60.42540585
42,Stimuli/Morph42.JPG,Stimuli/Morph42.png,Stimuli/BlurLevel5/BlurEditedMorph42,Stimuli/BlurLevel5/BlurEditedMorph42.png,Stimuli/BlurLevel5/NumberedMorphs/BlurEditedMorph42.png,Stimuli/BlurLevel5/OriginalBlur/BlurEditedMorph42.png,Stimuli/BlurMorphTrio/EditedMorph42.png,010121right.gif,Stimuli/normal_thumbnails/42right.gif,,,,,0,0,0,0,0,67,67,41,,,,,,,,,,,,,,,,,,,,,,,44,68,1,271,0.043631016,-2.499619238,42,Experiment,,,,,,,,,122,40,2,2,,,,,,,,,,,,,,,1021.519391,1022.018667,1021.519391,1022.018667,97.27891156,1575407336,1575407341,5.069539785,1575407334,1575407336,,,S4,1,40,m,Expert Radiologist,2019_Dec_03_1454,AdjustEyeTrack,3.1.5,60.42540585
145,Stimuli/Morph145.JPG,Stimuli/Morph145.png,Stimuli/BlurLevel5/BlurEditedMorph145,Stimuli/BlurLevel5/BlurEditedMorph145.png,Stimuli/BlurLevel5/NumberedMorphs/BlurEditedMorph145.png,Stimuli/BlurLevel5/OriginalBlur/BlurEditedMorph145.png,Stimuli/BlurMorphTrio/EditedMorph145.png,None,None,,,,,0,0,0,0,0,68,68,144,,,,,,,,,,,,,,,,,,,,,,,17,69,1,7,2.481365379,0.304673359,145,Experiment,,,,,,,,,2,132,13,13,,,,,,,,,,,,,,,1029.825897,1030.335191,1029.825897,1030.335191,82.31292517,1575407345,1575407353,8.5007689,1575407342,1575407345,,,S4,1,40,m,Expert Radiologist,2019_Dec_03_1454,AdjustEyeTrack,3.1.5,60.42540585
84,Stimuli/Morph84.JPG,Stimuli/Morph84.png,Stimuli/BlurLevel5/BlurEditedMorph84,Stimuli/BlurLevel5/BlurEditedMorph84.png,Stimuli/BlurLevel5/NumberedMorphs/BlurEditedMorph84.png,Stimuli/BlurLevel5/OriginalBlur/BlurEditedMorph84.png,Stimuli/BlurMorphTrio/EditedMorph84.png,020261right.gif,Stimuli/normal_thumbnails/84right.gif,,,,,0,0,0,0,0,69,69,83,,,,,,,,,,,,,,,,,,,,,,,65,70,1,223,-1.828384254,-1.7049959,84,Experiment,,,,,,,,,75,71,13,13,,,,,,,,,,,,,,,1041.168531,1041.668619,1041.168531,1041.668619,82.31292517,1575407356,1575407358,2.33297801,1575407353,1575407356,,,S4,1,40,m,Expert Radiologist,2019_Dec_03_1454,AdjustEyeTrack,3.1.5,60.42540585
126,Stimuli/Morph126.JPG,Stimuli/Morph126.png,Stimuli/BlurLevel5/BlurEditedMorph126,Stimuli/BlurLevel5/BlurEditedMorph126.png,Stimuli/BlurLevel5/NumberedMorphs/BlurEditedMorph126.png,Stimuli/BlurLevel5/OriginalBlur/BlurEditedMorph126.png,Stimuli/BlurMorphTrio/EditedMorph126.png,None,None,,,,,0,0,0,0,0,70,70,125,,,,,,,,,,,,,,,,,,,,,,,29,71,1,113,-0.976827821,2.301262134,126,Experiment,,,,,,,,,75,133,-7,-7,,,,,,,,,,,,,,,1046.787161,1047.285552,1046.787161,1047.285552,90.47619048,1575407362,1575407368,6.683597088,1575407359,1575407362,,,S4,1,40,m,Expert Radiologist,2019_Dec_03_1454,AdjustEyeTrack,3.1.5,60.42540585
14,Stimuli/Morph14.JPG,Stimuli/Morph14.png,Stimuli/BlurLevel5/BlurEditedMorph14,Stimuli/BlurLevel5/BlurEditedMorph14.png,Stimuli/BlurLevel5/NumberedMorphs/BlurEditedMorph14.png,Stimuli/BlurLevel5/OriginalBlur/BlurEditedMorph14.png,Stimuli/BlurMorphTrio/EditedMorph14.png,010030right.gif,Stimuli/normal_thumbnails/14right.gif,,,,,0,0,0,0,0,71,71,13,,,,,,,,,,,,,,,,,,,,,,,50,72,1,256,-0.604804739,-2.425739316,14,Experiment,,,,,,,,,26,19,-5,-5,,,,,,,,,,,,,,,1056.408522,1056.904719,1056.408522,1056.904719,93.19727891,1575407371,1575407374,2.700237989,1575407369,1575407371,,,S4,1,40,m,Expert Radiologist,2019_Dec_03_1454,AdjustEyeTrack,3.1.5,60.42540585
83,Stimuli/Morph83.JPG,Stimuli/Morph83.png,Stimuli/BlurLevel5/BlurEditedMorph83,Stimuli/BlurLevel5/BlurEditedMorph83.png,Stimuli/BlurLevel5/NumberedMorphs/BlurEditedMorph83.png,Stimuli/BlurLevel5/OriginalBlur/BlurEditedMorph83.png,Stimuli/BlurMorphTrio/EditedMorph83.png,020259right.gif,Stimuli/normal_thumbnails/83right.gif,,,,,0,0,0,0,0,72,72,82,,,,,,,,,,,,,,,,,,,,,,,87,73,1,0,2.5,0,83,Experiment,,,,,,,,,74,100,-17,-17,,,,,,,,,,,,,,,1061.868398,1062.367562,1061.868398,1062.367562,76.8707483,1575407377,1575407379,2.198543787,1575407374,1575407377,,,S4,1,40,m,Expert Radiologist,2019_Dec_03_1454,AdjustEyeTrack,3.1.5,60.42540585
117,Stimuli/Morph117.JPG,Stimuli/Morph117.png,Stimuli/BlurLevel5/BlurEditedMorph117,Stimuli/BlurLevel5/BlurEditedMorph117.png,Stimuli/BlurLevel5/NumberedMorphs/BlurEditedMorph117.png,Stimuli/BlurLevel5/OriginalBlur/BlurEditedMorph117.png,Stimuli/BlurMorphTrio/EditedMorph117.png,None,None,,,,,0,0,0,0,0,73,73,116,,,,,,,,,,,,,,,,,,,,,,,37,74,1,89,0.043631016,2.499619238,117,Experiment,,,,,,,,,23,104,13,13,,,,,,,,,,,,,,,1066.773392,1067.268099,1066.773392,1067.268099,82.31292517,1575407382,1575407388,5.933652878,1575407379,1575407382,,,S4,1,40,m,Expert Radiologist,2019_Dec_03_1454,AdjustEyeTrack,3.1.5,60.42540585
99,Stimuli/Morph99.JPG,Stimuli/Morph99.png,Stimuli/BlurLevel5/BlurEditedMorph99,Stimuli/BlurLevel5/BlurEditedMorph99.png,Stimuli/BlurLevel5/NumberedMorphs/BlurEditedMorph99.png,Stimuli/BlurLevel5/OriginalBlur/BlurEditedMorph99.png,Stimuli/BlurMorphTrio/EditedMorph99.png,020299right.gif,Stimuli/normal_thumbnails/99right.gif,,,,,0,0,0,0,0,74,74,98,,,,,,,,,,,,,,,,,,,,,,,11,75,1,5,2.490486745,0.217889357,99,Experiment,,,,,,,,,146,98,1,1,,,,,,,,,,,,,,,1075.590671,1076.084506,1075.590671,1076.084506,98.63945578,1575407390,1575407394,3.817345142,1575407388,1575407390,,,S4,1,40,m,Expert Radiologist,2019_Dec_03_1454,AdjustEyeTrack,3.1.5,60.42540585
110,Stimuli/Morph110.JPG,Stimuli/Morph110.png,Stimuli/BlurLevel5/BlurEditedMorph110,Stimuli/BlurLevel5/BlurEditedMorph110.png,Stimuli/BlurLevel5/NumberedMorphs/BlurEditedMorph110.png,Stimuli/BlurLevel5/OriginalBlur/BlurEditedMorph110.png,Stimuli/BlurMorphTrio/EditedMorph110.png,None,None,,,,,0,0,0,0,0,75,75,109,,,,,,,,,,,,,,,,,,,,,,,1,76,1,267,-0.130839891,-2.496573837,110,Experiment,,,,,,,,,132,102,8,8,,,,,,,,,,,,,,,1081.407685,1081.901923,1081.407685,1081.901923,89.11564626,1575407396,1575407399,3.083112955,1575407395,1575407396,,,S4,1,40,m,Expert Radiologist,2019_Dec_03_1454,AdjustEyeTrack,3.1.5,60.42540585
10,Stimuli/Morph10.JPG,Stimuli/Morph10.png,Stimuli/BlurLevel5/BlurEditedMorph10,Stimuli/BlurLevel5/BlurEditedMorph10.png,Stimuli/BlurLevel5/NumberedMorphs/BlurEditedMorph10.png,Stimuli/BlurLevel5/OriginalBlur/BlurEditedMorph10.png,Stimuli/BlurMorphTrio/EditedMorph10.png,010016right.gif,Stimuli/normal_thumbnails/10right.gif,,,,,0,0,0,0,0,76,76,9,,,,,,,,,,,,,,,,,,,,,,,21,77,1,283,0.562377636,-2.435925162,10,Experiment,,,,,,,,,22,6,4,4,,,,,,,,,,,,,,,1086.925784,1087.417842,1086.925784,1087.417842,94.55782313,1575407402,1575407404,1.850513935,1575407400,1575407402,,,S4,1,40,m,Expert Radiologist,2019_Dec_03_1454,AdjustEyeTrack,3.1.5,60.42540585
107,Stimuli/Morph107.JPG,Stimuli/Morph107.png,Stimuli/BlurLevel5/BlurEditedMorph107,Stimuli/BlurLevel5/BlurEditedMorph107.png,Stimuli/BlurLevel5/NumberedMorphs/BlurEditedMorph107.png,Stimuli/BlurLevel5/OriginalBlur/BlurEditedMorph107.png,Stimuli/BlurMorphTrio/EditedMorph107.png,None,None,,,,,0,0,0,0,0,77,77,106,,,,,,,,,,,,,,,,,,,,,,,64,78,1,314,1.736645926,-1.798349501,107,Experiment,,,,,,,,,38,104,3,3,,,,,,,,,,,,,,,1091.354788,1091.851216,1091.354788,1091.851216,95.91836735,1575407406,1575407409,2.800542116,1575407404,1575407406,,,S4,1,40,m,Expert Radiologist,2019_Dec_03_1454,AdjustEyeTrack,3.1.5,60.42540585
19,Stimuli/Morph19.JPG,Stimuli/Morph19.png,Stimuli/BlurLevel5/BlurEditedMorph19,Stimuli/BlurLevel5/BlurEditedMorph19.png,Stimuli/BlurLevel5/NumberedMorphs/BlurEditedMorph19.png,Stimuli/BlurLevel5/OriginalBlur/BlurEditedMorph19.png,Stimuli/BlurMorphTrio/EditedMorph19.png,010045right.gif,Stimuli/normal_thumbnails/19right.gif,,,,,0,0,0,0,0,78,78,18,,,,,,,,,,,,,,,,,,,,,,,15,79,1,158,-2.317959636,0.936516484,19,Experiment,,,,,,,,,48,8,11,11,,,,,,,,,,,,,,,1096.921697,1097.417987,1096.921697,1097.417987,85.03401361,1575407412,1575407414,2.449810982,1575407409,1575407412,,,S4,1,40,m,Expert Radiologist,2019_Dec_03_1454,AdjustEyeTrack,3.1.5,60.42540585
111,Stimuli/Morph111.JPG,Stimuli/Morph111.png,Stimuli/BlurLevel5/BlurEditedMorph111,Stimuli/BlurLevel5/BlurEditedMorph111.png,Stimuli/BlurLevel5/NumberedMorphs/BlurEditedMorph111.png,Stimuli/BlurLevel5/OriginalBlur/BlurEditedMorph111.png,Stimuli/BlurMorphTrio/EditedMorph111.png,None,None,,,,,0,0,0,0,0,79,79,110,,,,,,,,,,,,,,,,,,,,,,,97,80,1,359,2.499619238,-0.043631016,111,Experiment,,,,,,,,,67,104,7,7,,,,,,,,,,,,,,,1102.434272,1102.938299,1102.434272,1102.938299,90.47619048,1575407417,1575407420,2.665480852,1575407415,1575407417,,,S4,1,40,m,Expert Radiologist,2019_Dec_03_1454,AdjustEyeTrack,3.1.5,60.42540585
5,Stimuli/Morph5.JPG,Stimuli/Morph5.png,Stimuli/BlurLevel5/BlurEditedMorph5,Stimuli/BlurLevel5/BlurEditedMorph5.png,Stimuli/BlurLevel5/NumberedMorphs/BlurEditedMorph5.png,Stimuli/BlurLevel5/OriginalBlur/BlurEditedMorph5.png,Stimuli/BlurMorphTrio/EditedMorph5.png,010011right.gif,Stimuli/normal_thumbnails/5right.gif,,,,,0,0,0,0,0,80,80,4,,,,,,,,,,,,,,,,,,,,,,,92,81,1,22,2.317959636,0.936516484,5,Experiment,,,,,,,,,53,11,-6,-6,,,,,,,,,,,,,,,1108.709105,1109.217894,1108.709105,1109.217894,91.83673469,1575407424,1575407427,3.482027054,1575407420,1575407424,,,S4,1,40,m,Expert Radiologist,2019_Dec_03_1454,AdjustEyeTrack,3.1.5,60.42540585
87,Stimuli/Morph87.JPG,Stimuli/Morph87.png,Stimuli/BlurLevel5/BlurEditedMorph87,Stimuli/BlurLevel5/BlurEditedMorph87.png,Stimuli/BlurLevel5/NumberedMorphs/BlurEditedMorph87.png,Stimuli/BlurLevel5/OriginalBlur/BlurEditedMorph87.png,Stimuli/BlurMorphTrio/EditedMorph87.png,020270right.gif,Stimuli/normal_thumbnails/87right.gif,,,,,0,0,0,0,0,81,81,86,,,,,,,,,,,,,,,,,,,,,,,80,82,1,156,-2.283863644,1.016841608,87,Experiment,,,,,,,,,134,103,-16,-16,,,,,,,,,,,,,,,1114.968102,1115.484075,1114.968102,1115.484075,78.23129252,1575407430,1575407434,4.201224089,1575407427,1575407430,,,S4,1,40,m,Expert Radiologist,2019_Dec_03_1454,AdjustEyeTrack,3.1.5,60.42540585
16,Stimuli/Morph16.JPG,Stimuli/Morph16.png,Stimuli/BlurLevel5/BlurEditedMorph16,Stimuli/BlurLevel5/BlurEditedMorph16.png,Stimuli/BlurLevel5/NumberedMorphs/BlurEditedMorph16.png,Stimuli/BlurLevel5/OriginalBlur/BlurEditedMorph16.png,Stimuli/BlurMorphTrio/EditedMorph16.png,010034right.gif,Stimuli/normal_thumbnails/16right.gif,,,,,0,0,0,0,0,82,82,15,,,,,,,,,,,,,,,,,,,,,,,10,83,1,53,1.504537558,1.996588775,16,Experiment,,,,,,,,,57,7,9,9,,,,,,,,,,,,,,,1121.919307,1122.417878,1121.919307,1122.417878,87.75510204,1575407437,1575407440,2.84924221,1575407434,1575407437,,,S4,1,40,m,Expert Radiologist,2019_Dec_03_1454,AdjustEyeTrack,3.1.5,60.42540585
46,Stimuli/Morph46.JPG,Stimuli/Morph46.png,Stimuli/BlurLevel5/BlurEditedMorph46,Stimuli/BlurLevel5/BlurEditedMorph46.png,Stimuli/BlurLevel5/NumberedMorphs/BlurEditedMorph46.png,Stimuli/BlurLevel5/OriginalBlur/BlurEditedMorph46.png,Stimuli/BlurMorphTrio/EditedMorph46.png,010128right.gif,Stimuli/normal_thumbnails/46right.gif,,,,,0,0,0,0,0,83,83,45,,,,,,,,,,,,,,,,,,,,,,,51,84,1,213,-2.09667642,-1.361597588,46,Experiment,,,,,,,,,28,43,3,3,,,,,,,,,,,,,,,1127.84119,1128.334416,1127.84119,1128.334416,95.91836735,1575407443,1575407446,3.699371815,1575407440,1575407443,,,S4,1,40,m,Expert Radiologist,2019_Dec_03_1454,AdjustEyeTrack,3.1.5,60.42540585
139,Stimuli/Morph139.JPG,Stimuli/Morph139.png,Stimuli/BlurLevel5/BlurEditedMorph139,Stimuli/BlurLevel5/BlurEditedMorph139.png,Stimuli/BlurLevel5/NumberedMorphs/BlurEditedMorph139.png,Stimuli/BlurLevel5/OriginalBlur/BlurEditedMorph139.png,Stimuli/BlurMorphTrio/EditedMorph139.png,None,None,,,,,0,0,0,0,0,84,84,138,,,,,,,,,,,,,,,,,,,,,,,4,85,1,243,-1.134976249,-2.22751631,139,Experiment,,,,,,,,,96,9,130,-17,,,,,,,,,,,,,,,1134.168468,1134.667686,1134.168468,1134.667686,76.8707483,1575407449,1575407453,3.866242886,1575407447,1575407449,,,S4,1,40,m,Expert Radiologist,2019_Dec_03_1454,AdjustEyeTrack,3.1.5,60.42540585
99,Stimuli/Morph99.JPG,Stimuli/Morph99.png,Stimuli/BlurLevel5/BlurEditedMorph99,Stimuli/BlurLevel5/BlurEditedMorph99.png,Stimuli/BlurLevel5/NumberedMorphs/BlurEditedMorph99.png,Stimuli/BlurLevel5/OriginalBlur/BlurEditedMorph99.png,Stimuli/BlurMorphTrio/EditedMorph99.png,020299right.gif,Stimuli/normal_thumbnails/99right.gif,,,,,1,0,1,0,0,0,0,98,,,,,,,,,,,,,,,,,,,,,,,61,1,2,223,-1.828384254,-1.7049959,99,Experiment,,,,,,,,,35,104,-5,-5,,,,,,,,,,,,,,,1157.608917,1158.117181,1157.608917,1158.117181,93.19727891,1575407472,1575407477,4.034907818,1575407470,1575407472,space,16.06264272,S4,1,40,m,Expert Radiologist,2019_Dec_03_1454,AdjustEyeTrack,3.1.5,60.42540585
137,Stimuli/Morph137.JPG,Stimuli/Morph137.png,Stimuli/BlurLevel5/BlurEditedMorph137,Stimuli/BlurLevel5/BlurEditedMorph137.png,Stimuli/BlurLevel5/NumberedMorphs/BlurEditedMorph137.png,Stimuli/BlurLevel5/OriginalBlur/BlurEditedMorph137.png,Stimuli/BlurMorphTrio/EditedMorph137.png,None,None,,,,,1,0,1,0,0,1,1,136,,,,,,,,,,,,,,,,,,,,,,,25,2,2,330,2.165063509,-1.25,137,Experiment,,,,,,,,,127,128,9,9,,,,,,,,,,,,,,,1164.339135,1164.83339,1164.339135,1164.83339,87.75510204,1575407479,1575407482,2.98438406,1575407477,1575407479,,,S4,1,40,m,Expert Radiologist,2019_Dec_03_1454,AdjustEyeTrack,3.1.5,60.42540585
14,Stimuli/Morph14.JPG,Stimuli/Morph14.png,Stimuli/BlurLevel5/BlurEditedMorph14,Stimuli/BlurLevel5/BlurEditedMorph14.png,Stimuli/BlurLevel5/NumberedMorphs/BlurEditedMorph14.png,Stimuli/BlurLevel5/OriginalBlur/BlurEditedMorph14.png,Stimuli/BlurMorphTrio/EditedMorph14.png,010030right.gif,Stimuli/normal_thumbnails/14right.gif,,,,,1,0,1,0,0,2,2,13,,,,,,,,,,,,,,,,,,,,,,,40,3,2,308,1.539153688,-1.970026884,14,Experiment,,,,,,,,,15,16,-2,-2,,,,,,,,,,,,,,,1170.234072,1170.734253,1170.234072,1170.734253,97.27891156,1575407485,1575407487,1.883630991,1575407482,1575407485,,,S4,1,40,m,Expert Radiologist,2019_Dec_03_1454,AdjustEyeTrack,3.1.5,60.42540585
16,Stimuli/Morph16.JPG,Stimuli/Morph16.png,Stimuli/BlurLevel5/BlurEditedMorph16,Stimuli/BlurLevel5/BlurEditedMorph16.png,Stimuli/BlurLevel5/NumberedMorphs/BlurEditedMorph16.png,Stimuli/BlurLevel5/OriginalBlur/BlurEditedMorph16.png,Stimuli/BlurMorphTrio/EditedMorph16.png,010034right.gif,Stimuli/normal_thumbnails/16right.gif,,,,,1,0,1,0,0,3,3,15,,,,,,,,,,,,,,,,,,,,,,,24,4,2,31,2.142918252,1.287595187,16,Experiment,,,,,,,,,125,12,4,4,,,,,,,,,,,,,,,1174.974005,1175.466914,1174.974005,1175.466914,94.55782313,1575407490,1575407496,6.197006941,1575407487,1575407490,,,S4,1,40,m,Expert Radiologist,2019_Dec_03_1454,AdjustEyeTrack,3.1.5,60.42540585
3,Stimuli/Morph3.JPG,Stimuli/Morph3.png,Stimuli/BlurLevel5/BlurEditedMorph3,Stimuli/BlurLevel5/BlurEditedMorph3.png,Stimuli/BlurLevel5/NumberedMorphs/BlurEditedMorph3.png,Stimuli/BlurLevel5/OriginalBlur/BlurEditedMorph3.png,Stimuli/BlurMorphTrio/EditedMorph3.png,010009right.gif,Stimuli/normal_thumbnails/3right.gif,,,,,1,0,1,0,0,4,4,2,,,,,,,,,,,,,,,,,,,,,,,26,5,2,302,1.324798161,-2.12012024,3,Experiment,,,,,,,,,109,143,-140,7,,,,,,,,,,,,,,,1183.876084,1184.36694,1183.876084,1184.36694,90.47619048,1575407499,1575407503,4.633189917,1575407496,1575407499,,,S4,1,40,m,Expert Radiologist,2019_Dec_03_1454,AdjustEyeTrack,3.1.5,60.42540585
71,Stimuli/Morph71.JPG,Stimuli/Morph71.png,Stimuli/BlurLevel5/BlurEditedMorph71,Stimuli/BlurLevel5/BlurEditedMorph71.png,Stimuli/BlurLevel5/NumberedMorphs/BlurEditedMorph71.png,Stimuli/BlurLevel5/OriginalBlur/BlurEditedMorph71.png,Stimuli/BlurMorphTrio/EditedMorph71.png,020225right.gif,Stimuli/normal_thumbnails/71right.gif,,,,,1,0,1,0,0,5,5,70,,,,,,,,,,,,,,,,,,,,,,,55,6,2,258,-0.519779227,-2.445369002,71,Experiment,,,,,,,,,61,77,-6,-6,,,,,,,,,,,,,,,1190.953852,1191.45047,1190.953852,1191.45047,91.83673469,1575407506,1575407508,2.60029006,1575407504,1575407506,,,S4,1,40,m,Expert Radiologist,2019_Dec_03_1454,AdjustEyeTrack,3.1.5,60.42540585
76,Stimuli/Morph76.JPG,Stimuli/Morph76.png,Stimuli/BlurLevel5/BlurEditedMorph76,Stimuli/BlurLevel5/BlurEditedMorph76.png,Stimuli/BlurLevel5/NumberedMorphs/BlurEditedMorph76.png,Stimuli/BlurLevel5/OriginalBlur/BlurEditedMorph76.png,Stimuli/BlurMorphTrio/EditedMorph76.png,020234right.gif,Stimuli/normal_thumbnails/76right.gif,,,,,1,0,1,0,0,6,6,75,,,,,,,,,,,,,,,,,,,,,,,35,7,2,316,1.798349501,-1.736645926,76,Experiment,,,,,,,,,14,86,-10,-10,,,,,,,,,,,,,,,1195.98847,1196.483121,1195.98847,1196.483121,86.39455782,1575407511,1575407516,4.84930706,1575407509,1575407511,,,S4,1,40,m,Expert Radiologist,2019_Dec_03_1454,AdjustEyeTrack,3.1.5,60.42540585
74,Stimuli/Morph74.JPG,Stimuli/Morph74.png,Stimuli/BlurLevel5/BlurEditedMorph74,Stimuli/BlurLevel5/BlurEditedMorph74.png,Stimuli/BlurLevel5/NumberedMorphs/BlurEditedMorph74.png,Stimuli/BlurLevel5/OriginalBlur/BlurEditedMorph74.png,Stimuli/BlurMorphTrio/EditedMorph74.png,020232right.gif,Stimuli/normal_thumbnails/74right.gif,,,,,1,0,1,0,0,7,7,73,,,,,,,,,,,,,,,,,,,,,,,29,8,2,53,1.504537558,1.996588775,74,Experiment,,,,,,,,,83,84,-10,-10,,,,,,,,,,,,,,,1203.909326,1204.416361,1203.909326,1204.416361,86.39455782,1575407519,1575407521,1.850982904,1575407516,1575407519,,,S4,1,40,m,Expert Radiologist,2019_Dec_03_1454,AdjustEyeTrack,3.1.5,60.42540585
9,Stimuli/Morph9.JPG,Stimuli/Morph9.png,Stimuli/BlurLevel5/BlurEditedMorph9,Stimuli/BlurLevel5/BlurEditedMorph9.png,Stimuli/BlurLevel5/NumberedMorphs/BlurEditedMorph9.png,Stimuli/BlurLevel5/OriginalBlur/BlurEditedMorph9.png,Stimuli/BlurMorphTrio/EditedMorph9.png,010015right.gif,Stimuli/normal_thumbnails/9right.gif,,,,,1,0,1,0,0,8,8,8,,,,,,,,,,,,,,,,,,,,,,,66,9,2,188,-2.475670172,-0.347932752,9,Experiment,,,,,,,,,129,133,-124,23,,,,,,,,,,,,,,,1208.384392,1208.883307,1208.384392,1208.883307,68.70748299,1575407523,1575407526,2.433799744,1575407521,1575407523,,,S4,1,40,m,Expert Radiologist,2019_Dec_03_1454,AdjustEyeTrack,3.1.5,60.42540585
28,Stimuli/Morph28.JPG,Stimuli/Morph28.png,Stimuli/BlurLevel5/BlurEditedMorph28,Stimuli/BlurLevel5/BlurEditedMorph28.png,Stimuli/BlurLevel5/NumberedMorphs/BlurEditedMorph28.png,Stimuli/BlurLevel5/OriginalBlur/BlurEditedMorph28.png,Stimuli/BlurMorphTrio/EditedMorph28.png,010073right.gif,Stimuli/normal_thumbnails/28right.gif,,,,,1,0,1,0,0,9,9,27,,,,,,,,,,,,,,,,,,,,,,,79,10,2,121,-1.287595187,2.142918252,28,Experiment,,,,,,,,,72,2,26,26,,,,,,,,,,,,,,,1213.452474,1213.949671,1213.452474,1213.949671,64.62585034,1575407528,1575407538,9.200100183,1575407526,1575407528,,,S4,1,40,m,Expert Radiologist,2019_Dec_03_1454,AdjustEyeTrack,3.1.5,60.42540585
63,Stimuli/Morph63.JPG,Stimuli/Morph63.png,Stimuli/BlurLevel5/BlurEditedMorph63,Stimuli/BlurLevel5/BlurEditedMorph63.png,Stimuli/BlurLevel5/NumberedMorphs/BlurEditedMorph63.png,Stimuli/BlurLevel5/OriginalBlur/BlurEditedMorph63.png,Stimuli/BlurMorphTrio/EditedMorph63.png,020206right.gif,Stimuli/normal_thumbnails/63right.gif,,,,,1,0,1,0,0,10,10,62,,,,,,,,,,,,,,,,,,,,,,,85,11,2,209,-2.186549268,-1.212024051,63,Experiment,,,,,,,,,120,31,32,32,,,,,,,,,,,,,,,1225.316984,1225.818297,1225.316984,1225.818297,56.46258503,1575407540,1575407547,7.215858936,1575407538,1575407540,,,S4,1,40,m,Expert Radiologist,2019_Dec_03_1454,AdjustEyeTrack,3.1.5,60.42540585
1,Stimuli/Morph1.JPG,Stimuli/Morph1.png,Stimuli/BlurLevel5/BlurEditedMorph1,Stimuli/BlurLevel5/BlurEditedMorph1.png,Stimuli/BlurLevel5/NumberedMorphs/BlurEditedMorph1.png,Stimuli/BlurLevel5/OriginalBlur/BlurEditedMorph1.png,Stimuli/BlurMorphTrio/EditedMorph1.png,010003right.gif,Stimuli/normal_thumbnails/1right.gif,,,,,1,0,1,0,0,11,11,0,,,,,,,,,,,,,,,,,,,,,,,43,12,2,181,-2.499619238,-0.043631016,1,Experiment,,,,,,,,,105,2,-1,-1,,,,,,,,,,,,,,,1235.288357,1235.782484,1235.288357,1235.782484,98.63945578,1575407550,1575407554,4.034371138,1575407548,1575407550,,,S4,1,40,m,Expert Radiologist,2019_Dec_03_1454,AdjustEyeTrack,3.1.5,60.42540585
11,Stimuli/Morph11.JPG,Stimuli/Morph11.png,Stimuli/BlurLevel5/BlurEditedMorph11,Stimuli/BlurLevel5/BlurEditedMorph11.png,Stimuli/BlurLevel5/NumberedMorphs/BlurEditedMorph11.png,Stimuli/BlurLevel5/OriginalBlur/BlurEditedMorph11.png,Stimuli/BlurMorphTrio/EditedMorph11.png,010024right.gif,Stimuli/normal_thumbnails/11right.gif,,,,,1,0,1,0,0,12,12,10,,,,,,,,,,,,,,,,,,,,,,,81,13,2,174,-2.486304738,0.261321158,11,Experiment,,,,,,,,,31,10,1,1,,,,,,,,,,,,,,,1241.949633,1242.448789,1241.949633,1242.448789,98.63945578,1575407557,1575407559,2.02195096,1575407554,1575407557,,,S4,1,40,m,Expert Radiologist,2019_Dec_03_1454,AdjustEyeTrack,3.1.5,60.42540585
66,Stimuli/Morph66.JPG,Stimuli/Morph66.png,Stimuli/BlurLevel5/BlurEditedMorph66,Stimuli/BlurLevel5/BlurEditedMorph66.png,Stimuli/BlurLevel5/NumberedMorphs/BlurEditedMorph66.png,Stimuli/BlurLevel5/OriginalBlur/BlurEditedMorph66.png,Stimuli/BlurMorphTrio/EditedMorph66.png,020212right.gif,Stimuli/normal_thumbnails/66right.gif,,,,,1,0,1,0,0,13,13,65,,,,,,,,,,,,,,,,,,,,,,,63,14,2,244,-1.095927867,-2.246985116,66,Experiment,,,,,,,,,125,38,28,28,,,,,,,,,,,,,,,1246.673067,1247.166736,1246.673067,1247.166736,61.9047619,1575407562,1575407566,4.582862854,1575407559,1575407562,,,S4,1,40,m,Expert Radiologist,2019_Dec_03_1454,AdjustEyeTrack,3.1.5,60.42540585
48,Stimuli/Morph48.JPG,Stimuli/Morph48.png,Stimuli/BlurLevel5/BlurEditedMorph48,Stimuli/BlurLevel5/BlurEditedMorph48.png,Stimuli/BlurLevel5/NumberedMorphs/BlurEditedMorph48.png,Stimuli/BlurLevel5/OriginalBlur/BlurEditedMorph48.png,Stimuli/BlurMorphTrio/EditedMorph48.png,010131right.gif,Stimuli/normal_thumbnails/48right.gif,,,,,1,0,1,0,0,14,14,47,,,,,,,,,,,,,,,,,,,,,,,96,15,2,342,2.377641291,-0.772542486,48,Experiment,,,,,,,,,126,126,-78,69,,,,,,,,,,,,,,,1254.254944,1254.749636,1254.254944,1254.749636,6.12244898,1575407569,1575407570,1.088300228,1575407566,1575407569,,,S4,1,40,m,Expert Radiologist,2019_Dec_03_1454,AdjustEyeTrack,3.1.5,60.42540585
72,Stimuli/Morph72.JPG,Stimuli/Morph72.png,Stimuli/BlurLevel5/BlurEditedMorph72,Stimuli/BlurLevel5/BlurEditedMorph72.png,Stimuli/BlurLevel5/NumberedMorphs/BlurEditedMorph72.png,Stimuli/BlurLevel5/OriginalBlur/BlurEditedMorph72.png,Stimuli/BlurMorphTrio/EditedMorph72.png,020227right.gif,Stimuli/normal_thumbnails/72right.gif,,,,,1,0,1,0,0,15,15,71,,,,,,,,,,,,,,,,,,,,,,,70,16,2,162,-2.377641291,0.772542486,72,Experiment,,,,,,,,,118,111,-39,-39,,,,,,,,,,,,,,,1258.119668,1258.615939,1258.119668,1258.615939,46.93877551,1575407573,1575407578,5.449404955,1575407570,1575407573,,,S4,1,40,m,Expert Radiologist,2019_Dec_03_1454,AdjustEyeTrack,3.1.5,60.42540585
126,Stimuli/Morph126.JPG,Stimuli/Morph126.png,Stimuli/BlurLevel5/BlurEditedMorph126,Stimuli/BlurLevel5/BlurEditedMorph126.png,Stimuli/BlurLevel5/NumberedMorphs/BlurEditedMorph126.png,Stimuli/BlurLevel5/OriginalBlur/BlurEditedMorph126.png,Stimuli/BlurMorphTrio/EditedMorph126.png,None,None,,,,,1,0,1,0,0,16,16,125,,,,,,,,,,,,,,,,,,,,,,,82,17,2,286,0.68909339,-2.40315424,126,Experiment,,,,,,,,,89,96,30,30,,,,,,,,,,,,,,,1266.139003,1266.63294,1266.139003,1266.63294,59.18367347,1575407581,1575407583,1.669026136,1575407579,1575407581,,,S4,1,40,m,Expert Radiologist,2019_Dec_03_1454,AdjustEyeTrack,3.1.5,60.42540585
88,Stimuli/Morph88.JPG,Stimuli/Morph88.png,Stimuli/BlurLevel5/BlurEditedMorph88,Stimuli/BlurLevel5/BlurEditedMorph88.png,Stimuli/BlurLevel5/NumberedMorphs/BlurEditedMorph88.png,Stimuli/BlurLevel5/OriginalBlur/BlurEditedMorph88.png,Stimuli/BlurMorphTrio/EditedMorph88.png,020271right.gif,Stimuli/normal_thumbnails/88right.gif,,,,,1,0,1,0,0,17,17,87,,,,,,,,,,,,,,,,,,,,,,,94,18,2,182,-2.498477068,-0.087248742,88,Experiment,,,,,,,,,40,112,-24,-24,,,,,,,,,,,,,,,1271.106757,1271.600525,1271.106757,1271.600525,67.34693878,1575407586,1575407589,3.299994946,1575407583,1575407586,,,S4,1,40,m,Expert Radiologist,2019_Dec_03_1454,AdjustEyeTrack,3.1.5,60.42540585
93,Stimuli/Morph93.JPG,Stimuli/Morph93.png,Stimuli/BlurLevel5/BlurEditedMorph93,Stimuli/BlurLevel5/BlurEditedMorph93.png,Stimuli/BlurLevel5/NumberedMorphs/BlurEditedMorph93.png,Stimuli/BlurLevel5/OriginalBlur/BlurEditedMorph93.png,Stimuli/BlurMorphTrio/EditedMorph93.png,020280right.gif,Stimuli/normal_thumbnails/93right.gif,,,,,1,0,1,0,0,18,18,92,,,,,,,,,,,,,,,,,,,,,,,67,19,2,155,-2.265769468,1.056545654,93,Experiment,,,,,,,,,111,115,-22,-22,,,,,,,,,,,,,,,1277.422152,1277.915233,1277.422152,1277.915233,70.06802721,1575407592,1575407594,1.782746077,1575407590,1575407592,,,S4,1,40,m,Expert Radiologist,2019_Dec_03_1454,AdjustEyeTrack,3.1.5,60.42540585
115,Stimuli/Morph115.JPG,Stimuli/Morph115.png,Stimuli/BlurLevel5/BlurEditedMorph115,Stimuli/BlurLevel5/BlurEditedMorph115.png,Stimuli/BlurLevel5/NumberedMorphs/BlurEditedMorph115.png,Stimuli/BlurLevel5/OriginalBlur/BlurEditedMorph115.png,Stimuli/BlurMorphTrio/EditedMorph115.png,None,None,,,,,1,0,1,0,0,19,19,114,,,,,,,,,,,,,,,,,,,,,,,11,20,2,213,-2.09667642,-1.361597588,115,Experiment,,,,,,,,,146,107,8,8,,,,,,,,,,,,,,,1282.538666,1283.032506,1282.538666,1283.032506,89.11564626,1575407597,1575407602,4.235651016,1575407594,1575407597,,,S4,1,40,m,Expert Radiologist,2019_Dec_03_1454,AdjustEyeTrack,3.1.5,60.42540585
114,Stimuli/Morph114.JPG,Stimuli/Morph114.png,Stimuli/BlurLevel5/BlurEditedMorph114,Stimuli/BlurLevel5/BlurEditedMorph114.png,Stimuli/BlurLevel5/NumberedMorphs/BlurEditedMorph114.png,Stimuli/BlurLevel5/OriginalBlur/BlurEditedMorph114.png,Stimuli/BlurMorphTrio/EditedMorph114.png,None,None,,,,,1,0,1,0,0,20,20,113,,,,,,,,,,,,,,,,,,,,,,,77,21,2,252,-0.772542486,-2.377641291,114,Experiment,,,,,,,,,144,98,16,16,,,,,,,,,,,,,,,1289.584927,1290.085772,1289.584927,1290.085772,78.23129252,1575407604,1575407608,3.800127983,1575407602,1575407604,,,S4,1,40,m,Expert Radiologist,2019_Dec_03_1454,AdjustEyeTrack,3.1.5,60.42540585
132,Stimuli/Morph132.JPG,Stimuli/Morph132.png,Stimuli/BlurLevel5/BlurEditedMorph132,Stimuli/BlurLevel5/BlurEditedMorph132.png,Stimuli/BlurLevel5/NumberedMorphs/BlurEditedMorph132.png,Stimuli/BlurLevel5/OriginalBlur/BlurEditedMorph132.png,Stimuli/BlurMorphTrio/EditedMorph132.png,None,None,,,,,1,0,1,0,0,21,21,131,,,,,,,,,,,,,,,,,,,,,,,9,22,2,282,0.519779227,-2.445369002,132,Experiment,,,,,,,,,23,79,53,53,,,,,,,,,,,,,,,1295.823688,1296.315156,1295.823688,1296.315156,27.89115646,1575407611,1575407613,2.675376892,1575407609,1575407611,,,S4,1,40,m,Expert Radiologist,2019_Dec_03_1454,AdjustEyeTrack,3.1.5,60.42540585
112,Stimuli/Morph112.JPG,Stimuli/Morph112.png,Stimuli/BlurLevel5/BlurEditedMorph112,Stimuli/BlurLevel5/BlurEditedMorph112.png,Stimuli/BlurLevel5/NumberedMorphs/BlurEditedMorph112.png,Stimuli/BlurLevel5/OriginalBlur/BlurEditedMorph112.png,Stimuli/BlurMorphTrio/EditedMorph112.png,None,None,,,,,1,0,1,0,0,22,22,111,,,,,,,,,,,,,,,,,,,,,,,70,23,2,132,-1.672826516,1.857862064,112,Experiment,,,,,,,,,81,104,8,8,,,,,,,,,,,,,,,1301.243155,1301.75014,1301.243155,1301.75014,89.11564626,1575407616,1575407620,3.866627216,1575407614,1575407616,,,S4,1,40,m,Expert Radiologist,2019_Dec_03_1454,AdjustEyeTrack,3.1.5,60.42540585
37,Stimuli/Morph37.JPG,Stimuli/Morph37.png,Stimuli/BlurLevel5/BlurEditedMorph37,Stimuli/BlurLevel5/BlurEditedMorph37.png,Stimuli/BlurLevel5/NumberedMorphs/BlurEditedMorph37.png,Stimuli/BlurLevel5/OriginalBlur/BlurEditedMorph37.png,Stimuli/BlurMorphTrio/EditedMorph37.png,010097right.gif,Stimuli/normal_thumbnails/37right.gif,,,,,1,0,1,0,0,23,23,36,,,,,,,,,,,,,,,,,,,,,,,56,24,2,301,1.287595187,-2.142918252,37,Experiment,,,,,,,,,139,133,-96,51,,,,,,,,,,,,,,,1308.25784,1308.765061,1308.25784,1308.765061,30.6122449,1575407623,1575407627,4.08234787,1575407620,1575407623,,,S4,1,40,m,Expert Radiologist,2019_Dec_03_1454,AdjustEyeTrack,3.1.5,60.42540585
111,Stimuli/Morph111.JPG,Stimuli/Morph111.png,Stimuli/BlurLevel5/BlurEditedMorph111,Stimuli/BlurLevel5/BlurEditedMorph111.png,Stimuli/BlurLevel5/NumberedMorphs/BlurEditedMorph111.png,Stimuli/BlurLevel5/OriginalBlur/BlurEditedMorph111.png,Stimuli/BlurMorphTrio/EditedMorph111.png,None,None,,,,,1,0,1,0,0,24,24,110,,,,,,,,,,,,,,,,,,,,,,,80,25,2,326,2.072593931,-1.397982259,111,Experiment,,,,,,,,,62,102,9,9,,,,,,,,,,,,,,,1314.732585,1315.231939,1314.732585,1315.231939,87.75510204,1575407630,1575407631,1.766911983,1575407627,1575407630,,,S4,1,40,m,Expert Radiologist,2019_Dec_03_1454,AdjustEyeTrack,3.1.5,60.42540585
81,Stimuli/Morph81.JPG,Stimuli/Morph81.png,Stimuli/BlurLevel5/BlurEditedMorph81,Stimuli/BlurLevel5/BlurEditedMorph81.png,Stimuli/BlurLevel5/NumberedMorphs/BlurEditedMorph81.png,Stimuli/BlurLevel5/OriginalBlur/BlurEditedMorph81.png,Stimuli/BlurMorphTrio/EditedMorph81.png,020245right.gif,Stimuli/normal_thumbnails/81right.gif,,,,,1,0,1,0,0,25,25,80,,,,,,,,,,,,,,,,,,,,,,,32,26,2,37,1.996588775,1.504537558,81,Experiment,,,,,,,,,114,108,-27,-27,,,,,,,,,,,,,,,1319.045702,1319.547967,1319.045702,1319.547967,63.26530612,1575407634,1575407635,1.468071938,1575407632,1575407634,,,S4,1,40,m,Expert Radiologist,2019_Dec_03_1454,AdjustEyeTrack,3.1.5,60.42540585
22,Stimuli/Morph22.JPG,Stimuli/Morph22.png,Stimuli/BlurLevel5/BlurEditedMorph22,Stimuli/BlurLevel5/BlurEditedMorph22.png,Stimuli/BlurLevel5/NumberedMorphs/BlurEditedMorph22.png,Stimuli/BlurLevel5/OriginalBlur/BlurEditedMorph22.png,Stimuli/BlurMorphTrio/EditedMorph22.png,010055right.gif,Stimuli/normal_thumbnails/22right.gif,,,,,1,0,1,0,0,26,26,21,,,,,,,,,,,,,,,,,,,,,,,11,27,2,359,2.499619238,-0.043631016,22,Experiment,,,,,,,,,44,26,-4,-4,,,,,,,,,,,,,,,1323.749328,1324.247866,1323.749328,1324.247866,94.55782313,1575407639,1575407642,3.517852068,1575407636,1575407639,,,S4,1,40,m,Expert Radiologist,2019_Dec_03_1454,AdjustEyeTrack,3.1.5,60.42540585
125,Stimuli/Morph125.JPG,Stimuli/Morph125.png,Stimuli/BlurLevel5/BlurEditedMorph125,Stimuli/BlurLevel5/BlurEditedMorph125.png,Stimuli/BlurLevel5/NumberedMorphs/BlurEditedMorph125.png,Stimuli/BlurLevel5/OriginalBlur/BlurEditedMorph125.png,Stimuli/BlurMorphTrio/EditedMorph125.png,None,None,,,,,1,0,1,0,0,27,27,124,,,,,,,,,,,,,,,,,,,,,,,59,28,2,207,-2.22751631,-1.134976249,125,Experiment,,,,,,,,,95,115,10,10,,,,,,,,,,,,,,,1329.668341,1330.164075,1329.668341,1330.164075,86.39455782,1575407645,1575407648,3.351021051,1575407642,1575407645,,,S4,1,40,m,Expert Radiologist,2019_Dec_03_1454,AdjustEyeTrack,3.1.5,60.42540585
55,Stimuli/Morph55.JPG,Stimuli/Morph55.png,Stimuli/BlurLevel5/BlurEditedMorph55,Stimuli/BlurLevel5/BlurEditedMorph55.png,Stimuli/BlurLevel5/NumberedMorphs/BlurEditedMorph55.png,Stimuli/BlurLevel5/OriginalBlur/BlurEditedMorph55.png,Stimuli/BlurMorphTrio/EditedMorph55.png,010151right.gif,Stimuli/normal_thumbnails/55right.gif,,,,,1,0,1,0,0,28,28,54,,,,,,,,,,,,,,,,,,,,,,,68,29,2,84,0.261321158,2.486304738,55,Experiment,,,,,,,,,107,39,16,16,,,,,,,,,,,,,,,1335.867907,1336.364761,1335.867907,1336.364761,78.23129252,1575407651,1575407655,3.954909086,1575407648,1575407651,,,S4,1,40,m,Expert Radiologist,2019_Dec_03_1454,AdjustEyeTrack,3.1.5,60.42540585
135,Stimuli/Morph135.JPG,Stimuli/Morph135.png,Stimuli/BlurLevel5/BlurEditedMorph135,Stimuli/BlurLevel5/BlurEditedMorph135.png,Stimuli/BlurLevel5/NumberedMorphs/BlurEditedMorph135.png,Stimuli/BlurLevel5/OriginalBlur/BlurEditedMorph135.png,Stimuli/BlurMorphTrio/EditedMorph135.png,None,None,,,,,1,0,1,0,0,29,29,134,,,,,,,,,,,,,,,,,,,,,,,20,30,2,74,0.68909339,2.40315424,135,Experiment,,,,,,,,,120,138,-3,-3,,,,,,,,,,,,,,,1342.704867,1343.197859,1342.704867,1343.197859,95.91836735,1575407658,1575407662,4.58671999,1575407655,1575407658,,,S4,1,40,m,Expert Radiologist,2019_Dec_03_1454,AdjustEyeTrack,3.1.5,60.42540585
13,Stimuli/Morph13.JPG,Stimuli/Morph13.png,Stimuli/BlurLevel5/BlurEditedMorph13,Stimuli/BlurLevel5/BlurEditedMorph13.png,Stimuli/BlurLevel5/NumberedMorphs/BlurEditedMorph13.png,Stimuli/BlurLevel5/OriginalBlur/BlurEditedMorph13.png,Stimuli/BlurMorphTrio/EditedMorph13.png,010027right.gif,Stimuli/normal_thumbnails/13right.gif,,,,,1,0,1,0,0,30,30,12,,,,,,,,,,,,,,,,,,,,,,,13,31,2,252,-0.772542486,-2.377641291,13,Experiment,,,,,,,,,116,4,9,9,,,,,,,,,,,,,,,1350.483653,1350.997977,1350.483653,1350.997977,87.75510204,1575407665,1575407670,4.34738493,1575407662,1575407665,,,S4,1,40,m,Expert Radiologist,2019_Dec_03_1454,AdjustEyeTrack,3.1.5,60.42540585
97,Stimuli/Morph97.JPG,Stimuli/Morph97.png,Stimuli/BlurLevel5/BlurEditedMorph97,Stimuli/BlurLevel5/BlurEditedMorph97.png,Stimuli/BlurLevel5/NumberedMorphs/BlurEditedMorph97.png,Stimuli/BlurLevel5/OriginalBlur/BlurEditedMorph97.png,Stimuli/BlurMorphTrio/EditedMorph97.png,020294right.gif,Stimuli/normal_thumbnails/97right.gif,,,,,1,0,1,0,0,31,31,96,,,,,,,,,,,,,,,,,,,,,,,14,32,2,289,0.813920386,-2.363796439,97,Experiment,,,,,,,,,47,113,-16,-16,,,,,,,,,,,,,,,1357.966695,1358.463591,1357.966695,1358.463591,78.23129252,1575407673,1575407678,5.432570219,1575407670,1575407673,,,S4,1,40,m,Expert Radiologist,2019_Dec_03_1454,AdjustEyeTrack,3.1.5,60.42540585
129,Stimuli/Morph129.JPG,Stimuli/Morph129.png,Stimuli/BlurLevel5/BlurEditedMorph129,Stimuli/BlurLevel5/BlurEditedMorph129.png,Stimuli/BlurLevel5/NumberedMorphs/BlurEditedMorph129.png,Stimuli/BlurLevel5/OriginalBlur/BlurEditedMorph129.png,Stimuli/BlurMorphTrio/EditedMorph129.png,None,None,,,,,1,0,1,0,0,32,32,128,,,,,,,,,,,,,,,,,,,,,,,1,33,2,179,-2.499619238,0.043631016,129,Experiment,,,,,,,,,74,126,3,3,,,,,,,,,,,,,,,1365.503519,1366.181645,1365.503519,1366.181645,95.91836735,1575407681,1575407686,4.767436981,1575407679,1575407681,,,S4,1,40,m,Expert Radiologist,2019_Dec_03_1454,AdjustEyeTrack,3.1.5,60.42540585
24,Stimuli/Morph24.JPG,Stimuli/Morph24.png,Stimuli/BlurLevel5/BlurEditedMorph24,Stimuli/BlurLevel5/BlurEditedMorph24.png,Stimuli/BlurLevel5/NumberedMorphs/BlurEditedMorph24.png,Stimuli/BlurLevel5/OriginalBlur/BlurEditedMorph24.png,Stimuli/BlurMorphTrio/EditedMorph24.png,010068right.gif,Stimuli/normal_thumbnails/24right.gif,,,,,1,0,1,0,0,33,33,23,,,,,,,,,,,,,,,,,,,,,,,53,34,2,241,-1.212024051,-2.186549268,24,Experiment,,,,,,,,,125,15,9,9,,,,,,,,,,,,,,,1373.384898,1374.065093,1373.384898,1374.065093,87.75510204,1575407688,1575407692,3.700623751,1575407686,1575407688,,,S4,1,40,m,Expert Radiologist,2019_Dec_03_1454,AdjustEyeTrack,3.1.5,60.42540585
17,Stimuli/Morph17.JPG,Stimuli/Morph17.png,Stimuli/BlurLevel5/BlurEditedMorph17,Stimuli/BlurLevel5/BlurEditedMorph17.png,Stimuli/BlurLevel5/NumberedMorphs/BlurEditedMorph17.png,Stimuli/BlurLevel5/OriginalBlur/BlurEditedMorph17.png,Stimuli/BlurMorphTrio/EditedMorph17.png,010036right.gif,Stimuli/normal_thumbnails/17right.gif,,,,,1,0,1,0,0,34,34,16,,,,,,,,,,,,,,,,,,,,,,,77,35,2,308,1.539153688,-1.970026884,17,Experiment,,,,,,,,,26,19,-2,-2,,,,,,,,,,,,,,,1379.751385,1380.247928,1379.751385,1380.247928,97.27891156,1575407695,1575407696,1.554687977,1575407692,1575407695,,,S4,1,40,m,Expert Radiologist,2019_Dec_03_1454,AdjustEyeTrack,3.1.5,60.42540585
120,Stimuli/Morph120.JPG,Stimuli/Morph120.png,Stimuli/BlurLevel5/BlurEditedMorph120,Stimuli/BlurLevel5/BlurEditedMorph120.png,Stimuli/BlurLevel5/NumberedMorphs/BlurEditedMorph120.png,Stimuli/BlurLevel5/OriginalBlur/BlurEditedMorph120.png,Stimuli/BlurMorphTrio/EditedMorph120.png,None,None,,,,,1,0,1,0,0,35,35,119,,,,,,,,,,,,,,,,,,,,,,,2,36,2,106,-0.68909339,2.40315424,120,Experiment,,,,,,,,,106,118,2,2,,,,,,,,,,,,,,,1383.800058,1384.299606,1383.800058,1384.299606,97.27891156,1575407699,1575407701,2.334619999,1575407696,1575407699,,,S4,1,40,m,Expert Radiologist,2019_Dec_03_1454,AdjustEyeTrack,3.1.5,60.42540585
65,Stimuli/Morph65.JPG,Stimuli/Morph65.png,Stimuli/BlurLevel5/BlurEditedMorph65,Stimuli/BlurLevel5/BlurEditedMorph65.png,Stimuli/BlurLevel5/NumberedMorphs/BlurEditedMorph65.png,Stimuli/BlurLevel5/OriginalBlur/BlurEditedMorph65.png,Stimuli/BlurMorphTrio/EditedMorph65.png,020209right.gif,Stimuli/normal_thumbnails/65right.gif,,,,,1,0,1,0,0,36,36,64,,,,,,,,,,,,,,,,,,,,,,,95,37,2,194,-2.425739316,-0.604804739,65,Experiment,,,,,,,,,23,57,8,8,,,,,,,,,,,,,,,1389.232805,1389.730665,1389.232805,1389.730665,89.11564626,1575407704,1575407709,4.416137934,1575407701,1575407704,,,S4,1,40,m,Expert Radiologist,2019_Dec_03_1454,AdjustEyeTrack,3.1.5,60.42540585
94,Stimuli/Morph94.JPG,Stimuli/Morph94.png,Stimuli/BlurLevel5/BlurEditedMorph94,Stimuli/BlurLevel5/BlurEditedMorph94.png,Stimuli/BlurLevel5/NumberedMorphs/BlurEditedMorph94.png,Stimuli/BlurLevel5/OriginalBlur/BlurEditedMorph94.png,Stimuli/BlurMorphTrio/EditedMorph94.png,020286right.gif,Stimuli/normal_thumbnails/94right.gif,,,,,1,0,1,0,0,37,37,93,,,,,,,,,,,,,,,,,,,,,,,74,38,2,149,-2.142918252,1.287595187,94,Experiment,,,,,,,,,136,109,-15,-15,,,,,,,,,,,,,,,1396.598931,1397.097019,1396.598931,1397.097019,79.59183673,1575407711,1575407716,4.950922012,1575407709,1575407711,,,S4,1,40,m,Expert Radiologist,2019_Dec_03_1454,AdjustEyeTrack,3.1.5,60.42540585
144,Stimuli/Morph144.JPG,Stimuli/Morph144.png,Stimuli/BlurLevel5/BlurEditedMorph144,Stimuli/BlurLevel5/BlurEditedMorph144.png,Stimuli/BlurLevel5/NumberedMorphs/BlurEditedMorph144.png,Stimuli/BlurLevel5/OriginalBlur/BlurEditedMorph144.png,Stimuli/BlurMorphTrio/EditedMorph144.png,None,None,,,,,1,0,1,0,0,38,38,143,,,,,,,,,,,,,,,,,,,,,,,1,39,2,238,-1.324798161,-2.12012024,144,Experiment,,,,,,,,,102,136,8,8,,,,,,,,,,,,,,,1403.547563,1404.063435,1403.547563,1404.063435,89.11564626,1575407718,1575407724,5.133096933,1575407717,1575407718,,,S4,1,40,m,Expert Radiologist,2019_Dec_03_1454,AdjustEyeTrack,3.1.5,60.42540585
91,Stimuli/Morph91.JPG,Stimuli/Morph91.png,Stimuli/BlurLevel5/BlurEditedMorph91,Stimuli/BlurLevel5/BlurEditedMorph91.png,Stimuli/BlurLevel5/NumberedMorphs/BlurEditedMorph91.png,Stimuli/BlurLevel5/OriginalBlur/BlurEditedMorph91.png,Stimuli/BlurMorphTrio/EditedMorph91.png,020276right.gif,Stimuli/normal_thumbnails/91right.gif,,,,,1,0,1,0,0,39,39,90,,,,,,,,,,,,,,,,,,,,,,,55,40,2,316,1.798349501,-1.736645926,91,Experiment,,,,,,,,,105,111,-20,-20,,,,,,,,,,,,,,,1411.332866,1411.830797,1411.332866,1411.830797,72.78911565,1575407726,1575407729,2.434905767,1575407724,1575407726,,,S4,1,40,m,Expert Radiologist,2019_Dec_03_1454,AdjustEyeTrack,3.1.5,60.42540585
45,Stimuli/Morph45.JPG,Stimuli/Morph45.png,Stimuli/BlurLevel5/BlurEditedMorph45,Stimuli/BlurLevel5/BlurEditedMorph45.png,Stimuli/BlurLevel5/NumberedMorphs/BlurEditedMorph45.png,Stimuli/BlurLevel5/OriginalBlur/BlurEditedMorph45.png,Stimuli/BlurMorphTrio/EditedMorph45.png,010127right.gif,Stimuli/normal_thumbnails/45right.gif,,,,,1,0,1,0,0,40,40,44,,,,,,,,,,,,,,,,,,,,,,,18,41,2,286,0.68909339,-2.40315424,45,Experiment,,,,,,,,,19,54,-9,-9,,,,,,,,,,,,,,,1416.329629,1416.831005,1416.329629,1416.831005,87.75510204,1575407731,1575407735,3.90336895,1575407729,1575407731,,,S4,1,40,m,Expert Radiologist,2019_Dec_03_1454,AdjustEyeTrack,3.1.5,60.42540585
77,Stimuli/Morph77.JPG,Stimuli/Morph77.png,Stimuli/BlurLevel5/BlurEditedMorph77,Stimuli/BlurLevel5/BlurEditedMorph77.png,Stimuli/BlurLevel5/NumberedMorphs/BlurEditedMorph77.png,Stimuli/BlurLevel5/OriginalBlur/BlurEditedMorph77.png,Stimuli/BlurMorphTrio/EditedMorph77.png,020235right.gif,Stimuli/normal_thumbnails/77right.gif,,,,,1,0,1,0,0,41,41,76,,,,,,,,,,,,,,,,,,,,,,,9,42,2,67,0.976827821,2.301262134,77,Experiment,,,,,,,,,40,112,-35,-35,,,,,,,,,,,,,,,1422.657726,1423.146905,1422.657726,1423.146905,52.38095238,1575407738,1575407740,2.533282995,1575407735,1575407737,,,S4,1,40,m,Expert Radiologist,2019_Dec_03_1454,AdjustEyeTrack,3.1.5,60.42540585
34,Stimuli/Morph34.JPG,Stimuli/Morph34.png,Stimuli/BlurLevel5/BlurEditedMorph34,Stimuli/BlurLevel5/BlurEditedMorph34.png,Stimuli/BlurLevel5/NumberedMorphs/BlurEditedMorph34.png,Stimuli/BlurLevel5/OriginalBlur/BlurEditedMorph34.png,Stimuli/BlurMorphTrio/EditedMorph34.png,010090right.gif,Stimuli/normal_thumbnails/34right.gif,,,,,1,0,1,0,0,42,42,33,,,,,,,,,,,,,,,,,,,,,,,21,43,2,80,0.434120444,2.462019383,34,Experiment,,,,,,,,,75,30,4,4,,,,,,,,,,,,,,,1427.897534,1428.396485,1427.897534,1428.396485,94.55782313,1575407743,1575407745,2.585767984,1575407740,1575407743,,,S4,1,40,m,Expert Radiologist,2019_Dec_03_1454,AdjustEyeTrack,3.1.5,60.42540585
39,Stimuli/Morph39.JPG,Stimuli/Morph39.png,Stimuli/BlurLevel5/BlurEditedMorph39,Stimuli/BlurLevel5/BlurEditedMorph39.png,Stimuli/BlurLevel5/NumberedMorphs/BlurEditedMorph39.png,Stimuli/BlurLevel5/OriginalBlur/BlurEditedMorph39.png,Stimuli/BlurMorphTrio/EditedMorph39.png,010109right.gif,Stimuli/normal_thumbnails/39right.gif,,,,,1,0,1,0,0,43,43,38,,,,,,,,,,,,,,,,,,,,,,,91,44,2,56,1.397982259,2.072593931,39,Experiment,,,,,,,,,51,47,-8,-8,,,,,,,,,,,,,,,1433.301402,1433.947133,1433.301402,1433.947133,89.11564626,1575407748,1575407753,4.534547329,1575407746,1575407748,,,S4,1,40,m,Expert Radiologist,2019_Dec_03_1454,AdjustEyeTrack,3.1.5,60.42540585
50,Stimuli/Morph50.JPG,Stimuli/Morph50.png,Stimuli/BlurLevel5/BlurEditedMorph50,Stimuli/BlurLevel5/BlurEditedMorph50.png,Stimuli/BlurLevel5/NumberedMorphs/BlurEditedMorph50.png,Stimuli/BlurLevel5/OriginalBlur/BlurEditedMorph50.png,Stimuli/BlurMorphTrio/EditedMorph50.png,010142right.gif,Stimuli/normal_thumbnails/50right.gif,,,,,1,0,1,0,0,44,44,49,,,,,,,,,,,,,,,,,,,,,,,93,45,2,99,-0.391086163,2.469220851,50,Experiment,,,,,,,,,80,52,-2,-2,,,,,,,,,,,,,,,1441.049092,1441.546633,1441.049092,1441.546633,97.27891156,1575407756,1575407761,4.654191256,1575407753,1575407756,,,S4,1,40,m,Expert Radiologist,2019_Dec_03_1454,AdjustEyeTrack,3.1.5,60.42540585
54,Stimuli/Morph54.JPG,Stimuli/Morph54.png,Stimuli/BlurLevel5/BlurEditedMorph54,Stimuli/BlurLevel5/BlurEditedMorph54.png,Stimuli/BlurLevel5/NumberedMorphs/BlurEditedMorph54.png,Stimuli/BlurLevel5/OriginalBlur/BlurEditedMorph54.png,Stimuli/BlurMorphTrio/EditedMorph54.png,010150right.gif,Stimuli/normal_thumbnails/54right.gif,,,,,1,0,1,0,0,45,45,53,,,,,,,,,,,,,,,,,,,,,,,77,46,2,309,1.573300978,-1.942864904,54,Experiment,,,,,,,,,44,44,10,10,,,,,,,,,,,,,,,1448.634234,1449.202425,1448.634234,1449.202425,86.39455782,1575407764,1575407766,1.966543674,1575407761,1575407764,,,S4,1,40,m,Expert Radiologist,2019_Dec_03_1454,AdjustEyeTrack,3.1.5,60.42540585
51,Stimuli/Morph51.JPG,Stimuli/Morph51.png,Stimuli/BlurLevel5/BlurEditedMorph51,Stimuli/BlurLevel5/BlurEditedMorph51.png,Stimuli/BlurLevel5/NumberedMorphs/BlurEditedMorph51.png,Stimuli/BlurLevel5/OriginalBlur/BlurEditedMorph51.png,Stimuli/BlurMorphTrio/EditedMorph51.png,010146right.gif,Stimuli/normal_thumbnails/51right.gif,,,,,1,0,1,0,0,46,46,50,,,,,,,,,,,,,,,,,,,,,,,98,47,2,74,0.68909339,2.40315424,51,Experiment,,,,,,,,,8,50,1,1,,,,,,,,,,,,,,,1453.649328,1454.146696,1453.649328,1454.146696,98.63945578,1575407769,1575407772,3.250069141,1575407766,1575407768,,,S4,1,40,m,Expert Radiologist,2019_Dec_03_1454,AdjustEyeTrack,3.1.5,60.42540585
53,Stimuli/Morph53.JPG,Stimuli/Morph53.png,Stimuli/BlurLevel5/BlurEditedMorph53,Stimuli/BlurLevel5/BlurEditedMorph53.png,Stimuli/BlurLevel5/NumberedMorphs/BlurEditedMorph53.png,Stimuli/BlurLevel5/OriginalBlur/BlurEditedMorph53.png,Stimuli/BlurMorphTrio/EditedMorph53.png,010149right.gif,Stimuli/normal_thumbnails/53right.gif,,,,,1,0,1,0,0,47,47,52,,,,,,,,,,,,,,,,,,,,,,,42,48,2,296,1.095927867,-2.246985116,53,Experiment,,,,,,,,,79,49,4,4,,,,,,,,,,,,,,,1460.190149,1460.729672,1460.190149,1460.729672,94.55782313,1575407775,1575407781,5.420622826,1575407772,1575407775,,,S4,1,40,m,Expert Radiologist,2019_Dec_03_1454,AdjustEyeTrack,3.1.5,60.42540585
75,Stimuli/Morph75.JPG,Stimuli/Morph75.png,Stimuli/BlurLevel5/BlurEditedMorph75,Stimuli/BlurLevel5/BlurEditedMorph75.png,Stimuli/BlurLevel5/NumberedMorphs/BlurEditedMorph75.png,Stimuli/BlurLevel5/OriginalBlur/BlurEditedMorph75.png,Stimuli/BlurMorphTrio/EditedMorph75.png,020233right.gif,Stimuli/normal_thumbnails/75right.gif,,,,,1,0,1,0,0,48,48,74,,,,,,,,,,,,,,,,,,,,,,,12,49,2,132,-1.672826516,1.857862064,75,Experiment,,,,,,,,,130,36,39,39,,,,,,,,,,,,,,,1468.94743,1469.446238,1468.94743,1469.446238,46.93877551,1575407784,1575407790,6.06753397,1575407781,1575407784,,,S4,1,40,m,Expert Radiologist,2019_Dec_03_1454,AdjustEyeTrack,3.1.5,60.42540585
64,Stimuli/Morph64.JPG,Stimuli/Morph64.png,Stimuli/BlurLevel5/BlurEditedMorph64,Stimuli/BlurLevel5/BlurEditedMorph64.png,Stimuli/BlurLevel5/NumberedMorphs/BlurEditedMorph64.png,Stimuli/BlurLevel5/OriginalBlur/BlurEditedMorph64.png,Stimuli/BlurMorphTrio/EditedMorph64.png,020208right.gif,Stimuli/normal_thumbnails/64right.gif,,,,,1,0,1,0,0,49,49,63,,,,,,,,,,,,,,,,,,,,,,,7,50,2,94,-0.174391184,2.493910126,64,Experiment,,,,,,,,,54,54,10,10,,,,,,,,,,,,,,,1477.801154,1478.296275,1477.801154,1478.296275,86.39455782,1575407793,1575407795,2.283880949,1575407790,1575407793,,,S4,1,40,m,Expert Radiologist,2019_Dec_03_1454,AdjustEyeTrack,3.1.5,60.42540585
95,Stimuli/Morph95.JPG,Stimuli/Morph95.png,Stimuli/BlurLevel5/BlurEditedMorph95,Stimuli/BlurLevel5/BlurEditedMorph95.png,Stimuli/BlurLevel5/NumberedMorphs/BlurEditedMorph95.png,Stimuli/BlurLevel5/OriginalBlur/BlurEditedMorph95.png,Stimuli/BlurMorphTrio/EditedMorph95.png,020287right.gif,Stimuli/normal_thumbnails/95right.gif,,,,,1,0,1,0,0,50,50,94,,,,,,,,,,,,,,,,,,,,,,,6,51,2,220,-1.915111108,-1.606969024,95,Experiment,,,,,,,,,60,101,-6,-6,,,,,,,,,,,,,,,1483.181326,1483.679237,1483.181326,1483.679237,91.83673469,1575407798,1575407801,2.449893951,1575407795,1575407798,,,S4,1,40,m,Expert Radiologist,2019_Dec_03_1454,AdjustEyeTrack,3.1.5,60.42540585
92,Stimuli/Morph92.JPG,Stimuli/Morph92.png,Stimuli/BlurLevel5/BlurEditedMorph92,Stimuli/BlurLevel5/BlurEditedMorph92.png,Stimuli/BlurLevel5/NumberedMorphs/BlurEditedMorph92.png,Stimuli/BlurLevel5/OriginalBlur/BlurEditedMorph92.png,Stimuli/BlurMorphTrio/EditedMorph92.png,020277right.gif,Stimuli/normal_thumbnails/92right.gif,,,,,1,0,1,0,0,51,51,91,,,,,,,,,,,,,,,,,,,,,,,44,52,2,154,-2.246985116,1.095927867,92,Experiment,,,,,,,,,21,107,-15,-15,,,,,,,,,,,,,,,1488.301458,1488.796165,1488.301458,1488.796165,79.59183673,1575407803,1575407807,4.100328922,1575407801,1575407803,,,S4,1,40,m,Expert Radiologist,2019_Dec_03_1454,AdjustEyeTrack,3.1.5,60.42540585
103,Stimuli/Morph103.JPG,Stimuli/Morph103.png,Stimuli/BlurLevel5/BlurEditedMorph103,Stimuli/BlurLevel5/BlurEditedMorph103.png,Stimuli/BlurLevel5/NumberedMorphs/BlurEditedMorph103.png,Stimuli/BlurLevel5/OriginalBlur/BlurEditedMorph103.png,Stimuli/BlurMorphTrio/EditedMorph103.png,None,None,,,,,1,0,1,0,0,52,52,102,,,,,,,,,,,,,,,,,,,,,,,42,53,2,121,-1.287595187,2.142918252,103,Experiment,,,,,,,,,91,97,6,6,,,,,,,,,,,,,,,1495.121397,1495.612935,1495.121397,1495.612935,91.83673469,1575407810,1575407811,1.468081951,1575407808,1575407810,,,S4,1,40,m,Expert Radiologist,2019_Dec_03_1454,AdjustEyeTrack,3.1.5,60.42540585
41,Stimuli/Morph41.JPG,Stimuli/Morph41.png,Stimuli/BlurLevel5/BlurEditedMorph41,Stimuli/BlurLevel5/BlurEditedMorph41.png,Stimuli/BlurLevel5/NumberedMorphs/BlurEditedMorph41.png,Stimuli/BlurLevel5/OriginalBlur/BlurEditedMorph41.png,Stimuli/BlurMorphTrio/EditedMorph41.png,010112right.gif,Stimuli/normal_thumbnails/41right.gif,,,,,1,0,1,0,0,53,53,40,,,,,,,,,,,,,,,,,,,,,,,24,54,2,197,-2.39076189,-0.730929262,41,Experiment,,,,,,,,,137,34,7,7,,,,,,,,,,,,,,,1499.406535,1499.896713,1499.406535,1499.896713,90.47619048,1575407814,1575407818,3.833372116,1575407812,1575407814,,,S4,1,40,m,Expert Radiologist,2019_Dec_03_1454,AdjustEyeTrack,3.1.5,60.42540585
5,Stimuli/Morph5.JPG,Stimuli/Morph5.png,Stimuli/BlurLevel5/BlurEditedMorph5,Stimuli/BlurLevel5/BlurEditedMorph5.png,Stimuli/BlurLevel5/NumberedMorphs/BlurEditedMorph5.png,Stimuli/BlurLevel5/OriginalBlur/BlurEditedMorph5.png,Stimuli/BlurMorphTrio/EditedMorph5.png,010011right.gif,Stimuli/normal_thumbnails/5right.gif,,,,,1,0,1,0,0,54,54,4,,,,,,,,,,,,,,,,,,,,,,,51,55,2,146,-2.072593931,1.397982259,5,Experiment,,,,,,,,,72,142,-137,10,,,,,,,,,,,,,,,1506.362707,1506.861525,1506.362707,1506.861525,86.39455782,1575407821,1575407824,3.267449856,1575407818,1575407821,,,S4,1,40,m,Expert Radiologist,2019_Dec_03_1454,AdjustEyeTrack,3.1.5,60.42540585
21,Stimuli/Morph21.JPG,Stimuli/Morph21.png,Stimuli/BlurLevel5/BlurEditedMorph21,Stimuli/BlurLevel5/BlurEditedMorph21.png,Stimuli/BlurLevel5/NumberedMorphs/BlurEditedMorph21.png,Stimuli/BlurLevel5/OriginalBlur/BlurEditedMorph21.png,Stimuli/BlurMorphTrio/EditedMorph21.png,010049right.gif,Stimuli/normal_thumbnails/21right.gif,,,,,1,0,1,0,0,55,55,20,,,,,,,,,,,,,,,,,,,,,,,44,56,2,150,-2.165063509,1.25,21,Experiment,,,,,,,,,96,25,-4,-4,,,,,,,,,,,,,,,1512.376611,1512.879635,1512.376611,1512.879635,94.55782313,1575407827,1575407831,4.151479959,1575407825,1575407827,,,S4,1,40,m,Expert Radiologist,2019_Dec_03_1454,AdjustEyeTrack,3.1.5,60.42540585
20,Stimuli/Morph20.JPG,Stimuli/Morph20.png,Stimuli/BlurLevel5/BlurEditedMorph20,Stimuli/BlurLevel5/BlurEditedMorph20.png,Stimuli/BlurLevel5/NumberedMorphs/BlurEditedMorph20.png,Stimuli/BlurLevel5/OriginalBlur/BlurEditedMorph20.png,Stimuli/BlurMorphTrio/EditedMorph20.png,010046right.gif,Stimuli/normal_thumbnails/20right.gif,,,,,1,0,1,0,0,56,56,19,,,,,,,,,,,,,,,,,,,,,,,20,57,2,171,-2.469220851,0.391086163,20,Experiment,,,,,,,,,129,18,2,2,,,,,,,,,,,,,,,1519.430824,1519.928656,1519.430824,1519.928656,97.27891156,1575407834,1575407838,4.167672873,1575407832,1575407834,,,S4,1,40,m,Expert Radiologist,2019_Dec_03_1454,AdjustEyeTrack,3.1.5,60.42540585
