stimulusID,stimulus_JPG,stimulusPath,stimulusPath2,stimulusPath3,stimulusPath4,stimulusPath5,stimulusPath6,xRayOriginal,xRayPath,Training.thisRepN,Training.thisTrialN,Training.thisN,Training.thisIndex,Blocks.thisRepN,Blocks.thisTrialN,Blocks.thisN,Blocks.thisIndex,Trials.thisRepN,Trials.thisTrialN,Trials.thisN,Trials.thisIndex,text_2.started,text_2.stopped,image.started,image.stopped,image_2.started,image_2.stopped,image_3.started,image_3.stopped,image_4.started,image_4.stopped,image_6.started,image_6.stopped,image_7.started,image_7.stopped,image_8.started,image_8.stopped,image_9.started,image_9.stopped,image_10.started,image_10.stopped,image_12.started,image_12.stopped,xrayID,trialNumber,blockNumber,stimLocationDeg,stimXCoord,stimYCoord,stimulusID,blockType,trainingXray.started,trainingXray.stopped,trainingTumors.started,trainingTumors.stopped,trainingScore%,startTrainingRespTime,endTrainingRespTime,trainingRT,morphTrack,morphID,errorRaw,errorCorrected,startTrainingStimTime,endTrainingStimTime,key_resp_3.keys,key_resp_3.rt,text.started,text.stopped,text_3.started,text_3.stopped,text_4.started,text_4.stopped,key_resp_5.keys,key_resp_5.rt,key_resp_5.started,key_resp_5.stopped,xray1.started,xray1.stopped,tumors.started,tumors.stopped,trialCorrect%,startRespTime,endRespTime,RT,startStimTime,endStimTime,key_resp.keys,key_resp.rt,participant,session,age,gender,status,date,expName,psychopyVersion,frameRate
56,Stimuli/Morph56.JPG,Stimuli/Morph56.png,Stimuli/BlurLevel5/BlurEditedMorph56,Stimuli/BlurLevel5/BlurEditedMorph56.png,Stimuli/BlurLevel5/NumberedMorphs/BlurEditedMorph56.png,Stimuli/BlurLevel5/OriginalBlur/BlurEditedMorph56.png,Stimuli/BlurMorphTrio/EditedMorph56.png,010157right.gif,Stimuli/normal_thumbnails/56right.gif,0,0,0,55,,,,,,,,,34.7939786,None,34.7939786,None,34.7939786,None,34.7939786,None,34.7939786,None,34.7939786,None,34.7939786,None,34.7939786,None,34.7939786,None,34.7939786,None,34.7939786,None,82,-100,-100,48,1.672826516,1.857862064,56,training,62.48595868,63.00976521,62.48595868,63.00976521,86.39455782,1575482237,1575482242,4.78270483,17,46,10,10,1575482235,1575482237,space,3.408993826,,,,,,,,,,,,,,,,,,,,,,,s9,1,44,m,expert radiologist,2019_Dec_04_1156,AdjustEyeTrack,3.1.5,59.70669789
42,Stimuli/Morph42.JPG,Stimuli/Morph42.png,Stimuli/BlurLevel5/BlurEditedMorph42,Stimuli/BlurLevel5/BlurEditedMorph42.png,Stimuli/BlurLevel5/NumberedMorphs/BlurEditedMorph42.png,Stimuli/BlurLevel5/OriginalBlur/BlurEditedMorph42.png,Stimuli/BlurMorphTrio/EditedMorph42.png,010121right.gif,Stimuli/normal_thumbnails/42right.gif,0,1,1,41,,,,,,,,,,,,,,,,,,,,,,,,,,,,,,,51,-100,-100,53,1.504537558,1.996588775,42,training,73.42216892,73.94319426,73.42216892,73.94319426,82.31292517,1575482248,1575482253,4.266208887,11,55,-13,-13,1575482246,1575482248,space,3.942267393,,,,,,,,,,,,,,,,,,,,,,,s9,1,44,m,expert radiologist,2019_Dec_04_1156,AdjustEyeTrack,3.1.5,59.70669789
36,Stimuli/Morph36.JPG,Stimuli/Morph36.png,Stimuli/BlurLevel5/BlurEditedMorph36,Stimuli/BlurLevel5/BlurEditedMorph36.png,Stimuli/BlurLevel5/NumberedMorphs/BlurEditedMorph36.png,Stimuli/BlurLevel5/OriginalBlur/BlurEditedMorph36.png,Stimuli/BlurMorphTrio/EditedMorph36.png,010095right.gif,Stimuli/normal_thumbnails/36right.gif,0,2,2,35,,,,,,,,,,,,,,,,,,,,,,,,,,,,,,,89,-100,-100,291,0.895919874,-2.333951066,36,training,84.18451588,84.69175175,84.18451588,84.69175175,80.95238095,1575482259,1575482261,1.866193771,2,50,-14,-14,1575482257,1575482259,space,4.188688977,,,,,,,,,,,,,,,,,,,,,,,s9,1,44,m,expert radiologist,2019_Dec_04_1156,AdjustEyeTrack,3.1.5,59.70669789
55,Stimuli/Morph55.JPG,Stimuli/Morph55.png,Stimuli/BlurLevel5/BlurEditedMorph55,Stimuli/BlurLevel5/BlurEditedMorph55.png,Stimuli/BlurLevel5/NumberedMorphs/BlurEditedMorph55.png,Stimuli/BlurLevel5/OriginalBlur/BlurEditedMorph55.png,Stimuli/BlurMorphTrio/EditedMorph55.png,010151right.gif,Stimuli/normal_thumbnails/55right.gif,0,3,3,54,,,,,,,,,,,,,,,,,,,,,,,,,,,,,,,91,-100,-100,57,1.361597588,2.09667642,55,training,93.0761724,93.57578536,93.0761724,93.57578536,86.39455782,1575482268,1575482270,2.284454107,52,45,10,10,1575482265,1575482268,space,4.177339916,,,,,,,,,,,,,,,,,,,,,,,s9,1,44,m,expert radiologist,2019_Dec_04_1156,AdjustEyeTrack,3.1.5,59.70669789
90,Stimuli/Morph90.JPG,Stimuli/Morph90.png,Stimuli/BlurLevel5/BlurEditedMorph90,Stimuli/BlurLevel5/BlurEditedMorph90.png,Stimuli/BlurLevel5/NumberedMorphs/BlurEditedMorph90.png,Stimuli/BlurLevel5/OriginalBlur/BlurEditedMorph90.png,Stimuli/BlurMorphTrio/EditedMorph90.png,020275right.gif,Stimuli/normal_thumbnails/90right.gif,0,4,4,89,,,,,,,,,,,,,,,,,,,,,,,,,,,,,,,84,-100,-100,209,-2.186549268,-1.212024051,90,training,102.0095846,102.5254799,102.0095846,102.5254799,95.91836735,1575482277,1575482280,3.416067839,104,93,-3,-3,1575482275,1575482277,space,1.927703412,,,,,,,,,,,,,,,,,,,,,,,s9,1,44,m,expert radiologist,2019_Dec_04_1156,AdjustEyeTrack,3.1.5,59.70669789
19,Stimuli/Morph19.JPG,Stimuli/Morph19.png,Stimuli/BlurLevel5/BlurEditedMorph19,Stimuli/BlurLevel5/BlurEditedMorph19.png,Stimuli/BlurLevel5/NumberedMorphs/BlurEditedMorph19.png,Stimuli/BlurLevel5/OriginalBlur/BlurEditedMorph19.png,Stimuli/BlurMorphTrio/EditedMorph19.png,010045right.gif,Stimuli/normal_thumbnails/19right.gif,0,5,5,18,,,,,,,,,,,,,,,,,,,,,,,,,,,,,,,60,-100,-100,142,-1.970026884,1.539153688,19,training,110.063482,110.5754199,110.063482,110.5754199,86.39455782,1575482285,1575482288,3.134278297,68,29,-10,-10,1575482282,1575482285,space,2.148547503,,,,,,,,,,,,,,,,,,,,,,,s9,1,44,m,expert radiologist,2019_Dec_04_1156,AdjustEyeTrack,3.1.5,59.70669789
133,Stimuli/Morph133.JPG,Stimuli/Morph133.png,Stimuli/BlurLevel5/BlurEditedMorph133,Stimuli/BlurLevel5/BlurEditedMorph133.png,Stimuli/BlurLevel5/NumberedMorphs/BlurEditedMorph133.png,Stimuli/BlurLevel5/OriginalBlur/BlurEditedMorph133.png,Stimuli/BlurMorphTrio/EditedMorph133.png,None,None,0,6,6,132,,,,,,,,,,,,,,,,,,,,,,,,,,,,,,,90,-100,-100,239,-1.287595187,-2.142918252,133,training,117.8310584,118.3518023,117.8310584,118.3518023,80.95238095,1575482293,1575482296,3.016350031,17,147,-14,-14,1575482290,1575482293,space,4.155740753,,,,,,,,,,,,,,,,,,,,,,,s9,1,44,m,expert radiologist,2019_Dec_04_1156,AdjustEyeTrack,3.1.5,59.70669789
64,Stimuli/Morph64.JPG,Stimuli/Morph64.png,Stimuli/BlurLevel5/BlurEditedMorph64,Stimuli/BlurLevel5/BlurEditedMorph64.png,Stimuli/BlurLevel5/NumberedMorphs/BlurEditedMorph64.png,Stimuli/BlurLevel5/OriginalBlur/BlurEditedMorph64.png,Stimuli/BlurMorphTrio/EditedMorph64.png,020208right.gif,Stimuli/normal_thumbnails/64right.gif,0,7,7,63,,,,,,,,,,,,,,,,,,,,,,,,,,,,,,,87,-100,-100,116,-1.095927867,2.246985116,64,training,127.5451613,128.0600929,127.5451613,128.0600929,67.34693878,1575482302,1575482305,2.832497835,98,40,24,24,1575482300,1575482302,space,3.632398924,,,,,,,,,,,,,,,,,,,,,,,s9,1,44,m,expert radiologist,2019_Dec_04_1156,AdjustEyeTrack,3.1.5,59.70669789
43,Stimuli/Morph43.JPG,Stimuli/Morph43.png,Stimuli/BlurLevel5/BlurEditedMorph43,Stimuli/BlurLevel5/BlurEditedMorph43.png,Stimuli/BlurLevel5/NumberedMorphs/BlurEditedMorph43.png,Stimuli/BlurLevel5/OriginalBlur/BlurEditedMorph43.png,Stimuli/BlurMorphTrio/EditedMorph43.png,010124right.gif,Stimuli/normal_thumbnails/43right.gif,0,8,8,42,,,,,,,,,,,,,,,,,,,,,,,,,,,,,,,15,-100,-100,285,0.647047613,-2.414814566,43,training,136.6943905,137.2084838,136.6943905,137.2084838,98.63945578,1575482312,1575482315,3.199235678,33,42,1,1,1575482309,1575482312,space,2.082456157,,,,,,,,,,,,,,,,,,,,,,,s9,1,44,m,expert radiologist,2019_Dec_04_1156,AdjustEyeTrack,3.1.5,59.70669789
94,Stimuli/Morph94.JPG,Stimuli/Morph94.png,Stimuli/BlurLevel5/BlurEditedMorph94,Stimuli/BlurLevel5/BlurEditedMorph94.png,Stimuli/BlurLevel5/NumberedMorphs/BlurEditedMorph94.png,Stimuli/BlurLevel5/OriginalBlur/BlurEditedMorph94.png,Stimuli/BlurMorphTrio/EditedMorph94.png,020286right.gif,Stimuli/normal_thumbnails/94right.gif,0,9,9,93,,,,,,,,,,,,,,,,,,,,,,,,,,,,,,,60,-100,-100,160,-2.349231552,0.855050358,94,training,144.4439609,144.9424575,144.4439609,144.9424575,71.42857143,1575482319,1575482325,5.633692026,29,73,21,21,1575482317,1575482319,space,1.603536996,,,,,,,,,,,,,,,,,,,,,,,s9,1,44,m,expert radiologist,2019_Dec_04_1156,AdjustEyeTrack,3.1.5,59.70669789
,,,,,,,,,,,,,,,,,,,,,,,,,,,,,,,,,,,,,,,,,,,,,-100,-100,,,,,training,,,,,,,,,,,,,,,,,153.3419388,None,153.3419388,None,153.3419388,None,space,20.43145218,153.3419388,None,,,,,,,,,,,,,s9,1,44,m,expert radiologist,2019_Dec_04_1156,AdjustEyeTrack,3.1.5,59.70669789
38,Stimuli/Morph38.JPG,Stimuli/Morph38.png,Stimuli/BlurLevel5/BlurEditedMorph38,Stimuli/BlurLevel5/BlurEditedMorph38.png,Stimuli/BlurLevel5/NumberedMorphs/BlurEditedMorph38.png,Stimuli/BlurLevel5/OriginalBlur/BlurEditedMorph38.png,Stimuli/BlurMorphTrio/EditedMorph38.png,010108right.gif,Stimuli/normal_thumbnails/38right.gif,,,,,0,0,0,0,0,0,0,37,,,,,,,,,,,,,,,,,,,,,,,51,1,1,247,-0.976827821,-2.301262134,38,Experiment,,,,,,,,,84,39,-1,-1,,,,,,,,,,,,,,,175.4407799,175.9418267,175.4407799,175.9418267,98.63945578,1575482350,1575482354,3.351492882,1575482348,1575482350,,,s9,1,44,m,expert radiologist,2019_Dec_04_1156,AdjustEyeTrack,3.1.5,59.70669789
23,Stimuli/Morph23.JPG,Stimuli/Morph23.png,Stimuli/BlurLevel5/BlurEditedMorph23,Stimuli/BlurLevel5/BlurEditedMorph23.png,Stimuli/BlurLevel5/NumberedMorphs/BlurEditedMorph23.png,Stimuli/BlurLevel5/OriginalBlur/BlurEditedMorph23.png,Stimuli/BlurMorphTrio/EditedMorph23.png,010063right.gif,Stimuli/normal_thumbnails/23right.gif,,,,,0,0,0,0,0,1,1,22,,,,,,,,,,,,,,,,,,,,,,,19,2,1,353,2.481365379,-0.304673359,23,Experiment,,,,,,,,,64,28,-5,-5,,,,,,,,,,,,,,,182.0126242,182.5416067,182.0126242,182.5416067,93.19727891,1575482357,1575482361,3.767219067,1575482354,1575482357,,,s9,1,44,m,expert radiologist,2019_Dec_04_1156,AdjustEyeTrack,3.1.5,59.70669789
98,Stimuli/Morph98.JPG,Stimuli/Morph98.png,Stimuli/BlurLevel5/BlurEditedMorph98,Stimuli/BlurLevel5/BlurEditedMorph98.png,Stimuli/BlurLevel5/NumberedMorphs/BlurEditedMorph98.png,Stimuli/BlurLevel5/OriginalBlur/BlurEditedMorph98.png,Stimuli/BlurMorphTrio/EditedMorph98.png,020298right.gif,Stimuli/normal_thumbnails/98right.gif,,,,,0,0,0,0,0,2,2,97,,,,,,,,,,,,,,,,,,,,,,,30,3,1,158,-2.317959636,0.936516484,98,Experiment,,,,,,,,,146,90,8,8,,,,,,,,,,,,,,,188.329598,188.8581458,188.329598,188.8581458,89.11564626,1575482363,1575482369,5.866047859,1575482361,1575482363,,,s9,1,44,m,expert radiologist,2019_Dec_04_1156,AdjustEyeTrack,3.1.5,59.70669789
137,Stimuli/Morph137.JPG,Stimuli/Morph137.png,Stimuli/BlurLevel5/BlurEditedMorph137,Stimuli/BlurLevel5/BlurEditedMorph137.png,Stimuli/BlurLevel5/NumberedMorphs/BlurEditedMorph137.png,Stimuli/BlurLevel5/OriginalBlur/BlurEditedMorph137.png,Stimuli/BlurMorphTrio/EditedMorph137.png,None,None,,,,,0,0,0,0,0,3,3,136,,,,,,,,,,,,,,,,,,,,,,,19,4,1,133,-1.7049959,1.828384254,137,Experiment,,,,,,,,,68,140,-3,-3,,,,,,,,,,,,,,,196.9203691,197.4429398,196.9203691,197.4429398,95.91836735,1575482372,1575482374,2.533431768,1575482369,1575482372,,,s9,1,44,m,expert radiologist,2019_Dec_04_1156,AdjustEyeTrack,3.1.5,59.70669789
12,Stimuli/Morph12.JPG,Stimuli/Morph12.png,Stimuli/BlurLevel5/BlurEditedMorph12,Stimuli/BlurLevel5/BlurEditedMorph12.png,Stimuli/BlurLevel5/NumberedMorphs/BlurEditedMorph12.png,Stimuli/BlurLevel5/OriginalBlur/BlurEditedMorph12.png,Stimuli/BlurMorphTrio/EditedMorph12.png,010026right.gif,Stimuli/normal_thumbnails/12right.gif,,,,,0,0,0,0,0,4,4,11,,,,,,,,,,,,,,,,,,,,,,,36,5,1,176,-2.493910126,0.174391184,12,Experiment,,,,,,,,,130,131,-119,28,,,,,,,,,,,,,,,202.2945163,202.8092626,202.2945163,202.8092626,61.9047619,1575482377,1575482380,2.364960909,1575482375,1575482377,,,s9,1,44,m,expert radiologist,2019_Dec_04_1156,AdjustEyeTrack,3.1.5,59.70669789
4,Stimuli/Morph4.JPG,Stimuli/Morph4.png,Stimuli/BlurLevel5/BlurEditedMorph4,Stimuli/BlurLevel5/BlurEditedMorph4.png,Stimuli/BlurLevel5/NumberedMorphs/BlurEditedMorph4.png,Stimuli/BlurLevel5/OriginalBlur/BlurEditedMorph4.png,Stimuli/BlurMorphTrio/EditedMorph4.png,010010right.gif,Stimuli/normal_thumbnails/4right.gif,,,,,0,0,0,0,0,5,5,3,,,,,,,,,,,,,,,,,,,,,,,48,6,1,119,-1.212024051,2.186549268,4,Experiment,,,,,,,,,139,4,0,0,,,,,,,,,,,,,,,207.4908836,208.023651,207.4908836,208.023651,100,1575482382,1575482385,2.432168245,1575482380,1575482382,,,s9,1,44,m,expert radiologist,2019_Dec_04_1156,AdjustEyeTrack,3.1.5,59.70669789
125,Stimuli/Morph125.JPG,Stimuli/Morph125.png,Stimuli/BlurLevel5/BlurEditedMorph125,Stimuli/BlurLevel5/BlurEditedMorph125.png,Stimuli/BlurLevel5/NumberedMorphs/BlurEditedMorph125.png,Stimuli/BlurLevel5/OriginalBlur/BlurEditedMorph125.png,Stimuli/BlurMorphTrio/EditedMorph125.png,None,None,,,,,0,0,0,0,0,6,6,124,,,,,,,,,,,,,,,,,,,,,,,30,7,1,164,-2.40315424,0.68909339,125,Experiment,,,,,,,,,5,93,32,32,,,,,,,,,,,,,,,212.491436,213.0242016,212.491436,213.0242016,56.46258503,1575482387,1575482394,7.017662048,1575482385,1575482387,,,s9,1,44,m,expert radiologist,2019_Dec_04_1156,AdjustEyeTrack,3.1.5,59.70669789
22,Stimuli/Morph22.JPG,Stimuli/Morph22.png,Stimuli/BlurLevel5/BlurEditedMorph22,Stimuli/BlurLevel5/BlurEditedMorph22.png,Stimuli/BlurLevel5/NumberedMorphs/BlurEditedMorph22.png,Stimuli/BlurLevel5/OriginalBlur/BlurEditedMorph22.png,Stimuli/BlurMorphTrio/EditedMorph22.png,010055right.gif,Stimuli/normal_thumbnails/22right.gif,,,,,0,0,0,0,0,7,7,21,,,,,,,,,,,,,,,,,,,,,,,39,8,1,88,0.087248742,2.498477068,22,Experiment,,,,,,,,,127,9,13,13,,,,,,,,,,,,,,,222.4811944,222.9941426,222.4811944,222.9941426,82.31292517,1575482397,1575482401,3.183670759,1575482395,1575482397,,,s9,1,44,m,expert radiologist,2019_Dec_04_1156,AdjustEyeTrack,3.1.5,59.70669789
66,Stimuli/Morph66.JPG,Stimuli/Morph66.png,Stimuli/BlurLevel5/BlurEditedMorph66,Stimuli/BlurLevel5/BlurEditedMorph66.png,Stimuli/BlurLevel5/NumberedMorphs/BlurEditedMorph66.png,Stimuli/BlurLevel5/OriginalBlur/BlurEditedMorph66.png,Stimuli/BlurMorphTrio/EditedMorph66.png,020212right.gif,Stimuli/normal_thumbnails/66right.gif,,,,,0,0,0,0,0,8,8,65,,,,,,,,,,,,,,,,,,,,,,,93,9,1,123,-1.361597588,2.09667642,66,Experiment,,,,,,,,,126,68,-2,-2,,,,,,,,,,,,,,,229.4452334,230.0075275,229.4452334,230.0075275,97.27891156,1575482404,1575482407,3.013829708,1575482401,1575482404,,,s9,1,44,m,expert radiologist,2019_Dec_04_1156,AdjustEyeTrack,3.1.5,59.70669789
106,Stimuli/Morph106.JPG,Stimuli/Morph106.png,Stimuli/BlurLevel5/BlurEditedMorph106,Stimuli/BlurLevel5/BlurEditedMorph106.png,Stimuli/BlurLevel5/NumberedMorphs/BlurEditedMorph106.png,Stimuli/BlurLevel5/OriginalBlur/BlurEditedMorph106.png,Stimuli/BlurMorphTrio/EditedMorph106.png,None,None,,,,,0,0,0,0,0,9,9,105,,,,,,,,,,,,,,,,,,,,,,,48,10,1,224,-1.798349501,-1.736645926,106,Experiment,,,,,,,,,131,77,29,29,,,,,,,,,,,,,,,235.4102805,235.9240416,235.4102805,235.9240416,60.54421769,1575482410,1575482415,4.631304979,1575482408,1575482410,,,s9,1,44,m,expert radiologist,2019_Dec_04_1156,AdjustEyeTrack,3.1.5,59.70669789
26,Stimuli/Morph26.JPG,Stimuli/Morph26.png,Stimuli/BlurLevel5/BlurEditedMorph26,Stimuli/BlurLevel5/BlurEditedMorph26.png,Stimuli/BlurLevel5/NumberedMorphs/BlurEditedMorph26.png,Stimuli/BlurLevel5/OriginalBlur/BlurEditedMorph26.png,Stimuli/BlurMorphTrio/EditedMorph26.png,010070right.gif,Stimuli/normal_thumbnails/26right.gif,,,,,0,0,0,0,0,10,10,25,,,,,,,,,,,,,,,,,,,,,,,62,11,1,246,-1.016841608,-2.283863644,26,Experiment,,,,,,,,,141,27,-1,-1,,,,,,,,,,,,,,,243.2938963,243.7905399,243.2938963,243.7905399,98.63945578,1575482418,1575482422,3.532402039,1575482415,1575482418,,,s9,1,44,m,expert radiologist,2019_Dec_04_1156,AdjustEyeTrack,3.1.5,59.70669789
27,Stimuli/Morph27.JPG,Stimuli/Morph27.png,Stimuli/BlurLevel5/BlurEditedMorph27,Stimuli/BlurLevel5/BlurEditedMorph27.png,Stimuli/BlurLevel5/NumberedMorphs/BlurEditedMorph27.png,Stimuli/BlurLevel5/OriginalBlur/BlurEditedMorph27.png,Stimuli/BlurMorphTrio/EditedMorph27.png,010072right.gif,Stimuli/normal_thumbnails/27right.gif,,,,,0,0,0,0,0,11,11,26,,,,,,,,,,,,,,,,,,,,,,,2,12,1,152,-2.207368982,1.173678907,27,Experiment,,,,,,,,,85,25,2,2,,,,,,,,,,,,,,,249.4236681,249.9404395,249.4236681,249.9404395,97.27891156,1575482424,1575482428,3.883731127,1575482422,1575482424,,,s9,1,44,m,expert radiologist,2019_Dec_04_1156,AdjustEyeTrack,3.1.5,59.70669789
100,Stimuli/Morph100.JPG,Stimuli/Morph100.png,Stimuli/BlurLevel5/BlurEditedMorph100,Stimuli/BlurLevel5/BlurEditedMorph100.png,Stimuli/BlurLevel5/NumberedMorphs/BlurEditedMorph100.png,Stimuli/BlurLevel5/OriginalBlur/BlurEditedMorph100.png,Stimuli/BlurMorphTrio/EditedMorph100.png,020297right.gif,Stimuli/normal_thumbnails/100right.gif,,,,,0,0,0,0,0,12,12,99,,,,,,,,,,,,,,,,,,,,,,,65,13,1,341,2.363796439,-0.813920386,100,Experiment,,,,,,,,,33,80,20,20,,,,,,,,,,,,,,,256.2668453,256.9920425,256.2668453,256.9920425,72.78911565,1575482431,1575482435,3.516476154,1575482429,1575482431,,,s9,1,44,m,expert radiologist,2019_Dec_04_1156,AdjustEyeTrack,3.1.5,59.70669789
54,Stimuli/Morph54.JPG,Stimuli/Morph54.png,Stimuli/BlurLevel5/BlurEditedMorph54,Stimuli/BlurLevel5/BlurEditedMorph54.png,Stimuli/BlurLevel5/NumberedMorphs/BlurEditedMorph54.png,Stimuli/BlurLevel5/OriginalBlur/BlurEditedMorph54.png,Stimuli/BlurMorphTrio/EditedMorph54.png,010150right.gif,Stimuli/normal_thumbnails/54right.gif,,,,,0,0,0,0,0,13,13,53,,,,,,,,,,,,,,,,,,,,,,,42,14,1,133,-1.7049959,1.828384254,54,Experiment,,,,,,,,,8,42,12,12,,,,,,,,,,,,,,,262.6891119,263.1912026,262.6891119,263.1912026,83.67346939,1575482438,1575482442,4.268672943,1575482435,1575482438,,,s9,1,44,m,expert radiologist,2019_Dec_04_1156,AdjustEyeTrack,3.1.5,59.70669789
112,Stimuli/Morph112.JPG,Stimuli/Morph112.png,Stimuli/BlurLevel5/BlurEditedMorph112,Stimuli/BlurLevel5/BlurEditedMorph112.png,Stimuli/BlurLevel5/NumberedMorphs/BlurEditedMorph112.png,Stimuli/BlurLevel5/OriginalBlur/BlurEditedMorph112.png,Stimuli/BlurMorphTrio/EditedMorph112.png,None,None,,,,,0,0,0,0,0,14,14,111,,,,,,,,,,,,,,,,,,,,,,,58,15,1,237,-1.361597588,-2.09667642,112,Experiment,,,,,,,,,14,113,-1,-1,,,,,,,,,,,,,,,269.5179354,270.0235455,269.5179354,270.0235455,98.63945578,1575482444,1575482449,4.299352884,1575482442,1575482444,,,s9,1,44,m,expert radiologist,2019_Dec_04_1156,AdjustEyeTrack,3.1.5,59.70669789
77,Stimuli/Morph77.JPG,Stimuli/Morph77.png,Stimuli/BlurLevel5/BlurEditedMorph77,Stimuli/BlurLevel5/BlurEditedMorph77.png,Stimuli/BlurLevel5/NumberedMorphs/BlurEditedMorph77.png,Stimuli/BlurLevel5/OriginalBlur/BlurEditedMorph77.png,Stimuli/BlurMorphTrio/EditedMorph77.png,020235right.gif,Stimuli/normal_thumbnails/77right.gif,,,,,0,0,0,0,0,15,15,76,,,,,,,,,,,,,,,,,,,,,,,89,16,1,235,-1.433941091,-2.047880111,77,Experiment,,,,,,,,,121,89,-12,-12,,,,,,,,,,,,,,,276.7753651,277.3230756,276.7753651,277.3230756,83.67346939,1575482452,1575482455,3.5175879,1575482449,1575482452,,,s9,1,44,m,expert radiologist,2019_Dec_04_1156,AdjustEyeTrack,3.1.5,59.70669789
92,Stimuli/Morph92.JPG,Stimuli/Morph92.png,Stimuli/BlurLevel5/BlurEditedMorph92,Stimuli/BlurLevel5/BlurEditedMorph92.png,Stimuli/BlurLevel5/NumberedMorphs/BlurEditedMorph92.png,Stimuli/BlurLevel5/OriginalBlur/BlurEditedMorph92.png,Stimuli/BlurMorphTrio/EditedMorph92.png,020277right.gif,Stimuli/normal_thumbnails/92right.gif,,,,,0,0,0,0,0,16,16,91,,,,,,,,,,,,,,,,,,,,,,,66,17,1,32,2.12012024,1.324798161,92,Experiment,,,,,,,,,101,90,2,2,,,,,,,,,,,,,,,282.7531338,283.2726573,282.7531338,283.2726573,97.27891156,1575482458,1575482460,2.732696772,1575482456,1575482458,,,s9,1,44,m,expert radiologist,2019_Dec_04_1156,AdjustEyeTrack,3.1.5,59.70669789
15,Stimuli/Morph15.JPG,Stimuli/Morph15.png,Stimuli/BlurLevel5/BlurEditedMorph15,Stimuli/BlurLevel5/BlurEditedMorph15.png,Stimuli/BlurLevel5/NumberedMorphs/BlurEditedMorph15.png,Stimuli/BlurLevel5/OriginalBlur/BlurEditedMorph15.png,Stimuli/BlurMorphTrio/EditedMorph15.png,010031right.gif,Stimuli/normal_thumbnails/15right.gif,,,,,0,0,0,0,0,17,17,14,,,,,,,,,,,,,,,,,,,,,,,86,18,1,349,2.454067959,-0.477022488,15,Experiment,,,,,,,,,110,19,-4,-4,,,,,,,,,,,,,,,288.5145213,289.0583038,288.5145213,289.0583038,94.55782313,1575482463,1575482466,2.866712093,1575482461,1575482463,,,s9,1,44,m,expert radiologist,2019_Dec_04_1156,AdjustEyeTrack,3.1.5,59.70669789
19,Stimuli/Morph19.JPG,Stimuli/Morph19.png,Stimuli/BlurLevel5/BlurEditedMorph19,Stimuli/BlurLevel5/BlurEditedMorph19.png,Stimuli/BlurLevel5/NumberedMorphs/BlurEditedMorph19.png,Stimuli/BlurLevel5/OriginalBlur/BlurEditedMorph19.png,Stimuli/BlurMorphTrio/EditedMorph19.png,010045right.gif,Stimuli/normal_thumbnails/19right.gif,,,,,0,0,0,0,0,18,18,18,,,,,,,,,,,,,,,,,,,,,,,63,19,1,145,-2.047880111,1.433941091,19,Experiment,,,,,,,,,122,18,1,1,,,,,,,,,,,,,,,293.981221,294.4899094,293.981221,294.4899094,98.63945578,1575482469,1575482471,2.432701826,1575482467,1575482469,,,s9,1,44,m,expert radiologist,2019_Dec_04_1156,AdjustEyeTrack,3.1.5,59.70669789
58,Stimuli/Morph58.JPG,Stimuli/Morph58.png,Stimuli/BlurLevel5/BlurEditedMorph58,Stimuli/BlurLevel5/BlurEditedMorph58.png,Stimuli/BlurLevel5/NumberedMorphs/BlurEditedMorph58.png,Stimuli/BlurLevel5/OriginalBlur/BlurEditedMorph58.png,Stimuli/BlurMorphTrio/EditedMorph58.png,010159right.gif,Stimuli/normal_thumbnails/58right.gif,,,,,0,0,0,0,0,19,19,57,,,,,,,,,,,,,,,,,,,,,,,91,20,1,156,-2.283863644,1.016841608,58,Experiment,,,,,,,,,136,32,26,26,,,,,,,,,,,,,,,299.4236622,299.9236733,299.4236622,299.9236733,64.62585034,1575482474,1575482478,3.548726082,1575482472,1575482474,,,s9,1,44,m,expert radiologist,2019_Dec_04_1156,AdjustEyeTrack,3.1.5,59.70669789
101,Stimuli/Morph101.JPG,Stimuli/Morph101.png,Stimuli/BlurLevel5/BlurEditedMorph101,Stimuli/BlurLevel5/BlurEditedMorph101.png,Stimuli/BlurLevel5/NumberedMorphs/BlurEditedMorph101.png,Stimuli/BlurLevel5/OriginalBlur/BlurEditedMorph101.png,Stimuli/BlurMorphTrio/EditedMorph101.png,None,None,,,,,0,0,0,0,0,20,20,100,,,,,,,,,,,,,,,,,,,,,,,61,21,1,164,-2.40315424,0.68909339,101,Experiment,,,,,,,,,1,100,1,1,,,,,,,,,,,,,,,306.1178898,306.6243395,306.1178898,306.6243395,98.63945578,1575482481,1575482487,5.999938726,1575482478,1575482481,,,s9,1,44,m,expert radiologist,2019_Dec_04_1156,AdjustEyeTrack,3.1.5,59.70669789
32,Stimuli/Morph32.JPG,Stimuli/Morph32.png,Stimuli/BlurLevel5/BlurEditedMorph32,Stimuli/BlurLevel5/BlurEditedMorph32.png,Stimuli/BlurLevel5/NumberedMorphs/BlurEditedMorph32.png,Stimuli/BlurLevel5/OriginalBlur/BlurEditedMorph32.png,Stimuli/BlurMorphTrio/EditedMorph32.png,010080right.gif,Stimuli/normal_thumbnails/32right.gif,,,,,0,0,0,0,0,21,21,31,,,,,,,,,,,,,,,,,,,,,,,13,22,1,210,-2.165063509,-1.25,32,Experiment,,,,,,,,,50,32,0,0,,,,,,,,,,,,,,,315.1994811,315.7233547,315.1994811,315.7233547,100,1575482490,1575482496,6.300595999,1575482487,1575482490,,,s9,1,44,m,expert radiologist,2019_Dec_04_1156,AdjustEyeTrack,3.1.5,59.70669789
33,Stimuli/Morph33.JPG,Stimuli/Morph33.png,Stimuli/BlurLevel5/BlurEditedMorph33,Stimuli/BlurLevel5/BlurEditedMorph33.png,Stimuli/BlurLevel5/NumberedMorphs/BlurEditedMorph33.png,Stimuli/BlurLevel5/OriginalBlur/BlurEditedMorph33.png,Stimuli/BlurMorphTrio/EditedMorph33.png,010089right.gif,Stimuli/normal_thumbnails/33right.gif,,,,,0,0,0,0,0,22,22,32,,,,,,,,,,,,,,,,,,,,,,,17,23,1,359,2.499619238,-0.043631016,33,Experiment,,,,,,,,,126,38,-5,-5,,,,,,,,,,,,,,,324.1248209,324.6583414,324.1248209,324.6583414,93.19727891,1575482499,1575482503,3.5827353,1575482497,1575482499,,,s9,1,44,m,expert radiologist,2019_Dec_04_1156,AdjustEyeTrack,3.1.5,59.70669789
43,Stimuli/Morph43.JPG,Stimuli/Morph43.png,Stimuli/BlurLevel5/BlurEditedMorph43,Stimuli/BlurLevel5/BlurEditedMorph43.png,Stimuli/BlurLevel5/NumberedMorphs/BlurEditedMorph43.png,Stimuli/BlurLevel5/OriginalBlur/BlurEditedMorph43.png,Stimuli/BlurMorphTrio/EditedMorph43.png,010124right.gif,Stimuli/normal_thumbnails/43right.gif,,,,,0,0,0,0,0,23,23,42,,,,,,,,,,,,,,,,,,,,,,,26,24,1,326,2.072593931,-1.397982259,43,Experiment,,,,,,,,,43,43,0,0,,,,,,,,,,,,,,,330.3728303,330.9229859,330.3728303,330.9229859,100,1575482505,1575482506,1.06517911,1575482503,1575482505,,,s9,1,44,m,expert radiologist,2019_Dec_04_1156,AdjustEyeTrack,3.1.5,59.70669789
57,Stimuli/Morph57.JPG,Stimuli/Morph57.png,Stimuli/BlurLevel5/BlurEditedMorph57,Stimuli/BlurLevel5/BlurEditedMorph57.png,Stimuli/BlurLevel5/NumberedMorphs/BlurEditedMorph57.png,Stimuli/BlurLevel5/OriginalBlur/BlurEditedMorph57.png,Stimuli/BlurMorphTrio/EditedMorph57.png,010158right.gif,Stimuli/normal_thumbnails/57right.gif,,,,,0,0,0,0,0,24,24,56,,,,,,,,,,,,,,,,,,,,,,,56,25,1,23,2.301262134,0.976827821,57,Experiment,,,,,,,,,43,48,9,9,,,,,,,,,,,,,,,334.5867454,335.1060876,334.5867454,335.1060876,87.75510204,1575482510,1575482512,2.501032114,1575482507,1575482510,,,s9,1,44,m,expert radiologist,2019_Dec_04_1156,AdjustEyeTrack,3.1.5,59.70669789
16,Stimuli/Morph16.JPG,Stimuli/Morph16.png,Stimuli/BlurLevel5/BlurEditedMorph16,Stimuli/BlurLevel5/BlurEditedMorph16.png,Stimuli/BlurLevel5/NumberedMorphs/BlurEditedMorph16.png,Stimuli/BlurLevel5/OriginalBlur/BlurEditedMorph16.png,Stimuli/BlurMorphTrio/EditedMorph16.png,010034right.gif,Stimuli/normal_thumbnails/16right.gif,,,,,0,0,0,0,0,25,25,15,,,,,,,,,,,,,,,,,,,,,,,7,26,1,295,1.056545654,-2.265769468,16,Experiment,,,,,,,,,55,28,-12,-12,,,,,,,,,,,,,,,339.8287838,340.3896209,339.8287838,340.3896209,83.67346939,1575482515,1575482518,3.422175884,1575482512,1575482515,,,s9,1,44,m,expert radiologist,2019_Dec_04_1156,AdjustEyeTrack,3.1.5,59.70669789
51,Stimuli/Morph51.JPG,Stimuli/Morph51.png,Stimuli/BlurLevel5/BlurEditedMorph51,Stimuli/BlurLevel5/BlurEditedMorph51.png,Stimuli/BlurLevel5/NumberedMorphs/BlurEditedMorph51.png,Stimuli/BlurLevel5/OriginalBlur/BlurEditedMorph51.png,Stimuli/BlurMorphTrio/EditedMorph51.png,010146right.gif,Stimuli/normal_thumbnails/51right.gif,,,,,0,0,0,0,0,26,26,50,,,,,,,,,,,,,,,,,,,,,,,80,27,1,244,-1.095927867,-2.246985116,51,Experiment,,,,,,,,,29,44,7,7,,,,,,,,,,,,,,,345.9074226,346.4224006,345.9074226,346.4224006,90.47619048,1575482521,1575482525,4.133855104,1575482519,1575482521,,,s9,1,44,m,expert radiologist,2019_Dec_04_1156,AdjustEyeTrack,3.1.5,59.70669789
91,Stimuli/Morph91.JPG,Stimuli/Morph91.png,Stimuli/BlurLevel5/BlurEditedMorph91,Stimuli/BlurLevel5/BlurEditedMorph91.png,Stimuli/BlurLevel5/NumberedMorphs/BlurEditedMorph91.png,Stimuli/BlurLevel5/OriginalBlur/BlurEditedMorph91.png,Stimuli/BlurMorphTrio/EditedMorph91.png,020276right.gif,Stimuli/normal_thumbnails/91right.gif,,,,,0,0,0,0,0,27,27,90,,,,,,,,,,,,,,,,,,,,,,,94,28,1,147,-2.09667642,1.361597588,91,Experiment,,,,,,,,,144,82,9,9,,,,,,,,,,,,,,,353.2763323,353.7759672,353.2763323,353.7759672,87.75510204,1575482528,1575482531,2.649466276,1575482525,1575482528,,,s9,1,44,m,expert radiologist,2019_Dec_04_1156,AdjustEyeTrack,3.1.5,59.70669789
97,Stimuli/Morph97.JPG,Stimuli/Morph97.png,Stimuli/BlurLevel5/BlurEditedMorph97,Stimuli/BlurLevel5/BlurEditedMorph97.png,Stimuli/BlurLevel5/NumberedMorphs/BlurEditedMorph97.png,Stimuli/BlurLevel5/OriginalBlur/BlurEditedMorph97.png,Stimuli/BlurMorphTrio/EditedMorph97.png,020294right.gif,Stimuli/normal_thumbnails/97right.gif,,,,,0,0,0,0,0,28,28,96,,,,,,,,,,,,,,,,,,,,,,,53,29,1,351,2.469220851,-0.391086163,97,Experiment,,,,,,,,,23,100,-3,-3,,,,,,,,,,,,,,,359.1650775,359.6897524,359.1650775,359.6897524,95.91836735,1575482534,1575482538,4.033462048,1575482531,1575482534,,,s9,1,44,m,expert radiologist,2019_Dec_04_1156,AdjustEyeTrack,3.1.5,59.70669789
47,Stimuli/Morph47.JPG,Stimuli/Morph47.png,Stimuli/BlurLevel5/BlurEditedMorph47,Stimuli/BlurLevel5/BlurEditedMorph47.png,Stimuli/BlurLevel5/NumberedMorphs/BlurEditedMorph47.png,Stimuli/BlurLevel5/OriginalBlur/BlurEditedMorph47.png,Stimuli/BlurMorphTrio/EditedMorph47.png,010130right.gif,Stimuli/normal_thumbnails/47right.gif,,,,,0,0,0,0,0,29,29,46,,,,,,,,,,,,,,,,,,,,,,,15,30,1,97,-0.304673359,2.481365379,47,Experiment,,,,,,,,,110,51,-4,-4,,,,,,,,,,,,,,,365.9097016,366.4065434,365.9097016,366.4065434,94.55782313,1575482541,1575482544,2.983907223,1575482538,1575482541,,,s9,1,44,m,expert radiologist,2019_Dec_04_1156,AdjustEyeTrack,3.1.5,59.70669789
88,Stimuli/Morph88.JPG,Stimuli/Morph88.png,Stimuli/BlurLevel5/BlurEditedMorph88,Stimuli/BlurLevel5/BlurEditedMorph88.png,Stimuli/BlurLevel5/NumberedMorphs/BlurEditedMorph88.png,Stimuli/BlurLevel5/OriginalBlur/BlurEditedMorph88.png,Stimuli/BlurMorphTrio/EditedMorph88.png,020271right.gif,Stimuli/normal_thumbnails/88right.gif,,,,,0,0,0,0,0,30,30,87,,,,,,,,,,,,,,,,,,,,,,,67,31,1,16,2.40315424,0.68909339,88,Experiment,,,,,,,,,93,93,-5,-5,,,,,,,,,,,,,,,371.7154606,372.2402178,371.7154606,372.2402178,93.19727891,1575482547,1575482548,1.216320992,1575482544,1575482547,,,s9,1,44,m,expert radiologist,2019_Dec_04_1156,AdjustEyeTrack,3.1.5,59.70669789
127,Stimuli/Morph127.JPG,Stimuli/Morph127.png,Stimuli/BlurLevel5/BlurEditedMorph127,Stimuli/BlurLevel5/BlurEditedMorph127.png,Stimuli/BlurLevel5/NumberedMorphs/BlurEditedMorph127.png,Stimuli/BlurLevel5/OriginalBlur/BlurEditedMorph127.png,Stimuli/BlurMorphTrio/EditedMorph127.png,None,None,,,,,0,0,0,0,0,31,31,126,,,,,,,,,,,,,,,,,,,,,,,43,32,1,104,-0.604804739,2.425739316,127,Experiment,,,,,,,,,32,113,14,14,,,,,,,,,,,,,,,375.7876985,376.2884372,375.7876985,376.2884372,80.95238095,1575482551,1575482555,3.848978996,1575482548,1575482551,,,s9,1,44,m,expert radiologist,2019_Dec_04_1156,AdjustEyeTrack,3.1.5,59.70669789
10,Stimuli/Morph10.JPG,Stimuli/Morph10.png,Stimuli/BlurLevel5/BlurEditedMorph10,Stimuli/BlurLevel5/BlurEditedMorph10.png,Stimuli/BlurLevel5/NumberedMorphs/BlurEditedMorph10.png,Stimuli/BlurLevel5/OriginalBlur/BlurEditedMorph10.png,Stimuli/BlurMorphTrio/EditedMorph10.png,010016right.gif,Stimuli/normal_thumbnails/10right.gif,,,,,0,0,0,0,0,32,32,9,,,,,,,,,,,,,,,,,,,,,,,38,33,1,107,-0.730929262,2.39076189,10,Experiment,,,,,,,,,103,13,-3,-3,,,,,,,,,,,,,,,382.4218951,382.9382888,382.4218951,382.9382888,95.91836735,1575482557,1575482560,2.831736088,1575482555,1575482557,,,s9,1,44,m,expert radiologist,2019_Dec_04_1156,AdjustEyeTrack,3.1.5,59.70669789
74,Stimuli/Morph74.JPG,Stimuli/Morph74.png,Stimuli/BlurLevel5/BlurEditedMorph74,Stimuli/BlurLevel5/BlurEditedMorph74.png,Stimuli/BlurLevel5/NumberedMorphs/BlurEditedMorph74.png,Stimuli/BlurLevel5/OriginalBlur/BlurEditedMorph74.png,Stimuli/BlurMorphTrio/EditedMorph74.png,020232right.gif,Stimuli/normal_thumbnails/74right.gif,,,,,0,0,0,0,0,33,33,73,,,,,,,,,,,,,,,,,,,,,,,65,34,1,263,-0.304673359,-2.481365379,74,Experiment,,,,,,,,,51,91,-17,-17,,,,,,,,,,,,,,,388.1894028,388.7056314,388.1894028,388.7056314,76.8707483,1575482563,1575482567,4.233479738,1575482560,1575482563,,,s9,1,44,m,expert radiologist,2019_Dec_04_1156,AdjustEyeTrack,3.1.5,59.70669789
81,Stimuli/Morph81.JPG,Stimuli/Morph81.png,Stimuli/BlurLevel5/BlurEditedMorph81,Stimuli/BlurLevel5/BlurEditedMorph81.png,Stimuli/BlurLevel5/NumberedMorphs/BlurEditedMorph81.png,Stimuli/BlurLevel5/OriginalBlur/BlurEditedMorph81.png,Stimuli/BlurMorphTrio/EditedMorph81.png,020245right.gif,Stimuli/normal_thumbnails/81right.gif,,,,,0,0,0,0,0,34,34,80,,,,,,,,,,,,,,,,,,,,,,,9,35,1,22,2.317959636,0.936516484,81,Experiment,,,,,,,,,116,93,-12,-12,,,,,,,,,,,,,,,394.8459172,395.3549342,394.8459172,395.3549342,83.67346939,1575482570,1575482572,2.382533073,1575482568,1575482570,,,s9,1,44,m,expert radiologist,2019_Dec_04_1156,AdjustEyeTrack,3.1.5,59.70669789
8,Stimuli/Morph8.JPG,Stimuli/Morph8.png,Stimuli/BlurLevel5/BlurEditedMorph8,Stimuli/BlurLevel5/BlurEditedMorph8.png,Stimuli/BlurLevel5/NumberedMorphs/BlurEditedMorph8.png,Stimuli/BlurLevel5/OriginalBlur/BlurEditedMorph8.png,Stimuli/BlurMorphTrio/EditedMorph8.png,010014right.gif,Stimuli/normal_thumbnails/8right.gif,,,,,0,0,0,0,0,35,35,7,,,,,,,,,,,,,,,,,,,,,,,16,36,1,241,-1.212024051,-2.186549268,8,Experiment,,,,,,,,,18,8,0,0,,,,,,,,,,,,,,,400.2163914,400.7386197,400.2163914,400.7386197,100,1575482575,1575482578,3.249594212,1575482572,1575482575,,,s9,1,44,m,expert radiologist,2019_Dec_04_1156,AdjustEyeTrack,3.1.5,59.70669789
110,Stimuli/Morph110.JPG,Stimuli/Morph110.png,Stimuli/BlurLevel5/BlurEditedMorph110,Stimuli/BlurLevel5/BlurEditedMorph110.png,Stimuli/BlurLevel5/NumberedMorphs/BlurEditedMorph110.png,Stimuli/BlurLevel5/OriginalBlur/BlurEditedMorph110.png,Stimuli/BlurMorphTrio/EditedMorph110.png,None,None,,,,,0,0,0,0,0,36,36,109,,,,,,,,,,,,,,,,,,,,,,,89,37,1,336,2.283863644,-1.016841608,110,Experiment,,,,,,,,,92,119,-9,-9,,,,,,,,,,,,,,,406.0488565,406.5547073,406.0488565,406.5547073,87.75510204,1575482581,1575482584,2.917052746,1575482579,1575482581,,,s9,1,44,m,expert radiologist,2019_Dec_04_1156,AdjustEyeTrack,3.1.5,59.70669789
135,Stimuli/Morph135.JPG,Stimuli/Morph135.png,Stimuli/BlurLevel5/BlurEditedMorph135,Stimuli/BlurLevel5/BlurEditedMorph135.png,Stimuli/BlurLevel5/NumberedMorphs/BlurEditedMorph135.png,Stimuli/BlurLevel5/OriginalBlur/BlurEditedMorph135.png,Stimuli/BlurMorphTrio/EditedMorph135.png,None,None,,,,,0,0,0,0,0,37,37,134,,,,,,,,,,,,,,,,,,,,,,,40,38,1,166,-2.425739316,0.604804739,135,Experiment,,,,,,,,,34,10,125,-22,,,,,,,,,,,,,,,411.7233254,412.2212374,411.7233254,412.2212374,70.06802721,1575482587,1575482589,2.499316931,1575482584,1575482587,,,s9,1,44,m,expert radiologist,2019_Dec_04_1156,AdjustEyeTrack,3.1.5,59.70669789
116,Stimuli/Morph116.JPG,Stimuli/Morph116.png,Stimuli/BlurLevel5/BlurEditedMorph116,Stimuli/BlurLevel5/BlurEditedMorph116.png,Stimuli/BlurLevel5/NumberedMorphs/BlurEditedMorph116.png,Stimuli/BlurLevel5/OriginalBlur/BlurEditedMorph116.png,Stimuli/BlurMorphTrio/EditedMorph116.png,None,None,,,,,0,0,0,0,0,38,38,115,,,,,,,,,,,,,,,,,,,,,,,35,39,1,102,-0.519779227,2.445369002,116,Experiment,,,,,,,,,53,88,28,28,,,,,,,,,,,,,,,417.025895,417.5390615,417.025895,417.5390615,61.9047619,1575482592,1575482595,2.932047844,1575482589,1575482592,,,s9,1,44,m,expert radiologist,2019_Dec_04_1156,AdjustEyeTrack,3.1.5,59.70669789
128,Stimuli/Morph128.JPG,Stimuli/Morph128.png,Stimuli/BlurLevel5/BlurEditedMorph128,Stimuli/BlurLevel5/BlurEditedMorph128.png,Stimuli/BlurLevel5/NumberedMorphs/BlurEditedMorph128.png,Stimuli/BlurLevel5/OriginalBlur/BlurEditedMorph128.png,Stimuli/BlurMorphTrio/EditedMorph128.png,None,None,,,,,0,0,0,0,0,39,39,127,,,,,,,,,,,,,,,,,,,,,,,1,40,1,148,-2.12012024,1.324798161,128,Experiment,,,,,,,,,129,115,13,13,,,,,,,,,,,,,,,421.977331,422.4721956,421.977331,422.4721956,82.31292517,1575482597,1575482600,2.782624006,1575482595,1575482597,,,s9,1,44,m,expert radiologist,2019_Dec_04_1156,AdjustEyeTrack,3.1.5,59.70669789
39,Stimuli/Morph39.JPG,Stimuli/Morph39.png,Stimuli/BlurLevel5/BlurEditedMorph39,Stimuli/BlurLevel5/BlurEditedMorph39.png,Stimuli/BlurLevel5/NumberedMorphs/BlurEditedMorph39.png,Stimuli/BlurLevel5/OriginalBlur/BlurEditedMorph39.png,Stimuli/BlurMorphTrio/EditedMorph39.png,010109right.gif,Stimuli/normal_thumbnails/39right.gif,,,,,0,0,0,0,0,40,40,38,,,,,,,,,,,,,,,,,,,,,,,14,41,1,224,-1.798349501,-1.736645926,39,Experiment,,,,,,,,,25,40,-1,-1,,,,,,,,,,,,,,,427.6821109,428.205065,427.6821109,428.205065,98.63945578,1575482603,1575482606,3.535230875,1575482600,1575482603,,,s9,1,44,m,expert radiologist,2019_Dec_04_1156,AdjustEyeTrack,3.1.5,59.70669789
45,Stimuli/Morph45.JPG,Stimuli/Morph45.png,Stimuli/BlurLevel5/BlurEditedMorph45,Stimuli/BlurLevel5/BlurEditedMorph45.png,Stimuli/BlurLevel5/NumberedMorphs/BlurEditedMorph45.png,Stimuli/BlurLevel5/OriginalBlur/BlurEditedMorph45.png,Stimuli/BlurMorphTrio/EditedMorph45.png,010127right.gif,Stimuli/normal_thumbnails/45right.gif,,,,,0,0,0,0,0,41,41,44,,,,,,,,,,,,,,,,,,,,,,,29,42,1,335,2.265769468,-1.056545654,45,Experiment,,,,,,,,,80,39,6,6,,,,,,,,,,,,,,,434.4564785,434.9905048,434.4564785,434.9905048,91.83673469,1575482609,1575482613,3.750277996,1575482606,1575482609,,,s9,1,44,m,expert radiologist,2019_Dec_04_1156,AdjustEyeTrack,3.1.5,59.70669789
18,Stimuli/Morph18.JPG,Stimuli/Morph18.png,Stimuli/BlurLevel5/BlurEditedMorph18,Stimuli/BlurLevel5/BlurEditedMorph18.png,Stimuli/BlurLevel5/NumberedMorphs/BlurEditedMorph18.png,Stimuli/BlurLevel5/OriginalBlur/BlurEditedMorph18.png,Stimuli/BlurMorphTrio/EditedMorph18.png,010039right.gif,Stimuli/normal_thumbnails/18right.gif,,,,,0,0,0,0,0,42,42,17,,,,,,,,,,,,,,,,,,,,,,,74,43,1,288,0.772542486,-2.377641291,18,Experiment,,,,,,,,,88,17,1,1,,,,,,,,,,,,,,,440.7595901,441.2705175,440.7595901,441.2705175,98.63945578,1575482616,1575482619,2.999610186,1575482613,1575482616,,,s9,1,44,m,expert radiologist,2019_Dec_04_1156,AdjustEyeTrack,3.1.5,59.70669789
42,Stimuli/Morph42.JPG,Stimuli/Morph42.png,Stimuli/BlurLevel5/BlurEditedMorph42,Stimuli/BlurLevel5/BlurEditedMorph42.png,Stimuli/BlurLevel5/NumberedMorphs/BlurEditedMorph42.png,Stimuli/BlurLevel5/OriginalBlur/BlurEditedMorph42.png,Stimuli/BlurMorphTrio/EditedMorph42.png,010121right.gif,Stimuli/normal_thumbnails/42right.gif,,,,,0,0,0,0,0,43,43,41,,,,,,,,,,,,,,,,,,,,,,,75,44,1,342,2.377641291,-0.772542486,42,Experiment,,,,,,,,,35,35,7,7,,,,,,,,,,,,,,,446.3537087,446.8707348,446.3537087,446.8707348,90.47619048,1575482621,1575482622,0.767052174,1575482619,1575482621,,,s9,1,44,m,expert radiologist,2019_Dec_04_1156,AdjustEyeTrack,3.1.5,59.70669789
5,Stimuli/Morph5.JPG,Stimuli/Morph5.png,Stimuli/BlurLevel5/BlurEditedMorph5,Stimuli/BlurLevel5/BlurEditedMorph5.png,Stimuli/BlurLevel5/NumberedMorphs/BlurEditedMorph5.png,Stimuli/BlurLevel5/OriginalBlur/BlurEditedMorph5.png,Stimuli/BlurMorphTrio/EditedMorph5.png,010011right.gif,Stimuli/normal_thumbnails/5right.gif,,,,,0,0,0,0,0,44,44,4,,,,,,,,,,,,,,,,,,,,,,,75,45,1,351,2.469220851,-0.391086163,5,Experiment,,,,,,,,,90,2,3,3,,,,,,,,,,,,,,,449.3106374,449.824238,449.3106374,449.824238,95.91836735,1575482624,1575482627,3.183925867,1575482622,1575482624,,,s9,1,44,m,expert radiologist,2019_Dec_04_1156,AdjustEyeTrack,3.1.5,59.70669789
55,Stimuli/Morph55.JPG,Stimuli/Morph55.png,Stimuli/BlurLevel5/BlurEditedMorph55,Stimuli/BlurLevel5/BlurEditedMorph55.png,Stimuli/BlurLevel5/NumberedMorphs/BlurEditedMorph55.png,Stimuli/BlurLevel5/OriginalBlur/BlurEditedMorph55.png,Stimuli/BlurMorphTrio/EditedMorph55.png,010151right.gif,Stimuli/normal_thumbnails/55right.gif,,,,,0,0,0,0,0,45,45,54,,,,,,,,,,,,,,,,,,,,,,,71,46,1,292,0.936516484,-2.317959636,55,Experiment,,,,,,,,,142,42,13,13,,,,,,,,,,,,,,,455.1338157,455.6703625,455.1338157,455.6703625,82.31292517,1575482630,1575482634,3.449860811,1575482628,1575482630,,,s9,1,44,m,expert radiologist,2019_Dec_04_1156,AdjustEyeTrack,3.1.5,59.70669789
144,Stimuli/Morph144.JPG,Stimuli/Morph144.png,Stimuli/BlurLevel5/BlurEditedMorph144,Stimuli/BlurLevel5/BlurEditedMorph144.png,Stimuli/BlurLevel5/NumberedMorphs/BlurEditedMorph144.png,Stimuli/BlurLevel5/OriginalBlur/BlurEditedMorph144.png,Stimuli/BlurMorphTrio/EditedMorph144.png,None,None,,,,,0,0,0,0,0,46,46,143,,,,,,,,,,,,,,,,,,,,,,,99,47,1,17,2.39076189,0.730929262,144,Experiment,,,,,,,,,76,144,0,0,,,,,,,,,,,,,,,461.1712391,461.6711237,461.1712391,461.6711237,100,1575482636,1575482639,2.532166004,1575482634,1575482636,,,s9,1,44,m,expert radiologist,2019_Dec_04_1156,AdjustEyeTrack,3.1.5,59.70669789
87,Stimuli/Morph87.JPG,Stimuli/Morph87.png,Stimuli/BlurLevel5/BlurEditedMorph87,Stimuli/BlurLevel5/BlurEditedMorph87.png,Stimuli/BlurLevel5/NumberedMorphs/BlurEditedMorph87.png,Stimuli/BlurLevel5/OriginalBlur/BlurEditedMorph87.png,Stimuli/BlurMorphTrio/EditedMorph87.png,020270right.gif,Stimuli/normal_thumbnails/87right.gif,,,,,0,0,0,0,0,47,47,86,,,,,,,,,,,,,,,,,,,,,,,58,48,1,315,1.767766953,-1.767766953,87,Experiment,,,,,,,,,14,112,-25,-25,,,,,,,,,,,,,,,466.4563709,466.9725935,466.4563709,466.9725935,65.98639456,1575482641,1575482645,3.200910091,1575482639,1575482641,,,s9,1,44,m,expert radiologist,2019_Dec_04_1156,AdjustEyeTrack,3.1.5,59.70669789
105,Stimuli/Morph105.JPG,Stimuli/Morph105.png,Stimuli/BlurLevel5/BlurEditedMorph105,Stimuli/BlurLevel5/BlurEditedMorph105.png,Stimuli/BlurLevel5/NumberedMorphs/BlurEditedMorph105.png,Stimuli/BlurLevel5/OriginalBlur/BlurEditedMorph105.png,Stimuli/BlurMorphTrio/EditedMorph105.png,None,None,,,,,0,0,0,0,0,48,48,104,,,,,,,,,,,,,,,,,,,,,,,23,49,1,78,0.519779227,2.445369002,105,Experiment,,,,,,,,,134,112,-7,-7,,,,,,,,,,,,,,,472.1454093,472.6563615,472.1454093,472.6563615,90.47619048,1575482647,1575482650,3.367411137,1575482645,1575482647,,,s9,1,44,m,expert radiologist,2019_Dec_04_1156,AdjustEyeTrack,3.1.5,59.70669789
107,Stimuli/Morph107.JPG,Stimuli/Morph107.png,Stimuli/BlurLevel5/BlurEditedMorph107,Stimuli/BlurLevel5/BlurEditedMorph107.png,Stimuli/BlurLevel5/NumberedMorphs/BlurEditedMorph107.png,Stimuli/BlurLevel5/OriginalBlur/BlurEditedMorph107.png,Stimuli/BlurMorphTrio/EditedMorph107.png,None,None,,,,,0,0,0,0,0,49,49,106,,,,,,,,,,,,,,,,,,,,,,,94,50,1,28,2.207368982,1.173678907,107,Experiment,,,,,,,,,98,98,9,9,,,,,,,,,,,,,,,478.790714,479.3044168,478.790714,479.3044168,87.75510204,1575482654,1575482655,0.833220959,1575482651,1575482654,,,s9,1,44,m,expert radiologist,2019_Dec_04_1156,AdjustEyeTrack,3.1.5,59.70669789
44,Stimuli/Morph44.JPG,Stimuli/Morph44.png,Stimuli/BlurLevel5/BlurEditedMorph44,Stimuli/BlurLevel5/BlurEditedMorph44.png,Stimuli/BlurLevel5/NumberedMorphs/BlurEditedMorph44.png,Stimuli/BlurLevel5/OriginalBlur/BlurEditedMorph44.png,Stimuli/BlurMorphTrio/EditedMorph44.png,010126right.gif,Stimuli/normal_thumbnails/44right.gif,,,,,0,0,0,0,0,50,50,43,,,,,,,,,,,,,,,,,,,,,,,47,51,1,211,-2.142918252,-1.287595187,44,Experiment,,,,,,,,,135,47,-3,-3,,,,,,,,,,,,,,,482.7222295,483.2226361,482.7222295,483.2226361,95.91836735,1575482658,1575482661,3.633292913,1575482655,1575482658,,,s9,1,44,m,expert radiologist,2019_Dec_04_1156,AdjustEyeTrack,3.1.5,59.70669789
49,Stimuli/Morph49.JPG,Stimuli/Morph49.png,Stimuli/BlurLevel5/BlurEditedMorph49,Stimuli/BlurLevel5/BlurEditedMorph49.png,Stimuli/BlurLevel5/NumberedMorphs/BlurEditedMorph49.png,Stimuli/BlurLevel5/OriginalBlur/BlurEditedMorph49.png,Stimuli/BlurMorphTrio/EditedMorph49.png,010135right.gif,Stimuli/normal_thumbnails/49right.gif,,,,,0,0,0,0,0,51,51,48,,,,,,,,,,,,,,,,,,,,,,,11,52,1,95,-0.217889357,2.490486745,49,Experiment,,,,,,,,,74,48,1,1,,,,,,,,,,,,,,,489.9057058,490.4563123,489.9057058,490.4563123,98.63945578,1575482665,1575482669,3.883327961,1575482662,1575482665,,,s9,1,44,m,expert radiologist,2019_Dec_04_1156,AdjustEyeTrack,3.1.5,59.70669789
60,Stimuli/Morph60.JPG,Stimuli/Morph60.png,Stimuli/BlurLevel5/BlurEditedMorph60,Stimuli/BlurLevel5/BlurEditedMorph60.png,Stimuli/BlurLevel5/NumberedMorphs/BlurEditedMorph60.png,Stimuli/BlurLevel5/OriginalBlur/BlurEditedMorph60.png,Stimuli/BlurMorphTrio/EditedMorph60.png,020200right.gif,Stimuli/normal_thumbnails/60right.gif,,,,,0,0,0,0,0,52,52,59,,,,,,,,,,,,,,,,,,,,,,,60,53,1,220,-1.915111108,-1.606969024,60,Experiment,,,,,,,,,104,52,8,8,,,,,,,,,,,,,,,497.4065641,498.103461,497.4065641,498.103461,89.11564626,1575482673,1575482676,3.935061932,1575482669,1575482672,,,s9,1,44,m,expert radiologist,2019_Dec_04_1156,AdjustEyeTrack,3.1.5,59.70669789
96,Stimuli/Morph96.JPG,Stimuli/Morph96.png,Stimuli/BlurLevel5/BlurEditedMorph96,Stimuli/BlurLevel5/BlurEditedMorph96.png,Stimuli/BlurLevel5/NumberedMorphs/BlurEditedMorph96.png,Stimuli/BlurLevel5/OriginalBlur/BlurEditedMorph96.png,Stimuli/BlurMorphTrio/EditedMorph96.png,020292right.gif,Stimuli/normal_thumbnails/96right.gif,,,,,0,0,0,0,0,53,53,95,,,,,,,,,,,,,,,,,,,,,,,74,54,1,24,2.283863644,1.016841608,96,Experiment,,,,,,,,,29,106,-10,-10,,,,,,,,,,,,,,,504.1078958,504.636323,504.1078958,504.636323,86.39455782,1575482679,1575482682,2.599467039,1575482677,1575482679,,,s9,1,44,m,expert radiologist,2019_Dec_04_1156,AdjustEyeTrack,3.1.5,59.70669789
29,Stimuli/Morph29.JPG,Stimuli/Morph29.png,Stimuli/BlurLevel5/BlurEditedMorph29,Stimuli/BlurLevel5/BlurEditedMorph29.png,Stimuli/BlurLevel5/NumberedMorphs/BlurEditedMorph29.png,Stimuli/BlurLevel5/OriginalBlur/BlurEditedMorph29.png,Stimuli/BlurMorphTrio/EditedMorph29.png,010074right.gif,Stimuli/normal_thumbnails/29right.gif,,,,,0,0,0,0,0,54,54,28,,,,,,,,,,,,,,,,,,,,,,,88,55,1,356,2.493910126,-0.174391184,29,Experiment,,,,,,,,,29,30,-1,-1,,,,,,,,,,,,,,,509.754799,510.2545057,509.754799,510.2545057,98.63945578,1575482685,1575482687,1.967186928,1575482682,1575482685,,,s9,1,44,m,expert radiologist,2019_Dec_04_1156,AdjustEyeTrack,3.1.5,59.70669789
102,Stimuli/Morph102.JPG,Stimuli/Morph102.png,Stimuli/BlurLevel5/BlurEditedMorph102,Stimuli/BlurLevel5/BlurEditedMorph102.png,Stimuli/BlurLevel5/NumberedMorphs/BlurEditedMorph102.png,Stimuli/BlurLevel5/OriginalBlur/BlurEditedMorph102.png,Stimuli/BlurMorphTrio/EditedMorph102.png,None,None,,,,,0,0,0,0,0,55,55,101,,,,,,,,,,,,,,,,,,,,,,,5,56,1,289,0.813920386,-2.363796439,102,Experiment,,,,,,,,,145,118,-16,-16,,,,,,,,,,,,,,,514.4949647,514.9881323,514.4949647,514.9881323,78.23129252,1575482689,1575482693,3.970971107,1575482687,1575482689,,,s9,1,44,m,expert radiologist,2019_Dec_04_1156,AdjustEyeTrack,3.1.5,59.70669789
140,Stimuli/Morph140.JPG,Stimuli/Morph140.png,Stimuli/BlurLevel5/BlurEditedMorph140,Stimuli/BlurLevel5/BlurEditedMorph140.png,Stimuli/BlurLevel5/NumberedMorphs/BlurEditedMorph140.png,Stimuli/BlurLevel5/OriginalBlur/BlurEditedMorph140.png,Stimuli/BlurMorphTrio/EditedMorph140.png,None,None,,,,,0,0,0,0,0,56,56,139,,,,,,,,,,,,,,,,,,,,,,,56,57,1,112,-0.936516484,2.317959636,140,Experiment,,,,,,,,,30,2,138,-9,,,,,,,,,,,,,,,521.4886719,522.0377035,521.4886719,522.0377035,87.75510204,1575482696,1575482700,3.420589209,1575482694,1575482696,,,s9,1,44,m,expert radiologist,2019_Dec_04_1156,AdjustEyeTrack,3.1.5,59.70669789
28,Stimuli/Morph28.JPG,Stimuli/Morph28.png,Stimuli/BlurLevel5/BlurEditedMorph28,Stimuli/BlurLevel5/BlurEditedMorph28.png,Stimuli/BlurLevel5/NumberedMorphs/BlurEditedMorph28.png,Stimuli/BlurLevel5/OriginalBlur/BlurEditedMorph28.png,Stimuli/BlurMorphTrio/EditedMorph28.png,010073right.gif,Stimuli/normal_thumbnails/28right.gif,,,,,0,0,0,0,0,57,57,27,,,,,,,,,,,,,,,,,,,,,,,37,58,1,197,-2.39076189,-0.730929262,28,Experiment,,,,,,,,,141,20,8,8,,,,,,,,,,,,,,,527.990898,528.487239,527.990898,528.487239,89.11564626,1575482703,1575482706,3.334378958,1575482700,1575482703,,,s9,1,44,m,expert radiologist,2019_Dec_04_1156,AdjustEyeTrack,3.1.5,59.70669789
75,Stimuli/Morph75.JPG,Stimuli/Morph75.png,Stimuli/BlurLevel5/BlurEditedMorph75,Stimuli/BlurLevel5/BlurEditedMorph75.png,Stimuli/BlurLevel5/NumberedMorphs/BlurEditedMorph75.png,Stimuli/BlurLevel5/OriginalBlur/BlurEditedMorph75.png,Stimuli/BlurMorphTrio/EditedMorph75.png,020233right.gif,Stimuli/normal_thumbnails/75right.gif,,,,,0,0,0,0,0,58,58,74,,,,,,,,,,,,,,,,,,,,,,,25,59,1,17,2.39076189,0.730929262,75,Experiment,,,,,,,,,83,83,-8,-8,,,,,,,,,,,,,,,533.9110906,534.4205208,533.9110906,534.4205208,89.11564626,1575482709,1575482710,1.050979137,1575482706,1575482709,,,s9,1,44,m,expert radiologist,2019_Dec_04_1156,AdjustEyeTrack,3.1.5,59.70669789
64,Stimuli/Morph64.JPG,Stimuli/Morph64.png,Stimuli/BlurLevel5/BlurEditedMorph64,Stimuli/BlurLevel5/BlurEditedMorph64.png,Stimuli/BlurLevel5/NumberedMorphs/BlurEditedMorph64.png,Stimuli/BlurLevel5/OriginalBlur/BlurEditedMorph64.png,Stimuli/BlurMorphTrio/EditedMorph64.png,020208right.gif,Stimuli/normal_thumbnails/64right.gif,,,,,0,0,0,0,0,59,59,63,,,,,,,,,,,,,,,,,,,,,,,80,60,1,242,-1.173678907,-2.207368982,64,Experiment,,,,,,,,,128,61,3,3,,,,,,,,,,,,,,,537.7276467,538.2524705,537.7276467,538.2524705,95.91836735,1575482713,1575482717,3.936585903,1575482710,1575482713,,,s9,1,44,m,expert radiologist,2019_Dec_04_1156,AdjustEyeTrack,3.1.5,59.70669789
40,Stimuli/Morph40.JPG,Stimuli/Morph40.png,Stimuli/BlurLevel5/BlurEditedMorph40,Stimuli/BlurLevel5/BlurEditedMorph40.png,Stimuli/BlurLevel5/NumberedMorphs/BlurEditedMorph40.png,Stimuli/BlurLevel5/OriginalBlur/BlurEditedMorph40.png,Stimuli/BlurMorphTrio/EditedMorph40.png,010110right.gif,Stimuli/normal_thumbnails/40right.gif,,,,,0,0,0,0,0,60,60,39,,,,,,,,,,,,,,,,,,,,,,,33,61,1,124,-1.397982259,2.072593931,40,Experiment,,,,,,,,,46,40,0,0,,,,,,,,,,,,,,,544.1594981,544.6696327,544.1594981,544.6696327,100,1575482719,1575482725,6.013897181,1575482717,1575482719,,,s9,1,44,m,expert radiologist,2019_Dec_04_1156,AdjustEyeTrack,3.1.5,59.70669789
65,Stimuli/Morph65.JPG,Stimuli/Morph65.png,Stimuli/BlurLevel5/BlurEditedMorph65,Stimuli/BlurLevel5/BlurEditedMorph65.png,Stimuli/BlurLevel5/NumberedMorphs/BlurEditedMorph65.png,Stimuli/BlurLevel5/OriginalBlur/BlurEditedMorph65.png,Stimuli/BlurMorphTrio/EditedMorph65.png,020209right.gif,Stimuli/normal_thumbnails/65right.gif,,,,,0,0,0,0,0,61,61,64,,,,,,,,,,,,,,,,,,,,,,,41,62,1,38,1.970026884,1.539153688,65,Experiment,,,,,,,,,102,69,-4,-4,,,,,,,,,,,,,,,553.0900179,553.6027558,553.0900179,553.6027558,94.55782313,1575482728,1575482733,4.982055902,1575482725,1575482728,,,s9,1,44,m,expert radiologist,2019_Dec_04_1156,AdjustEyeTrack,3.1.5,59.70669789
46,Stimuli/Morph46.JPG,Stimuli/Morph46.png,Stimuli/BlurLevel5/BlurEditedMorph46,Stimuli/BlurLevel5/BlurEditedMorph46.png,Stimuli/BlurLevel5/NumberedMorphs/BlurEditedMorph46.png,Stimuli/BlurLevel5/OriginalBlur/BlurEditedMorph46.png,Stimuli/BlurMorphTrio/EditedMorph46.png,010128right.gif,Stimuli/normal_thumbnails/46right.gif,,,,,0,0,0,0,0,62,62,45,,,,,,,,,,,,,,,,,,,,,,,46,63,1,109,-0.813920386,2.363796439,46,Experiment,,,,,,,,,19,44,2,2,,,,,,,,,,,,,,,560.4242349,560.9200857,560.4242349,560.9200857,97.27891156,1575482735,1575482740,4.58358407,1575482733,1575482735,,,s9,1,44,m,expert radiologist,2019_Dec_04_1156,AdjustEyeTrack,3.1.5,59.70669789
95,Stimuli/Morph95.JPG,Stimuli/Morph95.png,Stimuli/BlurLevel5/BlurEditedMorph95,Stimuli/BlurLevel5/BlurEditedMorph95.png,Stimuli/BlurLevel5/NumberedMorphs/BlurEditedMorph95.png,Stimuli/BlurLevel5/OriginalBlur/BlurEditedMorph95.png,Stimuli/BlurMorphTrio/EditedMorph95.png,020287right.gif,Stimuli/normal_thumbnails/95right.gif,,,,,0,0,0,0,0,63,63,94,,,,,,,,,,,,,,,,,,,,,,,46,64,1,129,-1.573300978,1.942864904,95,Experiment,,,,,,,,,143,101,-6,-6,,,,,,,,,,,,,,,567.203634,567.7382107,567.203634,567.7382107,91.83673469,1575482742,1575482745,2.717773914,1575482740,1575482742,,,s9,1,44,m,expert radiologist,2019_Dec_04_1156,AdjustEyeTrack,3.1.5,59.70669789
139,Stimuli/Morph139.JPG,Stimuli/Morph139.png,Stimuli/BlurLevel5/BlurEditedMorph139,Stimuli/BlurLevel5/BlurEditedMorph139.png,Stimuli/BlurLevel5/NumberedMorphs/BlurEditedMorph139.png,Stimuli/BlurLevel5/OriginalBlur/BlurEditedMorph139.png,Stimuli/BlurMorphTrio/EditedMorph139.png,None,None,,,,,0,0,0,0,0,64,64,138,,,,,,,,,,,,,,,,,,,,,,,51,65,1,77,0.562377636,2.435925162,139,Experiment,,,,,,,,,34,6,133,-14,,,,,,,,,,,,,,,572.7371239,573.2372332,572.7371239,573.2372332,80.95238095,1575482748,1575482751,3.749124765,1575482745,1575482748,,,s9,1,44,m,expert radiologist,2019_Dec_04_1156,AdjustEyeTrack,3.1.5,59.70669789
11,Stimuli/Morph11.JPG,Stimuli/Morph11.png,Stimuli/BlurLevel5/BlurEditedMorph11,Stimuli/BlurLevel5/BlurEditedMorph11.png,Stimuli/BlurLevel5/NumberedMorphs/BlurEditedMorph11.png,Stimuli/BlurLevel5/OriginalBlur/BlurEditedMorph11.png,Stimuli/BlurMorphTrio/EditedMorph11.png,010024right.gif,Stimuli/normal_thumbnails/11right.gif,,,,,0,0,0,0,0,65,65,10,,,,,,,,,,,,,,,,,,,,,,,79,66,1,207,-2.22751631,-1.134976249,11,Experiment,,,,,,,,,30,30,-19,-19,,,,,,,,,,,,,,,579.295371,579.8074341,579.295371,579.8074341,74.14965986,1575482754,1575482755,1.099394083,1575482752,1575482754,,,s9,1,44,m,expert radiologist,2019_Dec_04_1156,AdjustEyeTrack,3.1.5,59.70669789
68,Stimuli/Morph68.JPG,Stimuli/Morph68.png,Stimuli/BlurLevel5/BlurEditedMorph68,Stimuli/BlurLevel5/BlurEditedMorph68.png,Stimuli/BlurLevel5/NumberedMorphs/BlurEditedMorph68.png,Stimuli/BlurLevel5/OriginalBlur/BlurEditedMorph68.png,Stimuli/BlurMorphTrio/EditedMorph68.png,020218right.gif,Stimuli/normal_thumbnails/68right.gif,,,,,0,0,0,0,0,66,66,67,,,,,,,,,,,,,,,,,,,,,,,52,67,1,35,2.047880111,1.433941091,68,Experiment,,,,,,,,,5,91,-23,-23,,,,,,,,,,,,,,,583.2194087,583.7539506,583.2194087,583.7539506,68.70748299,1575482758,1575482761,2.434031248,1575482756,1575482758,,,s9,1,44,m,expert radiologist,2019_Dec_04_1156,AdjustEyeTrack,3.1.5,59.70669789
93,Stimuli/Morph93.JPG,Stimuli/Morph93.png,Stimuli/BlurLevel5/BlurEditedMorph93,Stimuli/BlurLevel5/BlurEditedMorph93.png,Stimuli/BlurLevel5/NumberedMorphs/BlurEditedMorph93.png,Stimuli/BlurLevel5/OriginalBlur/BlurEditedMorph93.png,Stimuli/BlurMorphTrio/EditedMorph93.png,020280right.gif,Stimuli/normal_thumbnails/93right.gif,,,,,0,0,0,0,0,67,67,92,,,,,,,,,,,,,,,,,,,,,,,100,68,1,271,0.043631016,-2.499619238,93,Experiment,,,,,,,,,73,73,20,20,,,,,,,,,,,,,,,588.354012,588.8690273,588.354012,588.8690273,72.78911565,1575482763,1575482764,0.933931112,1575482761,1575482763,,,s9,1,44,m,expert radiologist,2019_Dec_04_1156,AdjustEyeTrack,3.1.5,59.70669789
50,Stimuli/Morph50.JPG,Stimuli/Morph50.png,Stimuli/BlurLevel5/BlurEditedMorph50,Stimuli/BlurLevel5/BlurEditedMorph50.png,Stimuli/BlurLevel5/NumberedMorphs/BlurEditedMorph50.png,Stimuli/BlurLevel5/OriginalBlur/BlurEditedMorph50.png,Stimuli/BlurMorphTrio/EditedMorph50.png,010142right.gif,Stimuli/normal_thumbnails/50right.gif,,,,,0,0,0,0,0,68,68,49,,,,,,,,,,,,,,,,,,,,,,,47,69,1,185,-2.490486745,-0.217889357,50,Experiment,,,,,,,,,70,53,-3,-3,,,,,,,,,,,,,,,592.7022014,593.2037505,592.7022014,593.2037505,95.91836735,1575482768,1575482770,2.649199009,1575482764,1575482768,,,s9,1,44,m,expert radiologist,2019_Dec_04_1156,AdjustEyeTrack,3.1.5,59.70669789
70,Stimuli/Morph70.JPG,Stimuli/Morph70.png,Stimuli/BlurLevel5/BlurEditedMorph70,Stimuli/BlurLevel5/BlurEditedMorph70.png,Stimuli/BlurLevel5/NumberedMorphs/BlurEditedMorph70.png,Stimuli/BlurLevel5/OriginalBlur/BlurEditedMorph70.png,Stimuli/BlurMorphTrio/EditedMorph70.png,020221right.gif,Stimuli/normal_thumbnails/70right.gif,,,,,0,0,0,0,0,69,69,69,,,,,,,,,,,,,,,,,,,,,,,65,70,1,187,-2.481365379,-0.304673359,70,Experiment,,,,,,,,,137,84,-14,-14,,,,,,,,,,,,,,,598.1105618,598.6016104,598.1105618,598.6016104,80.95238095,1575482773,1575482777,4.11590004,1575482771,1575482773,,,s9,1,44,m,expert radiologist,2019_Dec_04_1156,AdjustEyeTrack,3.1.5,59.70669789
84,Stimuli/Morph84.JPG,Stimuli/Morph84.png,Stimuli/BlurLevel5/BlurEditedMorph84,Stimuli/BlurLevel5/BlurEditedMorph84.png,Stimuli/BlurLevel5/NumberedMorphs/BlurEditedMorph84.png,Stimuli/BlurLevel5/OriginalBlur/BlurEditedMorph84.png,Stimuli/BlurMorphTrio/EditedMorph84.png,020261right.gif,Stimuli/normal_thumbnails/84right.gif,,,,,0,0,0,0,0,70,70,83,,,,,,,,,,,,,,,,,,,,,,,2,71,1,220,-1.915111108,-1.606969024,84,Experiment,,,,,,,,,57,75,9,9,,,,,,,,,,,,,,,605.0242441,605.5354102,605.0242441,605.5354102,87.75510204,1575482780,1575482783,2.850030184,1575482777,1575482780,,,s9,1,44,m,expert radiologist,2019_Dec_04_1156,AdjustEyeTrack,3.1.5,59.70669789
9,Stimuli/Morph9.JPG,Stimuli/Morph9.png,Stimuli/BlurLevel5/BlurEditedMorph9,Stimuli/BlurLevel5/BlurEditedMorph9.png,Stimuli/BlurLevel5/NumberedMorphs/BlurEditedMorph9.png,Stimuli/BlurLevel5/OriginalBlur/BlurEditedMorph9.png,Stimuli/BlurMorphTrio/EditedMorph9.png,010015right.gif,Stimuli/normal_thumbnails/9right.gif,,,,,0,0,0,0,0,71,71,8,,,,,,,,,,,,,,,,,,,,,,,28,72,1,10,2.462019383,0.434120444,9,Experiment,,,,,,,,,7,7,2,2,,,,,,,,,,,,,,,610.6933517,611.2016229,610.6933517,611.2016229,97.27891156,1575482786,1575482786,0.766304016,1575482783,1575482786,,,s9,1,44,m,expert radiologist,2019_Dec_04_1156,AdjustEyeTrack,3.1.5,59.70669789
117,Stimuli/Morph117.JPG,Stimuli/Morph117.png,Stimuli/BlurLevel5/BlurEditedMorph117,Stimuli/BlurLevel5/BlurEditedMorph117.png,Stimuli/BlurLevel5/NumberedMorphs/BlurEditedMorph117.png,Stimuli/BlurLevel5/OriginalBlur/BlurEditedMorph117.png,Stimuli/BlurMorphTrio/EditedMorph117.png,None,None,,,,,0,0,0,0,0,72,72,116,,,,,,,,,,,,,,,,,,,,,,,63,73,1,253,-0.730929262,-2.39076189,117,Experiment,,,,,,,,,75,109,8,8,,,,,,,,,,,,,,,614.3864019,614.9351705,614.3864019,614.9351705,89.11564626,1575482789,1575482791,2.149974108,1575482787,1575482789,,,s9,1,44,m,expert radiologist,2019_Dec_04_1156,AdjustEyeTrack,3.1.5,59.70669789
146,Stimuli/Morph146.JPG,Stimuli/Morph146.png,Stimuli/BlurLevel5/BlurEditedMorph146,Stimuli/BlurLevel5/BlurEditedMorph146.png,Stimuli/BlurLevel5/NumberedMorphs/BlurEditedMorph146.png,Stimuli/BlurLevel5/OriginalBlur/BlurEditedMorph146.png,Stimuli/BlurMorphTrio/EditedMorph146.png,None,None,,,,,0,0,0,0,0,73,73,145,,,,,,,,,,,,,,,,,,,,,,,73,74,1,105,-0.647047613,2.414814566,146,Experiment,,,,,,,,,40,6,140,-7,,,,,,,,,,,,,,,619.0019939,619.5035501,619.0019939,619.5035501,90.47619048,1575482794,1575482796,1.649875879,1575482792,1575482794,,,s9,1,44,m,expert radiologist,2019_Dec_04_1156,AdjustEyeTrack,3.1.5,59.70669789
25,Stimuli/Morph25.JPG,Stimuli/Morph25.png,Stimuli/BlurLevel5/BlurEditedMorph25,Stimuli/BlurLevel5/BlurEditedMorph25.png,Stimuli/BlurLevel5/NumberedMorphs/BlurEditedMorph25.png,Stimuli/BlurLevel5/OriginalBlur/BlurEditedMorph25.png,Stimuli/BlurMorphTrio/EditedMorph25.png,010069right.gif,Stimuli/normal_thumbnails/25right.gif,,,,,0,0,0,0,0,74,74,24,,,,,,,,,,,,,,,,,,,,,,,66,75,1,38,1.970026884,1.539153688,25,Experiment,,,,,,,,,58,105,-80,67,,,,,,,,,,,,,,,623.0530354,623.5859233,623.0530354,623.5859233,8.843537415,1575482798,1575482807,9.065287828,1575482796,1575482798,,,s9,1,44,m,expert radiologist,2019_Dec_04_1156,AdjustEyeTrack,3.1.5,59.70669789
3,Stimuli/Morph3.JPG,Stimuli/Morph3.png,Stimuli/BlurLevel5/BlurEditedMorph3,Stimuli/BlurLevel5/BlurEditedMorph3.png,Stimuli/BlurLevel5/NumberedMorphs/BlurEditedMorph3.png,Stimuli/BlurLevel5/OriginalBlur/BlurEditedMorph3.png,Stimuli/BlurMorphTrio/EditedMorph3.png,010009right.gif,Stimuli/normal_thumbnails/3right.gif,,,,,0,0,0,0,0,75,75,2,,,,,,,,,,,,,,,,,,,,,,,7,76,1,35,2.047880111,1.433941091,3,Experiment,,,,,,,,,136,144,-141,6,,,,,,,,,,,,,,,634.9698319,635.4921981,634.9698319,635.4921981,91.83673469,1575482810,1575482813,2.836467981,1575482807,1575482810,,,s9,1,44,m,expert radiologist,2019_Dec_04_1156,AdjustEyeTrack,3.1.5,59.70669789
2,Stimuli/Morph2.JPG,Stimuli/Morph2.png,Stimuli/BlurLevel5/BlurEditedMorph2,Stimuli/BlurLevel5/BlurEditedMorph2.png,Stimuli/BlurLevel5/NumberedMorphs/BlurEditedMorph2.png,Stimuli/BlurLevel5/OriginalBlur/BlurEditedMorph2.png,Stimuli/BlurMorphTrio/EditedMorph2.png,010006right.gif,Stimuli/normal_thumbnails/2right.gif,,,,,0,0,0,0,0,76,76,1,,,,,,,,,,,,,,,,,,,,,,,70,77,1,265,-0.217889357,-2.490486745,2,Experiment,,,,,,,,,94,5,-3,-3,,,,,,,,,,,,,,,640.4866169,641.0205067,640.4866169,641.0205067,95.91836735,1575482815,1575482819,3.683726788,1575482813,1575482815,,,s9,1,44,m,expert radiologist,2019_Dec_04_1156,AdjustEyeTrack,3.1.5,59.70669789
118,Stimuli/Morph118.JPG,Stimuli/Morph118.png,Stimuli/BlurLevel5/BlurEditedMorph118,Stimuli/BlurLevel5/BlurEditedMorph118.png,Stimuli/BlurLevel5/NumberedMorphs/BlurEditedMorph118.png,Stimuli/BlurLevel5/OriginalBlur/BlurEditedMorph118.png,Stimuli/BlurMorphTrio/EditedMorph118.png,None,None,,,,,0,0,0,0,0,77,77,117,,,,,,,,,,,,,,,,,,,,,,,68,78,1,315,1.767766953,-1.767766953,118,Experiment,,,,,,,,,136,113,5,5,,,,,,,,,,,,,,,646.9021629,647.4020767,646.9021629,647.4020767,93.19727891,1575482822,1575482825,3.082997084,1575482819,1575482822,,,s9,1,44,m,expert radiologist,2019_Dec_04_1156,AdjustEyeTrack,3.1.5,59.70669789
76,Stimuli/Morph76.JPG,Stimuli/Morph76.png,Stimuli/BlurLevel5/BlurEditedMorph76,Stimuli/BlurLevel5/BlurEditedMorph76.png,Stimuli/BlurLevel5/NumberedMorphs/BlurEditedMorph76.png,Stimuli/BlurLevel5/OriginalBlur/BlurEditedMorph76.png,Stimuli/BlurMorphTrio/EditedMorph76.png,020234right.gif,Stimuli/normal_thumbnails/76right.gif,,,,,0,0,0,0,0,78,78,75,,,,,,,,,,,,,,,,,,,,,,,38,79,1,74,0.68909339,2.40315424,76,Experiment,,,,,,,,,25,82,-6,-6,,,,,,,,,,,,,,,652.9903654,653.4863719,652.9903654,653.4863719,91.83673469,1575482828,1575482831,2.981424809,1575482825,1575482828,,,s9,1,44,m,expert radiologist,2019_Dec_04_1156,AdjustEyeTrack,3.1.5,59.70669789
136,Stimuli/Morph136.JPG,Stimuli/Morph136.png,Stimuli/BlurLevel5/BlurEditedMorph136,Stimuli/BlurLevel5/BlurEditedMorph136.png,Stimuli/BlurLevel5/NumberedMorphs/BlurEditedMorph136.png,Stimuli/BlurLevel5/OriginalBlur/BlurEditedMorph136.png,Stimuli/BlurMorphTrio/EditedMorph136.png,None,None,,,,,0,0,0,0,0,79,79,135,,,,,,,,,,,,,,,,,,,,,,,11,80,1,348,2.445369002,-0.519779227,136,Experiment,,,,,,,,,43,119,17,17,,,,,,,,,,,,,,,659.3479197,659.8706521,659.3479197,659.8706521,76.8707483,1575482834,1575482837,2.417537212,1575482831,1575482834,,,s9,1,44,m,expert radiologist,2019_Dec_04_1156,AdjustEyeTrack,3.1.5,59.70669789
145,Stimuli/Morph145.JPG,Stimuli/Morph145.png,Stimuli/BlurLevel5/BlurEditedMorph145,Stimuli/BlurLevel5/BlurEditedMorph145.png,Stimuli/BlurLevel5/NumberedMorphs/BlurEditedMorph145.png,Stimuli/BlurLevel5/OriginalBlur/BlurEditedMorph145.png,Stimuli/BlurMorphTrio/EditedMorph145.png,None,None,,,,,0,0,0,0,0,80,80,144,,,,,,,,,,,,,,,,,,,,,,,62,81,1,307,1.504537558,-1.996588775,145,Experiment,,,,,,,,,30,1,144,-3,,,,,,,,,,,,,,,664.6052331,665.1020406,664.6052331,665.1020406,95.91836735,1575482840,1575482844,4.598855019,1575482837,1575482840,,,s9,1,44,m,expert radiologist,2019_Dec_04_1156,AdjustEyeTrack,3.1.5,59.70669789
72,Stimuli/Morph72.JPG,Stimuli/Morph72.png,Stimuli/BlurLevel5/BlurEditedMorph72,Stimuli/BlurLevel5/BlurEditedMorph72.png,Stimuli/BlurLevel5/NumberedMorphs/BlurEditedMorph72.png,Stimuli/BlurLevel5/OriginalBlur/BlurEditedMorph72.png,Stimuli/BlurMorphTrio/EditedMorph72.png,020227right.gif,Stimuli/normal_thumbnails/72right.gif,,,,,0,0,0,0,0,81,81,71,,,,,,,,,,,,,,,,,,,,,,,71,82,1,77,0.562377636,2.435925162,72,Experiment,,,,,,,,,103,81,-9,-9,,,,,,,,,,,,,,,671.7477784,672.2510702,671.7477784,672.2510702,87.75510204,1575482847,1575482849,2.501075029,1575482844,1575482847,,,s9,1,44,m,expert radiologist,2019_Dec_04_1156,AdjustEyeTrack,3.1.5,59.70669789
37,Stimuli/Morph37.JPG,Stimuli/Morph37.png,Stimuli/BlurLevel5/BlurEditedMorph37,Stimuli/BlurLevel5/BlurEditedMorph37.png,Stimuli/BlurLevel5/NumberedMorphs/BlurEditedMorph37.png,Stimuli/BlurLevel5/OriginalBlur/BlurEditedMorph37.png,Stimuli/BlurMorphTrio/EditedMorph37.png,010097right.gif,Stimuli/normal_thumbnails/37right.gif,,,,,0,0,0,0,0,82,82,36,,,,,,,,,,,,,,,,,,,,,,,74,83,1,137,-1.828384254,1.7049959,37,Experiment,,,,,,,,,19,43,-6,-6,,,,,,,,,,,,,,,677.1348435,677.653191,677.1348435,677.653191,91.83673469,1575482852,1575482854,1.73366785,1575482849,1575482852,,,s9,1,44,m,expert radiologist,2019_Dec_04_1156,AdjustEyeTrack,3.1.5,59.70669789
35,Stimuli/Morph35.JPG,Stimuli/Morph35.png,Stimuli/BlurLevel5/BlurEditedMorph35,Stimuli/BlurLevel5/BlurEditedMorph35.png,Stimuli/BlurLevel5/NumberedMorphs/BlurEditedMorph35.png,Stimuli/BlurLevel5/OriginalBlur/BlurEditedMorph35.png,Stimuli/BlurMorphTrio/EditedMorph35.png,010094right.gif,Stimuli/normal_thumbnails/35right.gif,,,,,0,0,0,0,0,83,83,34,,,,,,,,,,,,,,,,,,,,,,,21,84,1,176,-2.493910126,0.174391184,35,Experiment,,,,,,,,,128,41,-6,-6,,,,,,,,,,,,,,,681.4854149,682.0023447,681.4854149,682.0023447,91.83673469,1575482856,1575482859,2.667068005,1575482854,1575482856,,,s9,1,44,m,expert radiologist,2019_Dec_04_1156,AdjustEyeTrack,3.1.5,59.70669789
83,Stimuli/Morph83.JPG,Stimuli/Morph83.png,Stimuli/BlurLevel5/BlurEditedMorph83,Stimuli/BlurLevel5/BlurEditedMorph83.png,Stimuli/BlurLevel5/NumberedMorphs/BlurEditedMorph83.png,Stimuli/BlurLevel5/OriginalBlur/BlurEditedMorph83.png,Stimuli/BlurMorphTrio/EditedMorph83.png,020259right.gif,Stimuli/normal_thumbnails/83right.gif,,,,,0,0,0,0,0,84,84,82,,,,,,,,,,,,,,,,,,,,,,,66,85,1,26,2.246985116,1.095927867,83,Experiment,,,,,,,,,39,85,-2,-2,,,,,,,,,,,,,,,686.8003322,687.3175731,686.8003322,687.3175731,97.27891156,1575482862,1575482865,3.432776928,1575482859,1575482862,,,s9,1,44,m,expert radiologist,2019_Dec_04_1156,AdjustEyeTrack,3.1.5,59.70669789
47,Stimuli/Morph47.JPG,Stimuli/Morph47.png,Stimuli/BlurLevel5/BlurEditedMorph47,Stimuli/BlurLevel5/BlurEditedMorph47.png,Stimuli/BlurLevel5/NumberedMorphs/BlurEditedMorph47.png,Stimuli/BlurLevel5/OriginalBlur/BlurEditedMorph47.png,Stimuli/BlurMorphTrio/EditedMorph47.png,010130right.gif,Stimuli/normal_thumbnails/47right.gif,,,,,1,0,1,0,0,0,0,46,,,,,,,,,,,,,,,,,,,,,,,49,1,2,229,-1.640147572,-1.886773951,47,Experiment,,,,,,,,,76,27,20,20,,,,,,,,,,,,,,,721.1589901,721.6839291,721.1589901,721.6839291,72.78911565,1575482896,1575482899,2.866665125,1575482893,1575482896,space,27.53685432,s9,1,44,m,expert radiologist,2019_Dec_04_1156,AdjustEyeTrack,3.1.5,59.70669789
36,Stimuli/Morph36.JPG,Stimuli/Morph36.png,Stimuli/BlurLevel5/BlurEditedMorph36,Stimuli/BlurLevel5/BlurEditedMorph36.png,Stimuli/BlurLevel5/NumberedMorphs/BlurEditedMorph36.png,Stimuli/BlurLevel5/OriginalBlur/BlurEditedMorph36.png,Stimuli/BlurMorphTrio/EditedMorph36.png,010095right.gif,Stimuli/normal_thumbnails/36right.gif,,,,,1,0,1,0,0,1,1,35,,,,,,,,,,,,,,,,,,,,,,,45,2,2,164,-2.40315424,0.68909339,36,Experiment,,,,,,,,,59,22,14,14,,,,,,,,,,,,,,,726.6538806,727.1671883,726.6538806,727.1671883,80.95238095,1575482902,1575482905,3.623643875,1575482899,1575482902,,,s9,1,44,m,expert radiologist,2019_Dec_04_1156,AdjustEyeTrack,3.1.5,59.70669789
26,Stimuli/Morph26.JPG,Stimuli/Morph26.png,Stimuli/BlurLevel5/BlurEditedMorph26,Stimuli/BlurLevel5/BlurEditedMorph26.png,Stimuli/BlurLevel5/NumberedMorphs/BlurEditedMorph26.png,Stimuli/BlurLevel5/OriginalBlur/BlurEditedMorph26.png,Stimuli/BlurMorphTrio/EditedMorph26.png,010070right.gif,Stimuli/normal_thumbnails/26right.gif,,,,,1,0,1,0,0,2,2,25,,,,,,,,,,,,,,,,,,,,,,,55,3,2,187,-2.481365379,-0.304673359,26,Experiment,,,,,,,,,98,37,-11,-11,,,,,,,,,,,,,,,733.0729968,733.5696844,733.0729968,733.5696844,85.03401361,1575482908,1575482912,3.600416899,1575482905,1575482908,,,s9,1,44,m,expert radiologist,2019_Dec_04_1156,AdjustEyeTrack,3.1.5,59.70669789
65,Stimuli/Morph65.JPG,Stimuli/Morph65.png,Stimuli/BlurLevel5/BlurEditedMorph65,Stimuli/BlurLevel5/BlurEditedMorph65.png,Stimuli/BlurLevel5/NumberedMorphs/BlurEditedMorph65.png,Stimuli/BlurLevel5/OriginalBlur/BlurEditedMorph65.png,Stimuli/BlurMorphTrio/EditedMorph65.png,020209right.gif,Stimuli/normal_thumbnails/65right.gif,,,,,1,0,1,0,0,3,3,64,,,,,,,,,,,,,,,,,,,,,,,91,4,2,256,-0.604804739,-2.425739316,65,Experiment,,,,,,,,,38,84,-19,-19,,,,,,,,,,,,,,,739.3609998,739.8677306,739.3609998,739.8677306,74.14965986,1575482914,1575482917,2.899922848,1575482912,1575482914,,,s9,1,44,m,expert radiologist,2019_Dec_04_1156,AdjustEyeTrack,3.1.5,59.70669789
134,Stimuli/Morph134.JPG,Stimuli/Morph134.png,Stimuli/BlurLevel5/BlurEditedMorph134,Stimuli/BlurLevel5/BlurEditedMorph134.png,Stimuli/BlurLevel5/NumberedMorphs/BlurEditedMorph134.png,Stimuli/BlurLevel5/OriginalBlur/BlurEditedMorph134.png,Stimuli/BlurMorphTrio/EditedMorph134.png,None,None,,,,,1,0,1,0,0,4,4,133,,,,,,,,,,,,,,,,,,,,,,,1,5,2,315,1.767766953,-1.767766953,134,Experiment,,,,,,,,,102,119,15,15,,,,,,,,,,,,,,,744.25112,744.7508097,744.25112,744.7508097,79.59183673,1575482919,1575482920,1.250292063,1575482917,1575482919,,,s9,1,44,m,expert radiologist,2019_Dec_04_1156,AdjustEyeTrack,3.1.5,59.70669789
142,Stimuli/Morph142.JPG,Stimuli/Morph142.png,Stimuli/BlurLevel5/BlurEditedMorph142,Stimuli/BlurLevel5/BlurEditedMorph142.png,Stimuli/BlurLevel5/NumberedMorphs/BlurEditedMorph142.png,Stimuli/BlurLevel5/OriginalBlur/BlurEditedMorph142.png,Stimuli/BlurMorphTrio/EditedMorph142.png,None,None,,,,,1,0,1,0,0,5,5,141,,,,,,,,,,,,,,,,,,,,,,,51,6,2,154,-2.246985116,1.095927867,142,Experiment,,,,,,,,,45,146,-4,-4,,,,,,,,,,,,,,,748.4444771,748.9502474,748.4444771,748.9502474,94.55782313,1575482923,1575482930,6.633553982,1575482921,1575482923,,,s9,1,44,m,expert radiologist,2019_Dec_04_1156,AdjustEyeTrack,3.1.5,59.70669789
25,Stimuli/Morph25.JPG,Stimuli/Morph25.png,Stimuli/BlurLevel5/BlurEditedMorph25,Stimuli/BlurLevel5/BlurEditedMorph25.png,Stimuli/BlurLevel5/NumberedMorphs/BlurEditedMorph25.png,Stimuli/BlurLevel5/OriginalBlur/BlurEditedMorph25.png,Stimuli/BlurMorphTrio/EditedMorph25.png,010069right.gif,Stimuli/normal_thumbnails/25right.gif,,,,,1,0,1,0,0,6,6,24,,,,,,,,,,,,,,,,,,,,,,,14,7,2,323,1.996588775,-1.504537558,25,Experiment,,,,,,,,,53,30,-5,-5,,,,,,,,,,,,,,,758.1031693,758.6181631,758.1031693,758.6181631,93.19727891,1575482933,1575482936,3.216528177,1575482930,1575482933,,,s9,1,44,m,expert radiologist,2019_Dec_04_1156,AdjustEyeTrack,3.1.5,59.70669789
88,Stimuli/Morph88.JPG,Stimuli/Morph88.png,Stimuli/BlurLevel5/BlurEditedMorph88,Stimuli/BlurLevel5/BlurEditedMorph88.png,Stimuli/BlurLevel5/NumberedMorphs/BlurEditedMorph88.png,Stimuli/BlurLevel5/OriginalBlur/BlurEditedMorph88.png,Stimuli/BlurMorphTrio/EditedMorph88.png,020271right.gif,Stimuli/normal_thumbnails/88right.gif,,,,,1,0,1,0,0,7,7,87,,,,,,,,,,,,,,,,,,,,,,,15,8,2,107,-0.730929262,2.39076189,88,Experiment,,,,,,,,,105,92,-4,-4,,,,,,,,,,,,,,,764.0672532,764.5681539,764.0672532,764.5681539,94.55782313,1575482939,1575482941,2.085208178,1575482937,1575482939,,,s9,1,44,m,expert radiologist,2019_Dec_04_1156,AdjustEyeTrack,3.1.5,59.70669789
82,Stimuli/Morph82.JPG,Stimuli/Morph82.png,Stimuli/BlurLevel5/BlurEditedMorph82,Stimuli/BlurLevel5/BlurEditedMorph82.png,Stimuli/BlurLevel5/NumberedMorphs/BlurEditedMorph82.png,Stimuli/BlurLevel5/OriginalBlur/BlurEditedMorph82.png,Stimuli/BlurMorphTrio/EditedMorph82.png,020247right.gif,Stimuli/normal_thumbnails/82right.gif,,,,,1,0,1,0,0,8,8,81,,,,,,,,,,,,,,,,,,,,,,,17,9,2,10,2.462019383,0.434120444,82,Experiment,,,,,,,,,144,84,-2,-2,,,,,,,,,,,,,,,769.1446388,769.6706248,769.1446388,769.6706248,97.27891156,1575482944,1575482949,4.998963833,1575482941,1575482944,,,s9,1,44,m,expert radiologist,2019_Dec_04_1156,AdjustEyeTrack,3.1.5,59.70669789
40,Stimuli/Morph40.JPG,Stimuli/Morph40.png,Stimuli/BlurLevel5/BlurEditedMorph40,Stimuli/BlurLevel5/BlurEditedMorph40.png,Stimuli/BlurLevel5/NumberedMorphs/BlurEditedMorph40.png,Stimuli/BlurLevel5/OriginalBlur/BlurEditedMorph40.png,Stimuli/BlurMorphTrio/EditedMorph40.png,010110right.gif,Stimuli/normal_thumbnails/40right.gif,,,,,1,0,1,0,0,9,9,39,,,,,,,,,,,,,,,,,,,,,,,12,10,2,73,0.730929262,2.39076189,40,Experiment,,,,,,,,,76,35,5,5,,,,,,,,,,,,,,,777.5020225,778.0022743,777.5020225,778.0022743,93.19727891,1575482952,1575482956,3.882073164,1575482949,1575482952,,,s9,1,44,m,expert radiologist,2019_Dec_04_1156,AdjustEyeTrack,3.1.5,59.70669789
140,Stimuli/Morph140.JPG,Stimuli/Morph140.png,Stimuli/BlurLevel5/BlurEditedMorph140,Stimuli/BlurLevel5/BlurEditedMorph140.png,Stimuli/BlurLevel5/NumberedMorphs/BlurEditedMorph140.png,Stimuli/BlurLevel5/OriginalBlur/BlurEditedMorph140.png,Stimuli/BlurMorphTrio/EditedMorph140.png,None,None,,,,,1,0,1,0,0,10,10,139,,,,,,,,,,,,,,,,,,,,,,,38,11,2,224,-1.798349501,-1.736645926,140,Experiment,,,,,,,,,121,146,-6,-6,,,,,,,,,,,,,,,784.4912339,784.9871192,784.4912339,784.9871192,91.83673469,1575482959,1575482962,3.050579786,1575482957,1575482959,,,s9,1,44,m,expert radiologist,2019_Dec_04_1156,AdjustEyeTrack,3.1.5,59.70669789
34,Stimuli/Morph34.JPG,Stimuli/Morph34.png,Stimuli/BlurLevel5/BlurEditedMorph34,Stimuli/BlurLevel5/BlurEditedMorph34.png,Stimuli/BlurLevel5/NumberedMorphs/BlurEditedMorph34.png,Stimuli/BlurLevel5/OriginalBlur/BlurEditedMorph34.png,Stimuli/BlurMorphTrio/EditedMorph34.png,010090right.gif,Stimuli/normal_thumbnails/34right.gif,,,,,1,0,1,0,0,11,11,33,,,,,,,,,,,,,,,,,,,,,,,62,12,2,231,-1.573300978,-1.942864904,34,Experiment,,,,,,,,,136,31,3,3,,,,,,,,,,,,,,,790.6875897,791.2006646,790.6875897,791.2006646,95.91836735,1575482966,1575482969,2.95041585,1575482963,1575482966,,,s9,1,44,m,expert radiologist,2019_Dec_04_1156,AdjustEyeTrack,3.1.5,59.70669789
106,Stimuli/Morph106.JPG,Stimuli/Morph106.png,Stimuli/BlurLevel5/BlurEditedMorph106,Stimuli/BlurLevel5/BlurEditedMorph106.png,Stimuli/BlurLevel5/NumberedMorphs/BlurEditedMorph106.png,Stimuli/BlurLevel5/OriginalBlur/BlurEditedMorph106.png,Stimuli/BlurMorphTrio/EditedMorph106.png,None,None,,,,,1,0,1,0,0,12,12,105,,,,,,,,,,,,,,,,,,,,,,,95,13,2,53,1.504537558,1.996588775,106,Experiment,,,,,,,,,43,93,13,13,,,,,,,,,,,,,,,797.0559854,797.5828878,797.0559854,797.5828878,82.31292517,1575482972,1575482976,3.533591986,1575482969,1575482972,,,s9,1,44,m,expert radiologist,2019_Dec_04_1156,AdjustEyeTrack,3.1.5,59.70669789
112,Stimuli/Morph112.JPG,Stimuli/Morph112.png,Stimuli/BlurLevel5/BlurEditedMorph112,Stimuli/BlurLevel5/BlurEditedMorph112.png,Stimuli/BlurLevel5/NumberedMorphs/BlurEditedMorph112.png,Stimuli/BlurLevel5/OriginalBlur/BlurEditedMorph112.png,Stimuli/BlurMorphTrio/EditedMorph112.png,None,None,,,,,1,0,1,0,0,13,13,111,,,,,,,,,,,,,,,,,,,,,,,28,14,2,303,1.361597588,-2.09667642,112,Experiment,,,,,,,,,139,111,1,1,,,,,,,,,,,,,,,803.5264855,804.0333152,803.5264855,804.0333152,98.63945578,1575482978,1575482982,3.452278137,1575482976,1575482978,,,s9,1,44,m,expert radiologist,2019_Dec_04_1156,AdjustEyeTrack,3.1.5,59.70669789
141,Stimuli/Morph141.JPG,Stimuli/Morph141.png,Stimuli/BlurLevel5/BlurEditedMorph141,Stimuli/BlurLevel5/BlurEditedMorph141.png,Stimuli/BlurLevel5/NumberedMorphs/BlurEditedMorph141.png,Stimuli/BlurLevel5/OriginalBlur/BlurEditedMorph141.png,Stimuli/BlurMorphTrio/EditedMorph141.png,None,None,,,,,1,0,1,0,0,14,14,140,,,,,,,,,,,,,,,,,,,,,,,42,15,2,244,-1.095927867,-2.246985116,141,Experiment,,,,,,,,,86,142,-1,-1,,,,,,,,,,,,,,,810.1863345,810.6839112,810.1863345,810.6839112,98.63945578,1575482985,1575482991,5.9497509,1575482982,1575482985,,,s9,1,44,m,expert radiologist,2019_Dec_04_1156,AdjustEyeTrack,3.1.5,59.70669789
55,Stimuli/Morph55.JPG,Stimuli/Morph55.png,Stimuli/BlurLevel5/BlurEditedMorph55,Stimuli/BlurLevel5/BlurEditedMorph55.png,Stimuli/BlurLevel5/NumberedMorphs/BlurEditedMorph55.png,Stimuli/BlurLevel5/OriginalBlur/BlurEditedMorph55.png,Stimuli/BlurMorphTrio/EditedMorph55.png,010151right.gif,Stimuli/normal_thumbnails/55right.gif,,,,,1,0,1,0,0,15,15,54,,,,,,,,,,,,,,,,,,,,,,,19,16,2,303,1.361597588,-2.09667642,55,Experiment,,,,,,,,,120,53,2,2,,,,,,,,,,,,,,,819.2866244,819.799341,819.2866244,819.799341,97.27891156,1575482994,1575482998,3.700158834,1575482991,1575482994,,,s9,1,44,m,expert radiologist,2019_Dec_04_1156,AdjustEyeTrack,3.1.5,59.70669789
117,Stimuli/Morph117.JPG,Stimuli/Morph117.png,Stimuli/BlurLevel5/BlurEditedMorph117,Stimuli/BlurLevel5/BlurEditedMorph117.png,Stimuli/BlurLevel5/NumberedMorphs/BlurEditedMorph117.png,Stimuli/BlurLevel5/OriginalBlur/BlurEditedMorph117.png,Stimuli/BlurMorphTrio/EditedMorph117.png,None,None,,,,,1,0,1,0,0,16,16,116,,,,,,,,,,,,,,,,,,,,,,,34,17,2,292,0.936516484,-2.317959636,117,Experiment,,,,,,,,,3,123,-6,-6,,,,,,,,,,,,,,,826.2190207,826.735007,826.2190207,826.735007,91.83673469,1575483001,1575483006,4.383309126,1575482998,1575483001,,,s9,1,44,m,expert radiologist,2019_Dec_04_1156,AdjustEyeTrack,3.1.5,59.70669789
128,Stimuli/Morph128.JPG,Stimuli/Morph128.png,Stimuli/BlurLevel5/BlurEditedMorph128,Stimuli/BlurLevel5/BlurEditedMorph128.png,Stimuli/BlurLevel5/NumberedMorphs/BlurEditedMorph128.png,Stimuli/BlurLevel5/OriginalBlur/BlurEditedMorph128.png,Stimuli/BlurMorphTrio/EditedMorph128.png,None,None,,,,,1,0,1,0,0,17,17,127,,,,,,,,,,,,,,,,,,,,,,,63,18,2,65,1.056545654,2.265769468,128,Experiment,,,,,,,,,108,121,7,7,,,,,,,,,,,,,,,833.4439098,833.9501321,833.4439098,833.9501321,90.47619048,1575483008,1575483011,2.66697216,1575483006,1575483008,,,s9,1,44,m,expert radiologist,2019_Dec_04_1156,AdjustEyeTrack,3.1.5,59.70669789
44,Stimuli/Morph44.JPG,Stimuli/Morph44.png,Stimuli/BlurLevel5/BlurEditedMorph44,Stimuli/BlurLevel5/BlurEditedMorph44.png,Stimuli/BlurLevel5/NumberedMorphs/BlurEditedMorph44.png,Stimuli/BlurLevel5/OriginalBlur/BlurEditedMorph44.png,Stimuli/BlurMorphTrio/EditedMorph44.png,010126right.gif,Stimuli/normal_thumbnails/44right.gif,,,,,1,0,1,0,0,18,18,43,,,,,,,,,,,,,,,,,,,,,,,21,19,2,51,1.573300978,1.942864904,44,Experiment,,,,,,,,,105,62,-18,-18,,,,,,,,,,,,,,,838.7353383,839.2656879,838.7353383,839.2656879,75.51020408,1575483014,1575483018,4.183247089,1575483011,1575483014,,,s9,1,44,m,expert radiologist,2019_Dec_04_1156,AdjustEyeTrack,3.1.5,59.70669789
118,Stimuli/Morph118.JPG,Stimuli/Morph118.png,Stimuli/BlurLevel5/BlurEditedMorph118,Stimuli/BlurLevel5/BlurEditedMorph118.png,Stimuli/BlurLevel5/NumberedMorphs/BlurEditedMorph118.png,Stimuli/BlurLevel5/OriginalBlur/BlurEditedMorph118.png,Stimuli/BlurMorphTrio/EditedMorph118.png,None,None,,,,,1,0,1,0,0,19,19,117,,,,,,,,,,,,,,,,,,,,,,,43,20,2,246,-1.016841608,-2.283863644,118,Experiment,,,,,,,,,107,122,-4,-4,,,,,,,,,,,,,,,845.7011499,846.1985238,845.7011499,846.1985238,94.55782313,1575483021,1575483022,1.833323956,1575483018,1575483021,,,s9,1,44,m,expert radiologist,2019_Dec_04_1156,AdjustEyeTrack,3.1.5,59.70669789
99,Stimuli/Morph99.JPG,Stimuli/Morph99.png,Stimuli/BlurLevel5/BlurEditedMorph99,Stimuli/BlurLevel5/BlurEditedMorph99.png,Stimuli/BlurLevel5/NumberedMorphs/BlurEditedMorph99.png,Stimuli/BlurLevel5/OriginalBlur/BlurEditedMorph99.png,Stimuli/BlurMorphTrio/EditedMorph99.png,020299right.gif,Stimuli/normal_thumbnails/99right.gif,,,,,1,0,1,0,0,20,20,98,,,,,,,,,,,,,,,,,,,,,,,82,21,2,74,0.68909339,2.40315424,99,Experiment,,,,,,,,,72,90,9,9,,,,,,,,,,,,,,,850.4598707,851.0329754,850.4598707,851.0329754,87.75510204,1575483025,1575483029,3.216393232,1575483023,1575483025,,,s9,1,44,m,expert radiologist,2019_Dec_04_1156,AdjustEyeTrack,3.1.5,59.70669789
49,Stimuli/Morph49.JPG,Stimuli/Morph49.png,Stimuli/BlurLevel5/BlurEditedMorph49,Stimuli/BlurLevel5/BlurEditedMorph49.png,Stimuli/BlurLevel5/NumberedMorphs/BlurEditedMorph49.png,Stimuli/BlurLevel5/OriginalBlur/BlurEditedMorph49.png,Stimuli/BlurMorphTrio/EditedMorph49.png,010135right.gif,Stimuli/normal_thumbnails/49right.gif,,,,,1,0,1,0,0,21,21,48,,,,,,,,,,,,,,,,,,,,,,,31,22,2,272,0.087248742,-2.498477068,49,Experiment,,,,,,,,,26,56,-7,-7,,,,,,,,,,,,,,,856.6333897,857.1491266,856.6333897,857.1491266,90.47619048,1575483032,1575483035,3.183994055,1575483029,1575483032,,,s9,1,44,m,expert radiologist,2019_Dec_04_1156,AdjustEyeTrack,3.1.5,59.70669789
98,Stimuli/Morph98.JPG,Stimuli/Morph98.png,Stimuli/BlurLevel5/BlurEditedMorph98,Stimuli/BlurLevel5/BlurEditedMorph98.png,Stimuli/BlurLevel5/NumberedMorphs/BlurEditedMorph98.png,Stimuli/BlurLevel5/OriginalBlur/BlurEditedMorph98.png,Stimuli/BlurMorphTrio/EditedMorph98.png,020298right.gif,Stimuli/normal_thumbnails/98right.gif,,,,,1,0,1,0,0,22,22,97,,,,,,,,,,,,,,,,,,,,,,,41,23,2,12,2.445369002,0.519779227,98,Experiment,,,,,,,,,24,102,-4,-4,,,,,,,,,,,,,,,862.3505752,862.8504564,862.3505752,862.8504564,94.55782313,1575483037,1575483041,3.317639828,1575483035,1575483037,,,s9,1,44,m,expert radiologist,2019_Dec_04_1156,AdjustEyeTrack,3.1.5,59.70669789
78,Stimuli/Morph78.JPG,Stimuli/Morph78.png,Stimuli/BlurLevel5/BlurEditedMorph78,Stimuli/BlurLevel5/BlurEditedMorph78.png,Stimuli/BlurLevel5/NumberedMorphs/BlurEditedMorph78.png,Stimuli/BlurLevel5/OriginalBlur/BlurEditedMorph78.png,Stimuli/BlurMorphTrio/EditedMorph78.png,020238right.gif,Stimuli/normal_thumbnails/78right.gif,,,,,1,0,1,0,0,23,23,77,,,,,,,,,,,,,,,,,,,,,,,49,24,2,245,-1.056545654,-2.265769468,78,Experiment,,,,,,,,,82,77,1,1,,,,,,,,,,,,,,,868.2996467,868.7991057,868.2996467,868.7991057,98.63945578,1575483043,1575483048,4.349287987,1575483041,1575483043,,,s9,1,44,m,expert radiologist,2019_Dec_04_1156,AdjustEyeTrack,3.1.5,59.70669789
90,Stimuli/Morph90.JPG,Stimuli/Morph90.png,Stimuli/BlurLevel5/BlurEditedMorph90,Stimuli/BlurLevel5/BlurEditedMorph90.png,Stimuli/BlurLevel5/NumberedMorphs/BlurEditedMorph90.png,Stimuli/BlurLevel5/OriginalBlur/BlurEditedMorph90.png,Stimuli/BlurMorphTrio/EditedMorph90.png,020275right.gif,Stimuli/normal_thumbnails/90right.gif,,,,,1,0,1,0,0,24,24,89,,,,,,,,,,,,,,,,,,,,,,,75,25,2,93,-0.130839891,2.496573837,90,Experiment,,,,,,,,,123,82,8,8,,,,,,,,,,,,,,,875.2327699,875.7488349,875.2327699,875.7488349,89.11564626,1575483050,1575483053,2.933280945,1575483048,1575483050,,,s9,1,44,m,expert radiologist,2019_Dec_04_1156,AdjustEyeTrack,3.1.5,59.70669789
81,Stimuli/Morph81.JPG,Stimuli/Morph81.png,Stimuli/BlurLevel5/BlurEditedMorph81,Stimuli/BlurLevel5/BlurEditedMorph81.png,Stimuli/BlurLevel5/NumberedMorphs/BlurEditedMorph81.png,Stimuli/BlurLevel5/OriginalBlur/BlurEditedMorph81.png,Stimuli/BlurMorphTrio/EditedMorph81.png,020245right.gif,Stimuli/normal_thumbnails/81right.gif,,,,,1,0,1,0,0,25,25,80,,,,,,,,,,,,,,,,,,,,,,,33,26,2,146,-2.072593931,1.397982259,81,Experiment,,,,,,,,,57,67,14,14,,,,,,,,,,,,,,,880.9821481,881.4823799,880.9821481,881.4823799,80.95238095,1575483056,1575483058,2.216372967,1575483053,1575483056,,,s9,1,44,m,expert radiologist,2019_Dec_04_1156,AdjustEyeTrack,3.1.5,59.70669789
95,Stimuli/Morph95.JPG,Stimuli/Morph95.png,Stimuli/BlurLevel5/BlurEditedMorph95,Stimuli/BlurLevel5/BlurEditedMorph95.png,Stimuli/BlurLevel5/NumberedMorphs/BlurEditedMorph95.png,Stimuli/BlurLevel5/OriginalBlur/BlurEditedMorph95.png,Stimuli/BlurMorphTrio/EditedMorph95.png,020287right.gif,Stimuli/normal_thumbnails/95right.gif,,,,,1,0,1,0,0,26,26,94,,,,,,,,,,,,,,,,,,,,,,,4,27,2,148,-2.12012024,1.324798161,95,Experiment,,,,,,,,,67,94,1,1,,,,,,,,,,,,,,,886.4404754,886.9998349,886.4404754,886.9998349,98.63945578,1575483061,1575483063,1.882919073,1575483058,1575483061,,,s9,1,44,m,expert radiologist,2019_Dec_04_1156,AdjustEyeTrack,3.1.5,59.70669789
97,Stimuli/Morph97.JPG,Stimuli/Morph97.png,Stimuli/BlurLevel5/BlurEditedMorph97,Stimuli/BlurLevel5/BlurEditedMorph97.png,Stimuli/BlurLevel5/NumberedMorphs/BlurEditedMorph97.png,Stimuli/BlurLevel5/OriginalBlur/BlurEditedMorph97.png,Stimuli/BlurMorphTrio/EditedMorph97.png,020294right.gif,Stimuli/normal_thumbnails/97right.gif,,,,,1,0,1,0,0,27,27,96,,,,,,,,,,,,,,,,,,,,,,,44,28,2,254,-0.68909339,-2.40315424,97,Experiment,,,,,,,,,8,85,12,12,,,,,,,,,,,,,,,891.3233422,891.8331864,891.3233422,891.8331864,83.67346939,1575483066,1575483069,2.632964849,1575483064,1575483066,,,s9,1,44,m,expert radiologist,2019_Dec_04_1156,AdjustEyeTrack,3.1.5,59.70669789
39,Stimuli/Morph39.JPG,Stimuli/Morph39.png,Stimuli/BlurLevel5/BlurEditedMorph39,Stimuli/BlurLevel5/BlurEditedMorph39.png,Stimuli/BlurLevel5/NumberedMorphs/BlurEditedMorph39.png,Stimuli/BlurLevel5/OriginalBlur/BlurEditedMorph39.png,Stimuli/BlurMorphTrio/EditedMorph39.png,010109right.gif,Stimuli/normal_thumbnails/39right.gif,,,,,1,0,1,0,0,28,28,38,,,,,,,,,,,,,,,,,,,,,,,55,29,2,132,-1.672826516,1.857862064,39,Experiment,,,,,,,,,77,32,7,7,,,,,,,,,,,,,,,896.5517546,897.0651525,896.5517546,897.0651525,90.47619048,1575483071,1575483073,1.900367975,1575483069,1575483071,,,s9,1,44,m,expert radiologist,2019_Dec_04_1156,AdjustEyeTrack,3.1.5,59.70669789
33,Stimuli/Morph33.JPG,Stimuli/Morph33.png,Stimuli/BlurLevel5/BlurEditedMorph33,Stimuli/BlurLevel5/BlurEditedMorph33.png,Stimuli/BlurLevel5/NumberedMorphs/BlurEditedMorph33.png,Stimuli/BlurLevel5/OriginalBlur/BlurEditedMorph33.png,Stimuli/BlurMorphTrio/EditedMorph33.png,010089right.gif,Stimuli/normal_thumbnails/33right.gif,,,,,1,0,1,0,0,29,29,32,,,,,,,,,,,,,,,,,,,,,,,36,30,2,278,0.347932752,-2.475670172,33,Experiment,,,,,,,,,26,28,5,5,,,,,,,,,,,,,,,901.2338708,901.7315811,901.2338708,901.7315811,93.19727891,1575483076,1575483078,1.783400059,1575483074,1575483076,,,s9,1,44,m,expert radiologist,2019_Dec_04_1156,AdjustEyeTrack,3.1.5,59.70669789
63,Stimuli/Morph63.JPG,Stimuli/Morph63.png,Stimuli/BlurLevel5/BlurEditedMorph63,Stimuli/BlurLevel5/BlurEditedMorph63.png,Stimuli/BlurLevel5/NumberedMorphs/BlurEditedMorph63.png,Stimuli/BlurLevel5/OriginalBlur/BlurEditedMorph63.png,Stimuli/BlurMorphTrio/EditedMorph63.png,020206right.gif,Stimuli/normal_thumbnails/63right.gif,,,,,1,0,1,0,0,30,30,62,,,,,,,,,,,,,,,,,,,,,,,79,31,2,184,-2.493910126,-0.174391184,63,Experiment,,,,,,,,,93,59,4,4,,,,,,,,,,,,,,,905.8145718,906.3472801,905.8145718,906.3472801,94.55782313,1575483081,1575483087,6.23260808,1575483078,1575483081,,,s9,1,44,m,expert radiologist,2019_Dec_04_1156,AdjustEyeTrack,3.1.5,59.70669789
137,Stimuli/Morph137.JPG,Stimuli/Morph137.png,Stimuli/BlurLevel5/BlurEditedMorph137,Stimuli/BlurLevel5/BlurEditedMorph137.png,Stimuli/BlurLevel5/NumberedMorphs/BlurEditedMorph137.png,Stimuli/BlurLevel5/OriginalBlur/BlurEditedMorph137.png,Stimuli/BlurMorphTrio/EditedMorph137.png,None,None,,,,,1,0,1,0,0,31,31,136,,,,,,,,,,,,,,,,,,,,,,,74,32,2,164,-2.40315424,0.68909339,137,Experiment,,,,,,,,,77,3,134,-13,,,,,,,,,,,,,,,915.0156765,915.5311192,915.0156765,915.5311192,82.31292517,1575483090,1575483096,5.632188082,1575483087,1575483090,,,s9,1,44,m,expert radiologist,2019_Dec_04_1156,AdjustEyeTrack,3.1.5,59.70669789
8,Stimuli/Morph8.JPG,Stimuli/Morph8.png,Stimuli/BlurLevel5/BlurEditedMorph8,Stimuli/BlurLevel5/BlurEditedMorph8.png,Stimuli/BlurLevel5/NumberedMorphs/BlurEditedMorph8.png,Stimuli/BlurLevel5/OriginalBlur/BlurEditedMorph8.png,Stimuli/BlurMorphTrio/EditedMorph8.png,010014right.gif,Stimuli/normal_thumbnails/8right.gif,,,,,1,0,1,0,0,32,32,7,,,,,,,,,,,,,,,,,,,,,,,64,33,2,309,1.573300978,-1.942864904,8,Experiment,,,,,,,,,64,147,-139,8,,,,,,,,,,,,,,,923.0722102,923.5834362,923.0722102,923.5834362,89.11564626,1575483098,1575483102,4.370131016,1575483096,1575483098,,,s9,1,44,m,expert radiologist,2019_Dec_04_1156,AdjustEyeTrack,3.1.5,59.70669789
74,Stimuli/Morph74.JPG,Stimuli/Morph74.png,Stimuli/BlurLevel5/BlurEditedMorph74,Stimuli/BlurLevel5/BlurEditedMorph74.png,Stimuli/BlurLevel5/NumberedMorphs/BlurEditedMorph74.png,Stimuli/BlurLevel5/OriginalBlur/BlurEditedMorph74.png,Stimuli/BlurMorphTrio/EditedMorph74.png,020232right.gif,Stimuli/normal_thumbnails/74right.gif,,,,,1,0,1,0,0,33,33,73,,,,,,,,,,,,,,,,,,,,,,,25,34,2,304,1.397982259,-2.072593931,74,Experiment,,,,,,,,,135,85,-11,-11,,,,,,,,,,,,,,,930.1353416,930.6476217,930.1353416,930.6476217,85.03401361,1575483105,1575483110,4.83335495,1575483103,1575483105,,,s9,1,44,m,expert radiologist,2019_Dec_04_1156,AdjustEyeTrack,3.1.5,59.70669789
32,Stimuli/Morph32.JPG,Stimuli/Morph32.png,Stimuli/BlurLevel5/BlurEditedMorph32,Stimuli/BlurLevel5/BlurEditedMorph32.png,Stimuli/BlurLevel5/NumberedMorphs/BlurEditedMorph32.png,Stimuli/BlurLevel5/OriginalBlur/BlurEditedMorph32.png,Stimuli/BlurMorphTrio/EditedMorph32.png,010080right.gif,Stimuli/normal_thumbnails/32right.gif,,,,,1,0,1,0,0,34,34,31,,,,,,,,,,,,,,,,,,,,,,,48,35,2,28,2.207368982,1.173678907,32,Experiment,,,,,,,,,103,29,3,3,,,,,,,,,,,,,,,937.7034033,938.1980136,937.7034033,938.1980136,95.91836735,1575483113,1575483117,4.216216087,1575483110,1575483113,,,s9,1,44,m,expert radiologist,2019_Dec_04_1156,AdjustEyeTrack,3.1.5,59.70669789
3,Stimuli/Morph3.JPG,Stimuli/Morph3.png,Stimuli/BlurLevel5/BlurEditedMorph3,Stimuli/BlurLevel5/BlurEditedMorph3.png,Stimuli/BlurLevel5/NumberedMorphs/BlurEditedMorph3.png,Stimuli/BlurLevel5/OriginalBlur/BlurEditedMorph3.png,Stimuli/BlurMorphTrio/EditedMorph3.png,010009right.gif,Stimuli/normal_thumbnails/3right.gif,,,,,1,0,1,0,0,35,35,2,,,,,,,,,,,,,,,,,,,,,,,34,36,2,37,1.996588775,1.504537558,3,Experiment,,,,,,,,,22,136,-133,14,,,,,,,,,,,,,,,944.9522328,945.4972836,944.9522328,945.4972836,80.95238095,1575483120,1575483126,5.783439875,1575483117,1575483120,,,s9,1,44,m,expert radiologist,2019_Dec_04_1156,AdjustEyeTrack,3.1.5,59.70669789
72,Stimuli/Morph72.JPG,Stimuli/Morph72.png,Stimuli/BlurLevel5/BlurEditedMorph72,Stimuli/BlurLevel5/BlurEditedMorph72.png,Stimuli/BlurLevel5/NumberedMorphs/BlurEditedMorph72.png,Stimuli/BlurLevel5/OriginalBlur/BlurEditedMorph72.png,Stimuli/BlurMorphTrio/EditedMorph72.png,020227right.gif,Stimuli/normal_thumbnails/72right.gif,,,,,1,0,1,0,0,36,36,71,,,,,,,,,,,,,,,,,,,,,,,92,37,2,152,-2.207368982,1.173678907,72,Experiment,,,,,,,,,44,76,-4,-4,,,,,,,,,,,,,,,954.3835144,954.8805123,954.3835144,954.8805123,94.55782313,1575483129,1575483132,2.935262918,1575483126,1575483129,,,s9,1,44,m,expert radiologist,2019_Dec_04_1156,AdjustEyeTrack,3.1.5,59.70669789
50,Stimuli/Morph50.JPG,Stimuli/Morph50.png,Stimuli/BlurLevel5/BlurEditedMorph50,Stimuli/BlurLevel5/BlurEditedMorph50.png,Stimuli/BlurLevel5/NumberedMorphs/BlurEditedMorph50.png,Stimuli/BlurLevel5/OriginalBlur/BlurEditedMorph50.png,Stimuli/BlurMorphTrio/EditedMorph50.png,010142right.gif,Stimuli/normal_thumbnails/50right.gif,,,,,1,0,1,0,0,37,37,49,,,,,,,,,,,,,,,,,,,,,,,83,38,2,133,-1.7049959,1.828384254,50,Experiment,,,,,,,,,82,56,-6,-6,,,,,,,,,,,,,,,960.3145516,960.8319099,960.3145516,960.8319099,91.83673469,1575483135,1575483138,2.732350826,1575483133,1575483135,,,s9,1,44,m,expert radiologist,2019_Dec_04_1156,AdjustEyeTrack,3.1.5,59.70669789
89,Stimuli/Morph89.JPG,Stimuli/Morph89.png,Stimuli/BlurLevel5/BlurEditedMorph89,Stimuli/BlurLevel5/BlurEditedMorph89.png,Stimuli/BlurLevel5/NumberedMorphs/BlurEditedMorph89.png,Stimuli/BlurLevel5/OriginalBlur/BlurEditedMorph89.png,Stimuli/BlurMorphTrio/EditedMorph89.png,020273right.gif,Stimuli/normal_thumbnails/89right.gif,,,,,1,0,1,0,0,38,38,88,,,,,,,,,,,,,,,,,,,,,,,13,39,2,128,-1.539153688,1.970026884,89,Experiment,,,,,,,,,4,93,-4,-4,,,,,,,,,,,,,,,966.2492567,966.751728,966.2492567,966.751728,94.55782313,1575483141,1575483143,2.167448997,1575483138,1575483141,,,s9,1,44,m,expert radiologist,2019_Dec_04_1156,AdjustEyeTrack,3.1.5,59.70669789
46,Stimuli/Morph46.JPG,Stimuli/Morph46.png,Stimuli/BlurLevel5/BlurEditedMorph46,Stimuli/BlurLevel5/BlurEditedMorph46.png,Stimuli/BlurLevel5/NumberedMorphs/BlurEditedMorph46.png,Stimuli/BlurLevel5/OriginalBlur/BlurEditedMorph46.png,Stimuli/BlurMorphTrio/EditedMorph46.png,010128right.gif,Stimuli/normal_thumbnails/46right.gif,,,,,1,0,1,0,0,39,39,45,,,,,,,,,,,,,,,,,,,,,,,86,40,2,307,1.504537558,-1.996588775,46,Experiment,,,,,,,,,60,54,-8,-8,,,,,,,,,,,,,,,971.1388299,971.6690409,971.1388299,971.6690409,89.11564626,1575483146,1575483148,1.748217106,1575483144,1575483146,,,s9,1,44,m,expert radiologist,2019_Dec_04_1156,AdjustEyeTrack,3.1.5,59.70669789
58,Stimuli/Morph58.JPG,Stimuli/Morph58.png,Stimuli/BlurLevel5/BlurEditedMorph58,Stimuli/BlurLevel5/BlurEditedMorph58.png,Stimuli/BlurLevel5/NumberedMorphs/BlurEditedMorph58.png,Stimuli/BlurLevel5/OriginalBlur/BlurEditedMorph58.png,Stimuli/BlurMorphTrio/EditedMorph58.png,010159right.gif,Stimuli/normal_thumbnails/58right.gif,,,,,1,0,1,0,0,40,40,57,,,,,,,,,,,,,,,,,,,,,,,60,41,2,205,-2.265769468,-1.056545654,58,Experiment,,,,,,,,,123,56,2,2,,,,,,,,,,,,,,,976.1652079,976.700104,976.1652079,976.700104,97.27891156,1575483151,1575483154,3.002481937,1575483148,1575483151,,,s9,1,44,m,expert radiologist,2019_Dec_04_1156,AdjustEyeTrack,3.1.5,59.70669789
12,Stimuli/Morph12.JPG,Stimuli/Morph12.png,Stimuli/BlurLevel5/BlurEditedMorph12,Stimuli/BlurLevel5/BlurEditedMorph12.png,Stimuli/BlurLevel5/NumberedMorphs/BlurEditedMorph12.png,Stimuli/BlurLevel5/OriginalBlur/BlurEditedMorph12.png,Stimuli/BlurMorphTrio/EditedMorph12.png,010026right.gif,Stimuli/normal_thumbnails/12right.gif,,,,,1,0,1,0,0,41,41,11,,,,,,,,,,,,,,,,,,,,,,,85,42,2,114,-1.016841608,2.283863644,12,Experiment,,,,,,,,,19,19,-7,-7,,,,,,,,,,,,,,,981.6142546,982.1297916,981.6142546,982.1297916,90.47619048,1575483157,1575483159,2.316375971,1575483154,1575483157,,,s9,1,44,m,expert radiologist,2019_Dec_04_1156,AdjustEyeTrack,3.1.5,59.70669789
100,Stimuli/Morph100.JPG,Stimuli/Morph100.png,Stimuli/BlurLevel5/BlurEditedMorph100,Stimuli/BlurLevel5/BlurEditedMorph100.png,Stimuli/BlurLevel5/NumberedMorphs/BlurEditedMorph100.png,Stimuli/BlurLevel5/OriginalBlur/BlurEditedMorph100.png,Stimuli/BlurMorphTrio/EditedMorph100.png,020297right.gif,Stimuli/normal_thumbnails/100right.gif,,,,,1,0,1,0,0,42,42,99,,,,,,,,,,,,,,,,,,,,,,,4,43,2,123,-1.361597588,2.09667642,100,Experiment,,,,,,,,,79,79,21,21,,,,,,,,,,,,,,,986.9159274,987.4320507,986.9159274,987.4320507,71.42857143,1575483162,1575483164,1.666166067,1575483159,1575483162,,,s9,1,44,m,expert radiologist,2019_Dec_04_1156,AdjustEyeTrack,3.1.5,59.70669789
9,Stimuli/Morph9.JPG,Stimuli/Morph9.png,Stimuli/BlurLevel5/BlurEditedMorph9,Stimuli/BlurLevel5/BlurEditedMorph9.png,Stimuli/BlurLevel5/NumberedMorphs/BlurEditedMorph9.png,Stimuli/BlurLevel5/OriginalBlur/BlurEditedMorph9.png,Stimuli/BlurMorphTrio/EditedMorph9.png,010015right.gif,Stimuli/normal_thumbnails/9right.gif,,,,,1,0,1,0,0,43,43,8,,,,,,,,,,,,,,,,,,,,,,,89,44,2,213,-2.09667642,-1.361597588,9,Experiment,,,,,,,,,66,10,-1,-1,,,,,,,,,,,,,,,991.4757621,991.9851965,991.4757621,991.9851965,98.63945578,1575483166,1575483172,5.303420782,1575483164,1575483166,,,s9,1,44,m,expert radiologist,2019_Dec_04_1156,AdjustEyeTrack,3.1.5,59.70669789
80,Stimuli/Morph80.JPG,Stimuli/Morph80.png,Stimuli/BlurLevel5/BlurEditedMorph80,Stimuli/BlurLevel5/BlurEditedMorph80.png,Stimuli/BlurLevel5/NumberedMorphs/BlurEditedMorph80.png,Stimuli/BlurLevel5/OriginalBlur/BlurEditedMorph80.png,Stimuli/BlurMorphTrio/EditedMorph80.png,020240right.gif,Stimuli/normal_thumbnails/80right.gif,,,,,1,0,1,0,0,44,44,79,,,,,,,,,,,,,,,,,,,,,,,25,45,2,216,-2.022542486,-1.469463131,80,Experiment,,,,,,,,,96,81,-1,-1,,,,,,,,,,,,,,,999.4033175,999.9310382,999.4033175,999.9310382,98.63945578,1575483174,1575483176,1.914460897,1575483172,1575483174,,,s9,1,44,m,expert radiologist,2019_Dec_04_1156,AdjustEyeTrack,3.1.5,59.70669789
20,Stimuli/Morph20.JPG,Stimuli/Morph20.png,Stimuli/BlurLevel5/BlurEditedMorph20,Stimuli/BlurLevel5/BlurEditedMorph20.png,Stimuli/BlurLevel5/NumberedMorphs/BlurEditedMorph20.png,Stimuli/BlurLevel5/OriginalBlur/BlurEditedMorph20.png,Stimuli/BlurMorphTrio/EditedMorph20.png,010046right.gif,Stimuli/normal_thumbnails/20right.gif,,,,,1,0,1,0,0,45,45,19,,,,,,,,,,,,,,,,,,,,,,,72,46,2,53,1.504537558,1.996588775,20,Experiment,,,,,,,,,116,13,7,7,,,,,,,,,,,,,,,1004.223439,1004.730929,1004.223439,1004.730929,90.47619048,1575483179,1575483181,2.133949995,1575483177,1575483179,,,s9,1,44,m,expert radiologist,2019_Dec_04_1156,AdjustEyeTrack,3.1.5,59.70669789
21,Stimuli/Morph21.JPG,Stimuli/Morph21.png,Stimuli/BlurLevel5/BlurEditedMorph21,Stimuli/BlurLevel5/BlurEditedMorph21.png,Stimuli/BlurLevel5/NumberedMorphs/BlurEditedMorph21.png,Stimuli/BlurLevel5/OriginalBlur/BlurEditedMorph21.png,Stimuli/BlurMorphTrio/EditedMorph21.png,010049right.gif,Stimuli/normal_thumbnails/21right.gif,,,,,1,0,1,0,0,46,46,20,,,,,,,,,,,,,,,,,,,,,,,21,47,2,296,1.095927867,-2.246985116,21,Experiment,,,,,,,,,121,26,-5,-5,,,,,,,,,,,,,,,1008.820204,1009.349945,1008.820204,1009.349945,93.19727891,1575483184,1575483193,9.466521978,1575483182,1575483184,,,s9,1,44,m,expert radiologist,2019_Dec_04_1156,AdjustEyeTrack,3.1.5,59.70669789
19,Stimuli/Morph19.JPG,Stimuli/Morph19.png,Stimuli/BlurLevel5/BlurEditedMorph19,Stimuli/BlurLevel5/BlurEditedMorph19.png,Stimuli/BlurLevel5/NumberedMorphs/BlurEditedMorph19.png,Stimuli/BlurLevel5/OriginalBlur/BlurEditedMorph19.png,Stimuli/BlurMorphTrio/EditedMorph19.png,010045right.gif,Stimuli/normal_thumbnails/19right.gif,,,,,1,0,1,0,0,47,47,18,,,,,,,,,,,,,,,,,,,,,,,87,48,2,226,-1.736645926,-1.798349501,19,Experiment,,,,,,,,,26,19,0,0,,,,,,,,,,,,,,,1021.153075,1021.663574,1021.153075,1021.663574,100,1575483196,1575483198,1.699871063,1575483194,1575483196,,,s9,1,44,m,expert radiologist,2019_Dec_04_1156,AdjustEyeTrack,3.1.5,59.70669789
131,Stimuli/Morph131.JPG,Stimuli/Morph131.png,Stimuli/BlurLevel5/BlurEditedMorph131,Stimuli/BlurLevel5/BlurEditedMorph131.png,Stimuli/BlurLevel5/NumberedMorphs/BlurEditedMorph131.png,Stimuli/BlurLevel5/OriginalBlur/BlurEditedMorph131.png,Stimuli/BlurMorphTrio/EditedMorph131.png,None,None,,,,,1,0,1,0,0,48,48,130,,,,,,,,,,,,,,,,,,,,,,,29,49,2,214,-2.072593931,-1.397982259,131,Experiment,,,,,,,,,12,3,128,-19,,,,,,,,,,,,,,,1026.08593,1026.582423,1026.08593,1026.582423,74.14965986,1575483201,1575483202,1.133137226,1575483198,1575483201,,,s9,1,44,m,expert radiologist,2019_Dec_04_1156,AdjustEyeTrack,3.1.5,59.70669789
129,Stimuli/Morph129.JPG,Stimuli/Morph129.png,Stimuli/BlurLevel5/BlurEditedMorph129,Stimuli/BlurLevel5/BlurEditedMorph129.png,Stimuli/BlurLevel5/NumberedMorphs/BlurEditedMorph129.png,Stimuli/BlurLevel5/OriginalBlur/BlurEditedMorph129.png,Stimuli/BlurMorphTrio/EditedMorph129.png,None,None,,,,,1,0,1,0,0,49,49,128,,,,,,,,,,,,,,,,,,,,,,,44,50,2,338,2.317959636,-0.936516484,129,Experiment,,,,,,,,,46,147,-18,-18,,,,,,,,,,,,,,,1030.218673,1030.747021,1030.218673,1030.747021,75.51020408,1575483205,1575483209,3.3654809,1575483202,1575483205,,,s9,1,44,m,expert radiologist,2019_Dec_04_1156,AdjustEyeTrack,3.1.5,59.70669789
27,Stimuli/Morph27.JPG,Stimuli/Morph27.png,Stimuli/BlurLevel5/BlurEditedMorph27,Stimuli/BlurLevel5/BlurEditedMorph27.png,Stimuli/BlurLevel5/NumberedMorphs/BlurEditedMorph27.png,Stimuli/BlurLevel5/OriginalBlur/BlurEditedMorph27.png,Stimuli/BlurMorphTrio/EditedMorph27.png,010072right.gif,Stimuli/normal_thumbnails/27right.gif,,,,,1,0,1,0,0,50,50,26,,,,,,,,,,,,,,,,,,,,,,,88,51,2,330,2.165063509,-1.25,27,Experiment,,,,,,,,,91,26,1,1,,,,,,,,,,,,,,,1036.60447,1037.116703,1036.60447,1037.116703,98.63945578,1575483212,1575483216,4.299694777,1575483209,1575483212,,,s9,1,44,m,expert radiologist,2019_Dec_04_1156,AdjustEyeTrack,3.1.5,59.70669789
107,Stimuli/Morph107.JPG,Stimuli/Morph107.png,Stimuli/BlurLevel5/BlurEditedMorph107,Stimuli/BlurLevel5/BlurEditedMorph107.png,Stimuli/BlurLevel5/NumberedMorphs/BlurEditedMorph107.png,Stimuli/BlurLevel5/OriginalBlur/BlurEditedMorph107.png,Stimuli/BlurMorphTrio/EditedMorph107.png,None,None,,,,,1,0,1,0,0,51,51,106,,,,,,,,,,,,,,,,,,,,,,,1,52,2,267,-0.130839891,-2.496573837,107,Experiment,,,,,,,,,22,97,10,10,,,,,,,,,,,,,,,1042.916498,1043.430885,1042.916498,1043.430885,86.39455782,1575483218,1575483222,4.516535044,1575483216,1575483218,,,s9,1,44,m,expert radiologist,2019_Dec_04_1156,AdjustEyeTrack,3.1.5,59.70669789
37,Stimuli/Morph37.JPG,Stimuli/Morph37.png,Stimuli/BlurLevel5/BlurEditedMorph37,Stimuli/BlurLevel5/BlurEditedMorph37.png,Stimuli/BlurLevel5/NumberedMorphs/BlurEditedMorph37.png,Stimuli/BlurLevel5/OriginalBlur/BlurEditedMorph37.png,Stimuli/BlurMorphTrio/EditedMorph37.png,010097right.gif,Stimuli/normal_thumbnails/37right.gif,,,,,1,0,1,0,0,52,52,36,,,,,,,,,,,,,,,,,,,,,,,95,53,2,41,1.886773951,1.640147572,37,Experiment,,,,,,,,,94,32,5,5,,,,,,,,,,,,,,,1050.128672,1050.629151,1050.128672,1050.629151,93.19727891,1575483225,1575483228,3.045650005,1575483223,1575483225,,,s9,1,44,m,expert radiologist,2019_Dec_04_1156,AdjustEyeTrack,3.1.5,59.70669789
14,Stimuli/Morph14.JPG,Stimuli/Morph14.png,Stimuli/BlurLevel5/BlurEditedMorph14,Stimuli/BlurLevel5/BlurEditedMorph14.png,Stimuli/BlurLevel5/NumberedMorphs/BlurEditedMorph14.png,Stimuli/BlurLevel5/OriginalBlur/BlurEditedMorph14.png,Stimuli/BlurMorphTrio/EditedMorph14.png,010030right.gif,Stimuli/normal_thumbnails/14right.gif,,,,,1,0,1,0,0,53,53,13,,,,,,,,,,,,,,,,,,,,,,,70,54,2,115,-1.056545654,2.265769468,14,Experiment,,,,,,,,,135,26,-12,-12,,,,,,,,,,,,,,,1055.835768,1056.369333,1055.835768,1056.369333,83.67346939,1575483231,1575483236,5.049733162,1575483228,1575483231,,,s9,1,44,m,expert radiologist,2019_Dec_04_1156,AdjustEyeTrack,3.1.5,59.70669789
114,Stimuli/Morph114.JPG,Stimuli/Morph114.png,Stimuli/BlurLevel5/BlurEditedMorph114,Stimuli/BlurLevel5/BlurEditedMorph114.png,Stimuli/BlurLevel5/NumberedMorphs/BlurEditedMorph114.png,Stimuli/BlurLevel5/OriginalBlur/BlurEditedMorph114.png,Stimuli/BlurMorphTrio/EditedMorph114.png,None,None,,,,,1,0,1,0,0,54,54,113,,,,,,,,,,,,,,,,,,,,,,,8,55,2,198,-2.377641291,-0.772542486,114,Experiment,,,,,,,,,136,88,26,26,,,,,,,,,,,,,,,1063.930951,1064.446926,1063.930951,1064.446926,64.62585034,1575483239,1575483243,4.565387964,1575483236,1575483239,,,s9,1,44,m,expert radiologist,2019_Dec_04_1156,AdjustEyeTrack,3.1.5,59.70669789
113,Stimuli/Morph113.JPG,Stimuli/Morph113.png,Stimuli/BlurLevel5/BlurEditedMorph113,Stimuli/BlurLevel5/BlurEditedMorph113.png,Stimuli/BlurLevel5/NumberedMorphs/BlurEditedMorph113.png,Stimuli/BlurLevel5/OriginalBlur/BlurEditedMorph113.png,Stimuli/BlurMorphTrio/EditedMorph113.png,None,None,,,,,1,0,1,0,0,55,55,112,,,,,,,,,,,,,,,,,,,,,,,4,56,2,176,-2.493910126,0.174391184,113,Experiment,,,,,,,,,102,102,11,11,,,,,,,,,,,,,,,1071.819862,1072.313104,1071.819862,1072.313104,85.03401361,1575483247,1575483248,1.565379858,1575483244,1575483247,,,s9,1,44,m,expert radiologist,2019_Dec_04_1156,AdjustEyeTrack,3.1.5,59.70669789
77,Stimuli/Morph77.JPG,Stimuli/Morph77.png,Stimuli/BlurLevel5/BlurEditedMorph77,Stimuli/BlurLevel5/BlurEditedMorph77.png,Stimuli/BlurLevel5/NumberedMorphs/BlurEditedMorph77.png,Stimuli/BlurLevel5/OriginalBlur/BlurEditedMorph77.png,Stimuli/BlurMorphTrio/EditedMorph77.png,020235right.gif,Stimuli/normal_thumbnails/77right.gif,,,,,1,0,1,0,0,56,56,76,,,,,,,,,,,,,,,,,,,,,,,21,57,2,229,-1.640147572,-1.886773951,77,Experiment,,,,,,,,,107,107,-30,-30,,,,,,,,,,,,,,,1076.229623,1076.729661,1076.229623,1076.729661,59.18367347,1575483251,1575483252,1.231220245,1575483249,1575483251,,,s9,1,44,m,expert radiologist,2019_Dec_04_1156,AdjustEyeTrack,3.1.5,59.70669789
