stimulusID,stimulus_JPG,stimulusPath,stimulusPath2,stimulusPath3,stimulusPath4,stimulusPath5,stimulusPath6,xRayOriginal,xRayPath,Training.thisRepN,Training.thisTrialN,Training.thisN,Training.thisIndex,Blocks.thisRepN,Blocks.thisTrialN,Blocks.thisN,Blocks.thisIndex,Trials.thisRepN,Trials.thisTrialN,Trials.thisN,Trials.thisIndex,text_2.started,text_2.stopped,image.started,image.stopped,image_2.started,image_2.stopped,image_3.started,image_3.stopped,image_4.started,image_4.stopped,image_6.started,image_6.stopped,image_7.started,image_7.stopped,image_8.started,image_8.stopped,image_9.started,image_9.stopped,image_10.started,image_10.stopped,image_12.started,image_12.stopped,xrayID,trialNumber,blockNumber,stimLocationDeg,stimXCoord,stimYCoord,stimulusID,blockType,trainingXray.started,trainingXray.stopped,trainingTumors.started,trainingTumors.stopped,trainingScore%,startTrainingRespTime,endTrainingRespTime,trainingRT,morphTrack,morphID,errorRaw,errorCorrected,startTrainingStimTime,endTrainingStimTime,key_resp_3.keys,key_resp_3.rt,text.started,text.stopped,text_3.started,text_3.stopped,text_4.started,text_4.stopped,key_resp_5.keys,key_resp_5.rt,key_resp_5.started,key_resp_5.stopped,xray1.started,xray1.stopped,tumors.started,tumors.stopped,trialCorrect%,startRespTime,endRespTime,RT,startStimTime,endStimTime,key_resp.keys,key_resp.rt,participant,session,age,gender,status,date,expName,psychopyVersion,frameRate
124,Stimuli/Morph124.JPG,Stimuli/Morph124.png,Stimuli/BlurLevel5/BlurEditedMorph124,Stimuli/BlurLevel5/BlurEditedMorph124.png,Stimuli/BlurLevel5/NumberedMorphs/BlurEditedMorph124.png,Stimuli/BlurLevel5/OriginalBlur/BlurEditedMorph124.png,Stimuli/BlurMorphTrio/EditedMorph124.png,None,None,0,0,0,123,,,,,,,,,20.62385465,None,20.62385465,None,20.62385465,None,20.62385465,None,20.62385465,None,20.62385465,None,20.62385465,None,20.62385465,None,20.62385465,None,20.62385465,None,20.62385465,None,33,-100,-100,114,-1.016841608,2.283863644,124,training,47.52735877,48.05622717,47.52735877,48.05622717,74.14965986,1575484913,1575484915,2.46714592,104,105,19,19,1575484910,1575484913,space,2.918028864,,,,,,,,,,,,,,,,,,,,,,,s10,1,31,male,fellow,2019_Dec_04_1241,AdjustEyeTrack,3.1.5,59.76481148
3,Stimuli/Morph3.JPG,Stimuli/Morph3.png,Stimuli/BlurLevel5/BlurEditedMorph3,Stimuli/BlurLevel5/BlurEditedMorph3.png,Stimuli/BlurLevel5/NumberedMorphs/BlurEditedMorph3.png,Stimuli/BlurLevel5/OriginalBlur/BlurEditedMorph3.png,Stimuli/BlurMorphTrio/EditedMorph3.png,010009right.gif,Stimuli/normal_thumbnails/3right.gif,0,1,1,2,,,,,,,,,,,,,,,,,,,,,,,,,,,,,,,35,-100,-100,331,2.186549268,-1.212024051,3,training,55.22547343,55.73999974,55.22547343,55.73999974,97.27891156,1575484920,1575484923,2.934053659,26,1,2,2,1575484918,1575484920,space,3.877813979,,,,,,,,,,,,,,,,,,,,,,,s10,1,31,male,fellow,2019_Dec_04_1241,AdjustEyeTrack,3.1.5,59.76481148
44,Stimuli/Morph44.JPG,Stimuli/Morph44.png,Stimuli/BlurLevel5/BlurEditedMorph44,Stimuli/BlurLevel5/BlurEditedMorph44.png,Stimuli/BlurLevel5/NumberedMorphs/BlurEditedMorph44.png,Stimuli/BlurLevel5/OriginalBlur/BlurEditedMorph44.png,Stimuli/BlurMorphTrio/EditedMorph44.png,010126right.gif,Stimuli/normal_thumbnails/44right.gif,0,2,2,43,,,,,,,,,,,,,,,,,,,,,,,,,,,,,,,79,-100,-100,113,-0.976827821,2.301262134,44,training,64.25035856,64.77367356,64.25035856,64.77367356,89.11564626,1575484929,1575484934,4.882681131,131,52,-8,-8,1575484927,1575484929,space,2.47532758,,,,,,,,,,,,,,,,,,,,,,,s10,1,31,male,fellow,2019_Dec_04_1241,AdjustEyeTrack,3.1.5,59.76481148
90,Stimuli/Morph90.JPG,Stimuli/Morph90.png,Stimuli/BlurLevel5/BlurEditedMorph90,Stimuli/BlurLevel5/BlurEditedMorph90.png,Stimuli/BlurLevel5/NumberedMorphs/BlurEditedMorph90.png,Stimuli/BlurLevel5/OriginalBlur/BlurEditedMorph90.png,Stimuli/BlurMorphTrio/EditedMorph90.png,020275right.gif,Stimuli/normal_thumbnails/90right.gif,0,3,3,89,,,,,,,,,,,,,,,,,,,,,,,,,,,,,,,81,-100,-100,301,1.287595187,-2.142918252,90,training,73.9103002,74.40709705,73.9103002,74.40709705,76.8707483,1575484939,1575484940,1.151055813,130,107,-17,-17,1575484937,1575484939,space,4.762477211,,,,,,,,,,,,,,,,,,,,,,,s10,1,31,male,fellow,2019_Dec_04_1241,AdjustEyeTrack,3.1.5,59.76481148
86,Stimuli/Morph86.JPG,Stimuli/Morph86.png,Stimuli/BlurLevel5/BlurEditedMorph86,Stimuli/BlurLevel5/BlurEditedMorph86.png,Stimuli/BlurLevel5/NumberedMorphs/BlurEditedMorph86.png,Stimuli/BlurLevel5/OriginalBlur/BlurEditedMorph86.png,Stimuli/BlurMorphTrio/EditedMorph86.png,020266right.gif,Stimuli/normal_thumbnails/86right.gif,0,4,4,85,,,,,,,,,,,,,,,,,,,,,,,,,,,,,,,44,-100,-100,50,1.606969024,1.915111108,86,training,82.44521271,82.95880398,82.44521271,82.95880398,87.75510204,1575484948,1575484950,2.065943003,59,95,-9,-9,1575484945,1575484948,space,1.868556093,,,,,,,,,,,,,,,,,,,,,,,s10,1,31,male,fellow,2019_Dec_04_1241,AdjustEyeTrack,3.1.5,59.76481148
50,Stimuli/Morph50.JPG,Stimuli/Morph50.png,Stimuli/BlurLevel5/BlurEditedMorph50,Stimuli/BlurLevel5/BlurEditedMorph50.png,Stimuli/BlurLevel5/NumberedMorphs/BlurEditedMorph50.png,Stimuli/BlurLevel5/OriginalBlur/BlurEditedMorph50.png,Stimuli/BlurMorphTrio/EditedMorph50.png,010142right.gif,Stimuli/normal_thumbnails/50right.gif,0,5,5,49,,,,,,,,,,,,,,,,,,,,,,,,,,,,,,,1,-100,-100,334,2.246985116,-1.095927867,50,training,88.19379267,88.70593022,88.19379267,88.70593022,89.11564626,1575484953,1575484958,4.465862751,1,42,8,8,1575484952,1575484953,space,3.329022237,,,,,,,,,,,,,,,,,,,,,,,s10,1,31,male,fellow,2019_Dec_04_1241,AdjustEyeTrack,3.1.5,59.76481148
52,Stimuli/Morph52.JPG,Stimuli/Morph52.png,Stimuli/BlurLevel5/BlurEditedMorph52,Stimuli/BlurLevel5/BlurEditedMorph52.png,Stimuli/BlurLevel5/NumberedMorphs/BlurEditedMorph52.png,Stimuli/BlurLevel5/OriginalBlur/BlurEditedMorph52.png,Stimuli/BlurMorphTrio/EditedMorph52.png,010148right.gif,Stimuli/normal_thumbnails/52right.gif,0,6,6,51,,,,,,,,,,,,,,,,,,,,,,,,,,,,,,,29,-100,-100,270,-4.59E-16,-2.5,52,training,98.49789977,99.04017739,98.49789977,99.04017739,65.98639456,1575484964,1575484967,2.982676983,131,27,25,25,1575484961,1575484964,space,1.13065334,,,,,,,,,,,,,,,,,,,,,,,s10,1,31,male,fellow,2019_Dec_04_1241,AdjustEyeTrack,3.1.5,59.76481148
146,Stimuli/Morph146.JPG,Stimuli/Morph146.png,Stimuli/BlurLevel5/BlurEditedMorph146,Stimuli/BlurLevel5/BlurEditedMorph146.png,Stimuli/BlurLevel5/NumberedMorphs/BlurEditedMorph146.png,Stimuli/BlurLevel5/OriginalBlur/BlurEditedMorph146.png,Stimuli/BlurMorphTrio/EditedMorph146.png,None,None,0,7,7,145,,,,,,,,,,,,,,,,,,,,,,,,,,,,,,,78,-100,-100,84,0.261321158,2.486304738,146,training,105.0417095,105.5405395,105.0417095,105.5405395,85.03401361,1575484970,1575484974,3.83302021,16,135,11,11,1575484968,1575484970,space,0.80542345,,,,,,,,,,,,,,,,,,,,,,,s10,1,31,male,fellow,2019_Dec_04_1241,AdjustEyeTrack,3.1.5,59.76481148
77,Stimuli/Morph77.JPG,Stimuli/Morph77.png,Stimuli/BlurLevel5/BlurEditedMorph77,Stimuli/BlurLevel5/BlurEditedMorph77.png,Stimuli/BlurLevel5/NumberedMorphs/BlurEditedMorph77.png,Stimuli/BlurLevel5/OriginalBlur/BlurEditedMorph77.png,Stimuli/BlurMorphTrio/EditedMorph77.png,020235right.gif,Stimuli/normal_thumbnails/77right.gif,0,8,8,76,,,,,,,,,,,,,,,,,,,,,,,,,,,,,,,5,-100,-100,289,0.813920386,-2.363796439,77,training,112.1995556,112.7063067,112.1995556,112.7063067,78.23129252,1575484977,1575484981,3.366153955,7,93,-16,-16,1575484975,1575484977,space,1.142630538,,,,,,,,,,,,,,,,,,,,,,,s10,1,31,male,fellow,2019_Dec_04_1241,AdjustEyeTrack,3.1.5,59.76481148
121,Stimuli/Morph121.JPG,Stimuli/Morph121.png,Stimuli/BlurLevel5/BlurEditedMorph121,Stimuli/BlurLevel5/BlurEditedMorph121.png,Stimuli/BlurLevel5/NumberedMorphs/BlurEditedMorph121.png,Stimuli/BlurLevel5/OriginalBlur/BlurEditedMorph121.png,Stimuli/BlurMorphTrio/EditedMorph121.png,None,None,0,9,9,120,,,,,,,,,,,,,,,,,,,,,,,,,,,,,,,18,-100,-100,307,1.504537558,-1.996588775,121,training,119.0314376,119.5394018,119.0314376,119.5394018,97.27891156,1575484984,1575484990,5.683244944,79,123,-2,-2,1575484982,1575484984,space,1.971999642,,,,,,,,,,,,,,,,,,,,,,,s10,1,31,male,fellow,2019_Dec_04_1241,AdjustEyeTrack,3.1.5,59.76481148
,,,,,,,,,,,,,,,,,,,,,,,,,,,,,,,,,,,,,,,,,,,,,-100,-100,,,,,training,,,,,,,,,,,,,,,,,128.3559712,None,128.3559712,None,128.3559712,None,space,22.66613208,128.3559712,None,,,,,,,,,,,,,s10,1,31,male,fellow,2019_Dec_04_1241,AdjustEyeTrack,3.1.5,59.76481148
68,Stimuli/Morph68.JPG,Stimuli/Morph68.png,Stimuli/BlurLevel5/BlurEditedMorph68,Stimuli/BlurLevel5/BlurEditedMorph68.png,Stimuli/BlurLevel5/NumberedMorphs/BlurEditedMorph68.png,Stimuli/BlurLevel5/OriginalBlur/BlurEditedMorph68.png,Stimuli/BlurMorphTrio/EditedMorph68.png,020218right.gif,Stimuli/normal_thumbnails/68right.gif,,,,,0,0,0,0,0,0,0,67,,,,,,,,,,,,,,,,,,,,,,,24,1,1,327,2.09667642,-1.361597588,68,Experiment,,,,,,,,,64,113,-45,-45,,,,,,,,,,,,,,,152.3583029,152.8894374,152.3583029,152.8894374,38.7755102,1575485018,1575485021,3.382568121,1575485015,1575485018,,,s10,1,31,male,fellow,2019_Dec_04_1241,AdjustEyeTrack,3.1.5,59.76481148
121,Stimuli/Morph121.JPG,Stimuli/Morph121.png,Stimuli/BlurLevel5/BlurEditedMorph121,Stimuli/BlurLevel5/BlurEditedMorph121.png,Stimuli/BlurLevel5/NumberedMorphs/BlurEditedMorph121.png,Stimuli/BlurLevel5/OriginalBlur/BlurEditedMorph121.png,Stimuli/BlurMorphTrio/EditedMorph121.png,None,None,,,,,0,0,0,0,0,1,1,120,,,,,,,,,,,,,,,,,,,,,,,63,2,1,221,-1.886773951,-1.640147572,121,Experiment,,,,,,,,,140,109,12,12,,,,,,,,,,,,,,,158.6058307,159.1058444,158.6058307,159.1058444,83.67346939,1575485024,1575485026,2.16539979,1575485021,1575485024,,,s10,1,31,male,fellow,2019_Dec_04_1241,AdjustEyeTrack,3.1.5,59.76481148
124,Stimuli/Morph124.JPG,Stimuli/Morph124.png,Stimuli/BlurLevel5/BlurEditedMorph124,Stimuli/BlurLevel5/BlurEditedMorph124.png,Stimuli/BlurLevel5/NumberedMorphs/BlurEditedMorph124.png,Stimuli/BlurLevel5/OriginalBlur/BlurEditedMorph124.png,Stimuli/BlurMorphTrio/EditedMorph124.png,None,None,,,,,0,0,0,0,0,2,2,123,,,,,,,,,,,,,,,,,,,,,,,81,3,1,182,-2.498477068,-0.087248742,124,Experiment,,,,,,,,,142,102,22,22,,,,,,,,,,,,,,,163.2890849,163.7916275,163.2890849,163.7916275,70.06802721,1575485028,1575485032,4.01527071,1575485026,1575485028,,,s10,1,31,male,fellow,2019_Dec_04_1241,AdjustEyeTrack,3.1.5,59.76481148
53,Stimuli/Morph53.JPG,Stimuli/Morph53.png,Stimuli/BlurLevel5/BlurEditedMorph53,Stimuli/BlurLevel5/BlurEditedMorph53.png,Stimuli/BlurLevel5/NumberedMorphs/BlurEditedMorph53.png,Stimuli/BlurLevel5/OriginalBlur/BlurEditedMorph53.png,Stimuli/BlurMorphTrio/EditedMorph53.png,010149right.gif,Stimuli/normal_thumbnails/53right.gif,,,,,0,0,0,0,0,3,3,52,,,,,,,,,,,,,,,,,,,,,,,82,4,1,240,-1.25,-2.165063509,53,Experiment,,,,,,,,,60,47,6,6,,,,,,,,,,,,,,,170.1557906,170.6563865,170.1557906,170.6563865,91.83673469,1575485035,1575485040,4.983588219,1575485033,1575485035,,,s10,1,31,male,fellow,2019_Dec_04_1241,AdjustEyeTrack,3.1.5,59.76481148
45,Stimuli/Morph45.JPG,Stimuli/Morph45.png,Stimuli/BlurLevel5/BlurEditedMorph45,Stimuli/BlurLevel5/BlurEditedMorph45.png,Stimuli/BlurLevel5/NumberedMorphs/BlurEditedMorph45.png,Stimuli/BlurLevel5/OriginalBlur/BlurEditedMorph45.png,Stimuli/BlurMorphTrio/EditedMorph45.png,010127right.gif,Stimuli/normal_thumbnails/45right.gif,,,,,0,0,0,0,0,4,4,44,,,,,,,,,,,,,,,,,,,,,,,95,5,1,75,0.647047613,2.414814566,45,Experiment,,,,,,,,,78,45,0,0,,,,,,,,,,,,,,,178.397996,178.9049816,178.397996,178.9049816,100,1575485044,1575485046,2.283046961,1575485041,1575485044,,,s10,1,31,male,fellow,2019_Dec_04_1241,AdjustEyeTrack,3.1.5,59.76481148
85,Stimuli/Morph85.JPG,Stimuli/Morph85.png,Stimuli/BlurLevel5/BlurEditedMorph85,Stimuli/BlurLevel5/BlurEditedMorph85.png,Stimuli/BlurLevel5/NumberedMorphs/BlurEditedMorph85.png,Stimuli/BlurLevel5/OriginalBlur/BlurEditedMorph85.png,Stimuli/BlurMorphTrio/EditedMorph85.png,020264right.gif,Stimuli/normal_thumbnails/85right.gif,,,,,0,0,0,0,0,5,5,84,,,,,,,,,,,,,,,,,,,,,,,56,6,1,34,2.072593931,1.397982259,85,Experiment,,,,,,,,,95,111,-26,-26,,,,,,,,,,,,,,,183.5955534,184.1238269,183.5955534,184.1238269,64.62585034,1575485049,1575485052,2.732786179,1575485046,1575485049,,,s10,1,31,male,fellow,2019_Dec_04_1241,AdjustEyeTrack,3.1.5,59.76481148
73,Stimuli/Morph73.JPG,Stimuli/Morph73.png,Stimuli/BlurLevel5/BlurEditedMorph73,Stimuli/BlurLevel5/BlurEditedMorph73.png,Stimuli/BlurLevel5/NumberedMorphs/BlurEditedMorph73.png,Stimuli/BlurLevel5/OriginalBlur/BlurEditedMorph73.png,Stimuli/BlurMorphTrio/EditedMorph73.png,020230right.gif,Stimuli/normal_thumbnails/73right.gif,,,,,0,0,0,0,0,6,6,72,,,,,,,,,,,,,,,,,,,,,,,79,7,1,72,0.772542486,2.377641291,73,Experiment,,,,,,,,,23,76,-3,-3,,,,,,,,,,,,,,,188.811494,189.3210927,188.811494,189.3210927,95.91836735,1575485054,1575485056,2.333548784,1575485052,1575485054,,,s10,1,31,male,fellow,2019_Dec_04_1241,AdjustEyeTrack,3.1.5,59.76481148
32,Stimuli/Morph32.JPG,Stimuli/Morph32.png,Stimuli/BlurLevel5/BlurEditedMorph32,Stimuli/BlurLevel5/BlurEditedMorph32.png,Stimuli/BlurLevel5/NumberedMorphs/BlurEditedMorph32.png,Stimuli/BlurLevel5/OriginalBlur/BlurEditedMorph32.png,Stimuli/BlurMorphTrio/EditedMorph32.png,010080right.gif,Stimuli/normal_thumbnails/32right.gif,,,,,0,0,0,0,0,7,7,31,,,,,,,,,,,,,,,,,,,,,,,3,8,1,305,1.433941091,-2.047880111,32,Experiment,,,,,,,,,123,32,0,0,,,,,,,,,,,,,,,194.006955,194.5395973,194.006955,194.5395973,100,1575485059,1575485062,3.250873089,1575485057,1575485059,,,s10,1,31,male,fellow,2019_Dec_04_1241,AdjustEyeTrack,3.1.5,59.76481148
115,Stimuli/Morph115.JPG,Stimuli/Morph115.png,Stimuli/BlurLevel5/BlurEditedMorph115,Stimuli/BlurLevel5/BlurEditedMorph115.png,Stimuli/BlurLevel5/NumberedMorphs/BlurEditedMorph115.png,Stimuli/BlurLevel5/OriginalBlur/BlurEditedMorph115.png,Stimuli/BlurMorphTrio/EditedMorph115.png,None,None,,,,,0,0,0,0,0,8,8,114,,,,,,,,,,,,,,,,,,,,,,,11,9,1,159,-2.333951066,0.895919874,115,Experiment,,,,,,,,,69,112,3,3,,,,,,,,,,,,,,,200.7080222,201.237431,200.7080222,201.237431,95.91836735,1575485066,1575485068,1.966748238,1575485063,1575485066,,,s10,1,31,male,fellow,2019_Dec_04_1241,AdjustEyeTrack,3.1.5,59.76481148
48,Stimuli/Morph48.JPG,Stimuli/Morph48.png,Stimuli/BlurLevel5/BlurEditedMorph48,Stimuli/BlurLevel5/BlurEditedMorph48.png,Stimuli/BlurLevel5/NumberedMorphs/BlurEditedMorph48.png,Stimuli/BlurLevel5/OriginalBlur/BlurEditedMorph48.png,Stimuli/BlurMorphTrio/EditedMorph48.png,010131right.gif,Stimuli/normal_thumbnails/48right.gif,,,,,0,0,0,0,0,9,9,47,,,,,,,,,,,,,,,,,,,,,,,62,10,1,238,-1.324798161,-2.12012024,48,Experiment,,,,,,,,,141,44,4,4,,,,,,,,,,,,,,,205.4730799,205.9707366,205.4730799,205.9707366,94.55782313,1575485071,1575485074,3.181998253,1575485068,1575485071,,,s10,1,31,male,fellow,2019_Dec_04_1241,AdjustEyeTrack,3.1.5,59.76481148
29,Stimuli/Morph29.JPG,Stimuli/Morph29.png,Stimuli/BlurLevel5/BlurEditedMorph29,Stimuli/BlurLevel5/BlurEditedMorph29.png,Stimuli/BlurLevel5/NumberedMorphs/BlurEditedMorph29.png,Stimuli/BlurLevel5/OriginalBlur/BlurEditedMorph29.png,Stimuli/BlurMorphTrio/EditedMorph29.png,010074right.gif,Stimuli/normal_thumbnails/29right.gif,,,,,0,0,0,0,0,10,10,28,,,,,,,,,,,,,,,,,,,,,,,91,11,1,231,-1.573300978,-1.942864904,29,Experiment,,,,,,,,,75,12,17,17,,,,,,,,,,,,,,,211.5596862,212.0722204,211.5596862,212.0722204,76.8707483,1575485077,1575485082,5.166774035,1575485074,1575485077,,,s10,1,31,male,fellow,2019_Dec_04_1241,AdjustEyeTrack,3.1.5,59.76481148
42,Stimuli/Morph42.JPG,Stimuli/Morph42.png,Stimuli/BlurLevel5/BlurEditedMorph42,Stimuli/BlurLevel5/BlurEditedMorph42.png,Stimuli/BlurLevel5/NumberedMorphs/BlurEditedMorph42.png,Stimuli/BlurLevel5/OriginalBlur/BlurEditedMorph42.png,Stimuli/BlurMorphTrio/EditedMorph42.png,010121right.gif,Stimuli/normal_thumbnails/42right.gif,,,,,0,0,0,0,0,11,11,41,,,,,,,,,,,,,,,,,,,,,,,13,12,1,289,0.813920386,-2.363796439,42,Experiment,,,,,,,,,69,31,11,11,,,,,,,,,,,,,,,219.9039851,220.4425681,219.9039851,220.4425681,85.03401361,1575485085,1575485089,3.434499025,1575485082,1575485085,,,s10,1,31,male,fellow,2019_Dec_04_1241,AdjustEyeTrack,3.1.5,59.76481148
17,Stimuli/Morph17.JPG,Stimuli/Morph17.png,Stimuli/BlurLevel5/BlurEditedMorph17,Stimuli/BlurLevel5/BlurEditedMorph17.png,Stimuli/BlurLevel5/NumberedMorphs/BlurEditedMorph17.png,Stimuli/BlurLevel5/OriginalBlur/BlurEditedMorph17.png,Stimuli/BlurMorphTrio/EditedMorph17.png,010036right.gif,Stimuli/normal_thumbnails/17right.gif,,,,,0,0,0,0,0,12,12,16,,,,,,,,,,,,,,,,,,,,,,,23,13,1,348,2.445369002,-0.519779227,17,Experiment,,,,,,,,,75,4,13,13,,,,,,,,,,,,,,,226.0752991,226.5902555,226.0752991,226.5902555,82.31292517,1575485091,1575485093,1.950363874,1575485089,1575485091,,,s10,1,31,male,fellow,2019_Dec_04_1241,AdjustEyeTrack,3.1.5,59.76481148
76,Stimuli/Morph76.JPG,Stimuli/Morph76.png,Stimuli/BlurLevel5/BlurEditedMorph76,Stimuli/BlurLevel5/BlurEditedMorph76.png,Stimuli/BlurLevel5/NumberedMorphs/BlurEditedMorph76.png,Stimuli/BlurLevel5/OriginalBlur/BlurEditedMorph76.png,Stimuli/BlurMorphTrio/EditedMorph76.png,020234right.gif,Stimuli/normal_thumbnails/76right.gif,,,,,0,0,0,0,0,13,13,75,,,,,,,,,,,,,,,,,,,,,,,94,14,1,195,-2.414814566,-0.647047613,76,Experiment,,,,,,,,,60,82,-6,-6,,,,,,,,,,,,,,,231.1391976,231.690475,231.1391976,231.690475,91.83673469,1575485096,1575485101,4.615874052,1575485093,1575485096,,,s10,1,31,male,fellow,2019_Dec_04_1241,AdjustEyeTrack,3.1.5,59.76481148
61,Stimuli/Morph61.JPG,Stimuli/Morph61.png,Stimuli/BlurLevel5/BlurEditedMorph61,Stimuli/BlurLevel5/BlurEditedMorph61.png,Stimuli/BlurLevel5/NumberedMorphs/BlurEditedMorph61.png,Stimuli/BlurLevel5/OriginalBlur/BlurEditedMorph61.png,Stimuli/BlurMorphTrio/EditedMorph61.png,020201right.gif,Stimuli/normal_thumbnails/61right.gif,,,,,0,0,0,0,0,14,14,60,,,,,,,,,,,,,,,,,,,,,,,66,15,1,146,-2.072593931,1.397982259,61,Experiment,,,,,,,,,14,75,-14,-14,,,,,,,,,,,,,,,238.3729738,238.87249,238.3729738,238.87249,80.95238095,1575485104,1575485107,3.917033911,1575485101,1575485103,,,s10,1,31,male,fellow,2019_Dec_04_1241,AdjustEyeTrack,3.1.5,59.76481148
109,Stimuli/Morph109.JPG,Stimuli/Morph109.png,Stimuli/BlurLevel5/BlurEditedMorph109,Stimuli/BlurLevel5/BlurEditedMorph109.png,Stimuli/BlurLevel5/NumberedMorphs/BlurEditedMorph109.png,Stimuli/BlurLevel5/OriginalBlur/BlurEditedMorph109.png,Stimuli/BlurMorphTrio/EditedMorph109.png,None,None,,,,,0,0,0,0,0,15,15,108,,,,,,,,,,,,,,,,,,,,,,,53,16,1,281,0.477022488,-2.454067959,109,Experiment,,,,,,,,,86,93,16,16,,,,,,,,,,,,,,,245.4414162,245.9566522,245.4414162,245.9566522,78.23129252,1575485111,1575485113,2.234530687,1575485108,1575485111,,,s10,1,31,male,fellow,2019_Dec_04_1241,AdjustEyeTrack,3.1.5,59.76481148
43,Stimuli/Morph43.JPG,Stimuli/Morph43.png,Stimuli/BlurLevel5/BlurEditedMorph43,Stimuli/BlurLevel5/BlurEditedMorph43.png,Stimuli/BlurLevel5/NumberedMorphs/BlurEditedMorph43.png,Stimuli/BlurLevel5/OriginalBlur/BlurEditedMorph43.png,Stimuli/BlurMorphTrio/EditedMorph43.png,010124right.gif,Stimuli/normal_thumbnails/43right.gif,,,,,0,0,0,0,0,16,16,42,,,,,,,,,,,,,,,,,,,,,,,87,17,1,219,-1.942864904,-1.573300978,43,Experiment,,,,,,,,,32,16,27,27,,,,,,,,,,,,,,,250.3400122,250.8540069,250.3400122,250.8540069,63.26530612,1575485115,1575485118,2.316107035,1575485113,1575485115,,,s10,1,31,male,fellow,2019_Dec_04_1241,AdjustEyeTrack,3.1.5,59.76481148
23,Stimuli/Morph23.JPG,Stimuli/Morph23.png,Stimuli/BlurLevel5/BlurEditedMorph23,Stimuli/BlurLevel5/BlurEditedMorph23.png,Stimuli/BlurLevel5/NumberedMorphs/BlurEditedMorph23.png,Stimuli/BlurLevel5/OriginalBlur/BlurEditedMorph23.png,Stimuli/BlurMorphTrio/EditedMorph23.png,010063right.gif,Stimuli/normal_thumbnails/23right.gif,,,,,0,0,0,0,0,17,17,22,,,,,,,,,,,,,,,,,,,,,,,17,18,1,44,1.798349501,1.736645926,23,Experiment,,,,,,,,,109,6,17,17,,,,,,,,,,,,,,,255.8802871,256.4113899,255.8802871,256.4113899,76.8707483,1575485121,1575485124,2.93223381,1575485118,1575485121,,,s10,1,31,male,fellow,2019_Dec_04_1241,AdjustEyeTrack,3.1.5,59.76481148
20,Stimuli/Morph20.JPG,Stimuli/Morph20.png,Stimuli/BlurLevel5/BlurEditedMorph20,Stimuli/BlurLevel5/BlurEditedMorph20.png,Stimuli/BlurLevel5/NumberedMorphs/BlurEditedMorph20.png,Stimuli/BlurLevel5/OriginalBlur/BlurEditedMorph20.png,Stimuli/BlurMorphTrio/EditedMorph20.png,010046right.gif,Stimuli/normal_thumbnails/20right.gif,,,,,0,0,0,0,0,18,18,19,,,,,,,,,,,,,,,,,,,,,,,24,19,1,94,-0.174391184,2.493910126,20,Experiment,,,,,,,,,136,11,9,9,,,,,,,,,,,,,,,261.3824988,261.8901418,261.3824988,261.8901418,87.75510204,1575485127,1575485128,1.4827981,1575485124,1575485127,,,s10,1,31,male,fellow,2019_Dec_04_1241,AdjustEyeTrack,3.1.5,59.76481148
135,Stimuli/Morph135.JPG,Stimuli/Morph135.png,Stimuli/BlurLevel5/BlurEditedMorph135,Stimuli/BlurLevel5/BlurEditedMorph135.png,Stimuli/BlurLevel5/NumberedMorphs/BlurEditedMorph135.png,Stimuli/BlurLevel5/OriginalBlur/BlurEditedMorph135.png,Stimuli/BlurMorphTrio/EditedMorph135.png,None,None,,,,,0,0,0,0,0,19,19,134,,,,,,,,,,,,,,,,,,,,,,,42,20,1,298,1.173678907,-2.207368982,135,Experiment,,,,,,,,,103,147,-12,-12,,,,,,,,,,,,,,,266.0377185,266.5770049,266.0377185,266.5770049,83.67346939,1575485131,1575485133,2.09995389,1575485128,1575485131,,,s10,1,31,male,fellow,2019_Dec_04_1241,AdjustEyeTrack,3.1.5,59.76481148
59,Stimuli/Morph59.JPG,Stimuli/Morph59.png,Stimuli/BlurLevel5/BlurEditedMorph59,Stimuli/BlurLevel5/BlurEditedMorph59.png,Stimuli/BlurLevel5/NumberedMorphs/BlurEditedMorph59.png,Stimuli/BlurLevel5/OriginalBlur/BlurEditedMorph59.png,Stimuli/BlurMorphTrio/EditedMorph59.png,010160right.gif,Stimuli/normal_thumbnails/59right.gif,,,,,0,0,0,0,0,20,20,58,,,,,,,,,,,,,,,,,,,,,,,4,21,1,320,1.915111108,-1.606969024,59,Experiment,,,,,,,,,30,44,15,15,,,,,,,,,,,,,,,270.9462189,271.5055654,270.9462189,271.5055654,79.59183673,1575485136,1575485140,3.899945974,1575485134,1575485136,,,s10,1,31,male,fellow,2019_Dec_04_1241,AdjustEyeTrack,3.1.5,59.76481148
88,Stimuli/Morph88.JPG,Stimuli/Morph88.png,Stimuli/BlurLevel5/BlurEditedMorph88,Stimuli/BlurLevel5/BlurEditedMorph88.png,Stimuli/BlurLevel5/NumberedMorphs/BlurEditedMorph88.png,Stimuli/BlurLevel5/OriginalBlur/BlurEditedMorph88.png,Stimuli/BlurMorphTrio/EditedMorph88.png,020271right.gif,Stimuli/normal_thumbnails/88right.gif,,,,,0,0,0,0,0,21,21,87,,,,,,,,,,,,,,,,,,,,,,,3,22,1,210,-2.165063509,-1.25,88,Experiment,,,,,,,,,28,108,-20,-20,,,,,,,,,,,,,,,277.8275876,278.3370232,277.8275876,278.3370232,72.78911565,1575485143,1575485146,2.786036015,1575485140,1575485143,,,s10,1,31,male,fellow,2019_Dec_04_1241,AdjustEyeTrack,3.1.5,59.76481148
10,Stimuli/Morph10.JPG,Stimuli/Morph10.png,Stimuli/BlurLevel5/BlurEditedMorph10,Stimuli/BlurLevel5/BlurEditedMorph10.png,Stimuli/BlurLevel5/NumberedMorphs/BlurEditedMorph10.png,Stimuli/BlurLevel5/OriginalBlur/BlurEditedMorph10.png,Stimuli/BlurMorphTrio/EditedMorph10.png,010016right.gif,Stimuli/normal_thumbnails/10right.gif,,,,,0,0,0,0,0,22,22,9,,,,,,,,,,,,,,,,,,,,,,,35,23,1,290,0.855050358,-2.349231552,10,Experiment,,,,,,,,,146,22,-12,-12,,,,,,,,,,,,,,,283.2737617,283.788708,283.2737617,283.788708,83.67346939,1575485148,1575485152,4.015270233,1575485146,1575485148,,,s10,1,31,male,fellow,2019_Dec_04_1241,AdjustEyeTrack,3.1.5,59.76481148
63,Stimuli/Morph63.JPG,Stimuli/Morph63.png,Stimuli/BlurLevel5/BlurEditedMorph63,Stimuli/BlurLevel5/BlurEditedMorph63.png,Stimuli/BlurLevel5/NumberedMorphs/BlurEditedMorph63.png,Stimuli/BlurLevel5/OriginalBlur/BlurEditedMorph63.png,Stimuli/BlurMorphTrio/EditedMorph63.png,020206right.gif,Stimuli/normal_thumbnails/63right.gif,,,,,0,0,0,0,0,23,23,62,,,,,,,,,,,,,,,,,,,,,,,78,24,1,229,-1.640147572,-1.886773951,63,Experiment,,,,,,,,,56,43,20,20,,,,,,,,,,,,,,,289.8882175,290.4053807,289.8882175,290.4053807,72.78911565,1575485155,1575485157,2.068059921,1575485153,1575485155,,,s10,1,31,male,fellow,2019_Dec_04_1241,AdjustEyeTrack,3.1.5,59.76481148
93,Stimuli/Morph93.JPG,Stimuli/Morph93.png,Stimuli/BlurLevel5/BlurEditedMorph93,Stimuli/BlurLevel5/BlurEditedMorph93.png,Stimuli/BlurLevel5/NumberedMorphs/BlurEditedMorph93.png,Stimuli/BlurLevel5/OriginalBlur/BlurEditedMorph93.png,Stimuli/BlurMorphTrio/EditedMorph93.png,020280right.gif,Stimuli/normal_thumbnails/93right.gif,,,,,0,0,0,0,0,24,24,92,,,,,,,,,,,,,,,,,,,,,,,75,25,1,292,0.936516484,-2.317959636,93,Experiment,,,,,,,,,42,98,-5,-5,,,,,,,,,,,,,,,294.6217904,295.12057,294.6217904,295.12057,93.19727891,1575485160,1575485163,2.898406744,1575485157,1575485160,,,s10,1,31,male,fellow,2019_Dec_04_1241,AdjustEyeTrack,3.1.5,59.76481148
80,Stimuli/Morph80.JPG,Stimuli/Morph80.png,Stimuli/BlurLevel5/BlurEditedMorph80,Stimuli/BlurLevel5/BlurEditedMorph80.png,Stimuli/BlurLevel5/NumberedMorphs/BlurEditedMorph80.png,Stimuli/BlurLevel5/OriginalBlur/BlurEditedMorph80.png,Stimuli/BlurMorphTrio/EditedMorph80.png,020240right.gif,Stimuli/normal_thumbnails/80right.gif,,,,,0,0,0,0,0,25,25,79,,,,,,,,,,,,,,,,,,,,,,,89,26,1,65,1.056545654,2.265769468,80,Experiment,,,,,,,,,19,95,-15,-15,,,,,,,,,,,,,,,300.4521265,300.9781485,300.4521265,300.9781485,79.59183673,1575485166,1575485170,4.166880846,1575485163,1575485166,,,s10,1,31,male,fellow,2019_Dec_04_1241,AdjustEyeTrack,3.1.5,59.76481148
89,Stimuli/Morph89.JPG,Stimuli/Morph89.png,Stimuli/BlurLevel5/BlurEditedMorph89,Stimuli/BlurLevel5/BlurEditedMorph89.png,Stimuli/BlurLevel5/NumberedMorphs/BlurEditedMorph89.png,Stimuli/BlurLevel5/OriginalBlur/BlurEditedMorph89.png,Stimuli/BlurMorphTrio/EditedMorph89.png,020273right.gif,Stimuli/normal_thumbnails/89right.gif,,,,,0,0,0,0,0,26,26,88,,,,,,,,,,,,,,,,,,,,,,,97,27,1,275,0.217889357,-2.490486745,89,Experiment,,,,,,,,,94,95,-6,-6,,,,,,,,,,,,,,,307.7120413,308.2534914,307.7120413,308.2534914,91.83673469,1575485173,1575485175,2.416392326,1575485170,1575485173,,,s10,1,31,male,fellow,2019_Dec_04_1241,AdjustEyeTrack,3.1.5,59.76481148
70,Stimuli/Morph70.JPG,Stimuli/Morph70.png,Stimuli/BlurLevel5/BlurEditedMorph70,Stimuli/BlurLevel5/BlurEditedMorph70.png,Stimuli/BlurLevel5/NumberedMorphs/BlurEditedMorph70.png,Stimuli/BlurLevel5/OriginalBlur/BlurEditedMorph70.png,Stimuli/BlurMorphTrio/EditedMorph70.png,020221right.gif,Stimuli/normal_thumbnails/70right.gif,,,,,0,0,0,0,0,27,27,69,,,,,,,,,,,,,,,,,,,,,,,28,28,1,106,-0.68909339,2.40315424,70,Experiment,,,,,,,,,102,65,5,5,,,,,,,,,,,,,,,312.86224,313.3726849,312.86224,313.3726849,93.19727891,1575485178,1575485180,1.639192104,1575485176,1575485178,,,s10,1,31,male,fellow,2019_Dec_04_1241,AdjustEyeTrack,3.1.5,59.76481148
114,Stimuli/Morph114.JPG,Stimuli/Morph114.png,Stimuli/BlurLevel5/BlurEditedMorph114,Stimuli/BlurLevel5/BlurEditedMorph114.png,Stimuli/BlurLevel5/NumberedMorphs/BlurEditedMorph114.png,Stimuli/BlurLevel5/OriginalBlur/BlurEditedMorph114.png,Stimuli/BlurMorphTrio/EditedMorph114.png,None,None,,,,,0,0,0,0,0,28,28,113,,,,,,,,,,,,,,,,,,,,,,,61,29,1,314,1.736645926,-1.798349501,114,Experiment,,,,,,,,,114,105,9,9,,,,,,,,,,,,,,,317.5993767,318.137256,317.5993767,318.137256,87.75510204,1575485183,1575485184,1.602717161,1575485180,1575485183,,,s10,1,31,male,fellow,2019_Dec_04_1241,AdjustEyeTrack,3.1.5,59.76481148
118,Stimuli/Morph118.JPG,Stimuli/Morph118.png,Stimuli/BlurLevel5/BlurEditedMorph118,Stimuli/BlurLevel5/BlurEditedMorph118.png,Stimuli/BlurLevel5/NumberedMorphs/BlurEditedMorph118.png,Stimuli/BlurLevel5/OriginalBlur/BlurEditedMorph118.png,Stimuli/BlurMorphTrio/EditedMorph118.png,None,None,,,,,0,0,0,0,0,29,29,117,,,,,,,,,,,,,,,,,,,,,,,74,30,1,313,1.7049959,-1.828384254,118,Experiment,,,,,,,,,77,124,-6,-6,,,,,,,,,,,,,,,322.1955072,322.7199962,322.1955072,322.7199962,91.83673469,1575485187,1575485189,1.200505733,1575485185,1575485187,,,s10,1,31,male,fellow,2019_Dec_04_1241,AdjustEyeTrack,3.1.5,59.76481148
65,Stimuli/Morph65.JPG,Stimuli/Morph65.png,Stimuli/BlurLevel5/BlurEditedMorph65,Stimuli/BlurLevel5/BlurEditedMorph65.png,Stimuli/BlurLevel5/NumberedMorphs/BlurEditedMorph65.png,Stimuli/BlurLevel5/OriginalBlur/BlurEditedMorph65.png,Stimuli/BlurMorphTrio/EditedMorph65.png,020209right.gif,Stimuli/normal_thumbnails/65right.gif,,,,,0,0,0,0,0,30,30,64,,,,,,,,,,,,,,,,,,,,,,,6,31,1,21,2.333951066,0.895919874,65,Experiment,,,,,,,,,34,76,-11,-11,,,,,,,,,,,,,,,326.6453695,327.1919954,326.6453695,327.1919954,85.03401361,1575485192,1575485195,3.215895176,1575485189,1575485192,,,s10,1,31,male,fellow,2019_Dec_04_1241,AdjustEyeTrack,3.1.5,59.76481148
44,Stimuli/Morph44.JPG,Stimuli/Morph44.png,Stimuli/BlurLevel5/BlurEditedMorph44,Stimuli/BlurLevel5/BlurEditedMorph44.png,Stimuli/BlurLevel5/NumberedMorphs/BlurEditedMorph44.png,Stimuli/BlurLevel5/OriginalBlur/BlurEditedMorph44.png,Stimuli/BlurMorphTrio/EditedMorph44.png,010126right.gif,Stimuli/normal_thumbnails/44right.gif,,,,,0,0,0,0,0,31,31,43,,,,,,,,,,,,,,,,,,,,,,,48,32,1,349,2.454067959,-0.477022488,44,Experiment,,,,,,,,,82,58,-14,-14,,,,,,,,,,,,,,,332.56319,333.0694021,332.56319,333.0694021,80.95238095,1575485198,1575485200,2.566550016,1575485196,1575485198,,,s10,1,31,male,fellow,2019_Dec_04_1241,AdjustEyeTrack,3.1.5,59.76481148
67,Stimuli/Morph67.JPG,Stimuli/Morph67.png,Stimuli/BlurLevel5/BlurEditedMorph67,Stimuli/BlurLevel5/BlurEditedMorph67.png,Stimuli/BlurLevel5/NumberedMorphs/BlurEditedMorph67.png,Stimuli/BlurLevel5/OriginalBlur/BlurEditedMorph67.png,Stimuli/BlurMorphTrio/EditedMorph67.png,020217right.gif,Stimuli/normal_thumbnails/67right.gif,,,,,0,0,0,0,0,32,32,66,,,,,,,,,,,,,,,,,,,,,,,74,33,1,301,1.287595187,-2.142918252,67,Experiment,,,,,,,,,54,64,3,3,,,,,,,,,,,,,,,337.5389461,338.0529293,337.5389461,338.0529293,95.91836735,1575485203,1575485205,2.315306902,1575485201,1575485203,,,s10,1,31,male,fellow,2019_Dec_04_1241,AdjustEyeTrack,3.1.5,59.76481148
62,Stimuli/Morph62.JPG,Stimuli/Morph62.png,Stimuli/BlurLevel5/BlurEditedMorph62,Stimuli/BlurLevel5/BlurEditedMorph62.png,Stimuli/BlurLevel5/NumberedMorphs/BlurEditedMorph62.png,Stimuli/BlurLevel5/OriginalBlur/BlurEditedMorph62.png,Stimuli/BlurMorphTrio/EditedMorph62.png,020205right.gif,Stimuli/normal_thumbnails/62right.gif,,,,,0,0,0,0,0,33,33,61,,,,,,,,,,,,,,,,,,,,,,,7,34,1,2,2.498477068,0.087248742,62,Experiment,,,,,,,,,16,63,-1,-1,,,,,,,,,,,,,,,342.2785304,342.7905841,342.2785304,342.7905841,98.63945578,1575485207,1575485209,2.031772137,1575485205,1575485207,,,s10,1,31,male,fellow,2019_Dec_04_1241,AdjustEyeTrack,3.1.5,59.76481148
72,Stimuli/Morph72.JPG,Stimuli/Morph72.png,Stimuli/BlurLevel5/BlurEditedMorph72,Stimuli/BlurLevel5/BlurEditedMorph72.png,Stimuli/BlurLevel5/NumberedMorphs/BlurEditedMorph72.png,Stimuli/BlurLevel5/OriginalBlur/BlurEditedMorph72.png,Stimuli/BlurMorphTrio/EditedMorph72.png,020227right.gif,Stimuli/normal_thumbnails/72right.gif,,,,,0,0,0,0,0,34,34,71,,,,,,,,,,,,,,,,,,,,,,,73,35,1,321,1.942864904,-1.573300978,72,Experiment,,,,,,,,,93,74,-2,-2,,,,,,,,,,,,,,,346.754909,347.2534388,346.754909,347.2534388,97.27891156,1575485212,1575485216,4.416647911,1575485210,1575485212,,,s10,1,31,male,fellow,2019_Dec_04_1241,AdjustEyeTrack,3.1.5,59.76481148
27,Stimuli/Morph27.JPG,Stimuli/Morph27.png,Stimuli/BlurLevel5/BlurEditedMorph27,Stimuli/BlurLevel5/BlurEditedMorph27.png,Stimuli/BlurLevel5/NumberedMorphs/BlurEditedMorph27.png,Stimuli/BlurLevel5/OriginalBlur/BlurEditedMorph27.png,Stimuli/BlurMorphTrio/EditedMorph27.png,010072right.gif,Stimuli/normal_thumbnails/27right.gif,,,,,0,0,0,0,0,35,35,26,,,,,,,,,,,,,,,,,,,,,,,21,36,1,51,1.573300978,1.942864904,27,Experiment,,,,,,,,,92,12,15,15,,,,,,,,,,,,,,,353.8797979,354.4039359,353.8797979,354.4039359,79.59183673,1575485219,1575485221,2.019238234,1575485217,1575485219,,,s10,1,31,male,fellow,2019_Dec_04_1241,AdjustEyeTrack,3.1.5,59.76481148
34,Stimuli/Morph34.JPG,Stimuli/Morph34.png,Stimuli/BlurLevel5/BlurEditedMorph34,Stimuli/BlurLevel5/BlurEditedMorph34.png,Stimuli/BlurLevel5/NumberedMorphs/BlurEditedMorph34.png,Stimuli/BlurLevel5/OriginalBlur/BlurEditedMorph34.png,Stimuli/BlurMorphTrio/EditedMorph34.png,010090right.gif,Stimuli/normal_thumbnails/34right.gif,,,,,0,0,0,0,0,36,36,33,,,,,,,,,,,,,,,,,,,,,,,91,37,1,124,-1.397982259,2.072593931,34,Experiment,,,,,,,,,126,30,4,4,,,,,,,,,,,,,,,358.8475002,359.3736939,358.8475002,359.3736939,94.55782313,1575485224,1575485226,2.400516987,1575485221,1575485224,,,s10,1,31,male,fellow,2019_Dec_04_1241,AdjustEyeTrack,3.1.5,59.76481148
146,Stimuli/Morph146.JPG,Stimuli/Morph146.png,Stimuli/BlurLevel5/BlurEditedMorph146,Stimuli/BlurLevel5/BlurEditedMorph146.png,Stimuli/BlurLevel5/NumberedMorphs/BlurEditedMorph146.png,Stimuli/BlurLevel5/OriginalBlur/BlurEditedMorph146.png,Stimuli/BlurMorphTrio/EditedMorph146.png,None,None,,,,,0,0,0,0,0,37,37,145,,,,,,,,,,,,,,,,,,,,,,,40,38,1,231,-1.573300978,-1.942864904,146,Experiment,,,,,,,,,6,144,2,2,,,,,,,,,,,,,,,363.8192094,364.3376535,363.8192094,364.3376535,97.27891156,1575485229,1575485231,2.482682228,1575485227,1575485229,,,s10,1,31,male,fellow,2019_Dec_04_1241,AdjustEyeTrack,3.1.5,59.76481148
56,Stimuli/Morph56.JPG,Stimuli/Morph56.png,Stimuli/BlurLevel5/BlurEditedMorph56,Stimuli/BlurLevel5/BlurEditedMorph56.png,Stimuli/BlurLevel5/NumberedMorphs/BlurEditedMorph56.png,Stimuli/BlurLevel5/OriginalBlur/BlurEditedMorph56.png,Stimuli/BlurMorphTrio/EditedMorph56.png,010157right.gif,Stimuli/normal_thumbnails/56right.gif,,,,,0,0,0,0,0,38,38,55,,,,,,,,,,,,,,,,,,,,,,,44,39,1,66,1.016841608,2.283863644,56,Experiment,,,,,,,,,120,53,3,3,,,,,,,,,,,,,,,369.2033896,369.7190297,369.2033896,369.7190297,95.91836735,1575485234,1575485237,3.133691788,1575485232,1575485234,,,s10,1,31,male,fellow,2019_Dec_04_1241,AdjustEyeTrack,3.1.5,59.76481148
9,Stimuli/Morph9.JPG,Stimuli/Morph9.png,Stimuli/BlurLevel5/BlurEditedMorph9,Stimuli/BlurLevel5/BlurEditedMorph9.png,Stimuli/BlurLevel5/NumberedMorphs/BlurEditedMorph9.png,Stimuli/BlurLevel5/OriginalBlur/BlurEditedMorph9.png,Stimuli/BlurMorphTrio/EditedMorph9.png,010015right.gif,Stimuli/normal_thumbnails/9right.gif,,,,,0,0,0,0,0,39,39,8,,,,,,,,,,,,,,,,,,,,,,,85,40,1,293,0.976827821,-2.301262134,9,Experiment,,,,,,,,,74,6,3,3,,,,,,,,,,,,,,,374.7820318,375.3023182,374.7820318,375.3023182,95.91836735,1575485240,1575485242,2.031409979,1575485238,1575485240,,,s10,1,31,male,fellow,2019_Dec_04_1241,AdjustEyeTrack,3.1.5,59.76481148
125,Stimuli/Morph125.JPG,Stimuli/Morph125.png,Stimuli/BlurLevel5/BlurEditedMorph125,Stimuli/BlurLevel5/BlurEditedMorph125.png,Stimuli/BlurLevel5/NumberedMorphs/BlurEditedMorph125.png,Stimuli/BlurLevel5/OriginalBlur/BlurEditedMorph125.png,Stimuli/BlurMorphTrio/EditedMorph125.png,None,None,,,,,0,0,0,0,0,40,40,124,,,,,,,,,,,,,,,,,,,,,,,27,41,1,319,1.886773951,-1.640147572,125,Experiment,,,,,,,,,38,145,-20,-20,,,,,,,,,,,,,,,379.785568,380.3041751,379.785568,380.3041751,72.78911565,1575485245,1575485247,2.066268921,1575485242,1575485245,,,s10,1,31,male,fellow,2019_Dec_04_1241,AdjustEyeTrack,3.1.5,59.76481148
28,Stimuli/Morph28.JPG,Stimuli/Morph28.png,Stimuli/BlurLevel5/BlurEditedMorph28,Stimuli/BlurLevel5/BlurEditedMorph28.png,Stimuli/BlurLevel5/NumberedMorphs/BlurEditedMorph28.png,Stimuli/BlurLevel5/OriginalBlur/BlurEditedMorph28.png,Stimuli/BlurMorphTrio/EditedMorph28.png,010073right.gif,Stimuli/normal_thumbnails/28right.gif,,,,,0,0,0,0,0,41,41,27,,,,,,,,,,,,,,,,,,,,,,,88,42,1,123,-1.361597588,2.09667642,28,Experiment,,,,,,,,,138,25,3,3,,,,,,,,,,,,,,,384.7712998,385.2687428,384.7712998,385.2687428,95.91836735,1575485250,1575485252,2.298691988,1575485247,1575485250,,,s10,1,31,male,fellow,2019_Dec_04_1241,AdjustEyeTrack,3.1.5,59.76481148
126,Stimuli/Morph126.JPG,Stimuli/Morph126.png,Stimuli/BlurLevel5/BlurEditedMorph126,Stimuli/BlurLevel5/BlurEditedMorph126.png,Stimuli/BlurLevel5/NumberedMorphs/BlurEditedMorph126.png,Stimuli/BlurLevel5/OriginalBlur/BlurEditedMorph126.png,Stimuli/BlurMorphTrio/EditedMorph126.png,None,None,,,,,0,0,0,0,0,42,42,125,,,,,,,,,,,,,,,,,,,,,,,28,43,1,181,-2.499619238,-0.043631016,126,Experiment,,,,,,,,,67,143,-17,-17,,,,,,,,,,,,,,,390.1409719,390.6578921,390.1409719,390.6578921,76.8707483,1575485255,1575485258,2.31350708,1575485252,1575485255,,,s10,1,31,male,fellow,2019_Dec_04_1241,AdjustEyeTrack,3.1.5,59.76481148
74,Stimuli/Morph74.JPG,Stimuli/Morph74.png,Stimuli/BlurLevel5/BlurEditedMorph74,Stimuli/BlurLevel5/BlurEditedMorph74.png,Stimuli/BlurLevel5/NumberedMorphs/BlurEditedMorph74.png,Stimuli/BlurLevel5/OriginalBlur/BlurEditedMorph74.png,Stimuli/BlurMorphTrio/EditedMorph74.png,020232right.gif,Stimuli/normal_thumbnails/74right.gif,,,,,0,0,0,0,0,43,43,73,,,,,,,,,,,,,,,,,,,,,,,95,44,1,187,-2.481365379,-0.304673359,74,Experiment,,,,,,,,,59,44,30,30,,,,,,,,,,,,,,,395.1537873,395.6877139,395.1537873,395.6877139,59.18367347,1575485260,1575485264,3.516261339,1575485258,1575485260,,,s10,1,31,male,fellow,2019_Dec_04_1241,AdjustEyeTrack,3.1.5,59.76481148
100,Stimuli/Morph100.JPG,Stimuli/Morph100.png,Stimuli/BlurLevel5/BlurEditedMorph100,Stimuli/BlurLevel5/BlurEditedMorph100.png,Stimuli/BlurLevel5/NumberedMorphs/BlurEditedMorph100.png,Stimuli/BlurLevel5/OriginalBlur/BlurEditedMorph100.png,Stimuli/BlurMorphTrio/EditedMorph100.png,020297right.gif,Stimuli/normal_thumbnails/100right.gif,,,,,0,0,0,0,0,44,44,99,,,,,,,,,,,,,,,,,,,,,,,45,45,1,345,2.414814566,-0.647047613,100,Experiment,,,,,,,,,37,98,2,2,,,,,,,,,,,,,,,401.1206167,401.639155,401.1206167,401.639155,97.27891156,1575485266,1575485269,2.266105652,1575485264,1575485266,,,s10,1,31,male,fellow,2019_Dec_04_1241,AdjustEyeTrack,3.1.5,59.76481148
7,Stimuli/Morph7.JPG,Stimuli/Morph7.png,Stimuli/BlurLevel5/BlurEditedMorph7,Stimuli/BlurLevel5/BlurEditedMorph7.png,Stimuli/BlurLevel5/NumberedMorphs/BlurEditedMorph7.png,Stimuli/BlurLevel5/OriginalBlur/BlurEditedMorph7.png,Stimuli/BlurMorphTrio/EditedMorph7.png,010013right.gif,Stimuli/normal_thumbnails/7right.gif,,,,,0,0,0,0,0,45,45,6,,,,,,,,,,,,,,,,,,,,,,,73,46,1,116,-1.095927867,2.246985116,7,Experiment,,,,,,,,,111,8,-1,-1,,,,,,,,,,,,,,,406.1135,406.6183839,406.1135,406.6183839,98.63945578,1575485271,1575485272,1.133265972,1575485269,1575485271,,,s10,1,31,male,fellow,2019_Dec_04_1241,AdjustEyeTrack,3.1.5,59.76481148
54,Stimuli/Morph54.JPG,Stimuli/Morph54.png,Stimuli/BlurLevel5/BlurEditedMorph54,Stimuli/BlurLevel5/BlurEditedMorph54.png,Stimuli/BlurLevel5/NumberedMorphs/BlurEditedMorph54.png,Stimuli/BlurLevel5/OriginalBlur/BlurEditedMorph54.png,Stimuli/BlurMorphTrio/EditedMorph54.png,010150right.gif,Stimuli/normal_thumbnails/54right.gif,,,,,0,0,0,0,0,46,46,53,,,,,,,,,,,,,,,,,,,,,,,88,47,1,311,1.640147572,-1.886773951,54,Experiment,,,,,,,,,94,47,7,7,,,,,,,,,,,,,,,409.871751,410.3706364,409.871751,410.3706364,90.47619048,1575485275,1575485278,3.015467167,1575485273,1575485275,,,s10,1,31,male,fellow,2019_Dec_04_1241,AdjustEyeTrack,3.1.5,59.76481148
40,Stimuli/Morph40.JPG,Stimuli/Morph40.png,Stimuli/BlurLevel5/BlurEditedMorph40,Stimuli/BlurLevel5/BlurEditedMorph40.png,Stimuli/BlurLevel5/NumberedMorphs/BlurEditedMorph40.png,Stimuli/BlurLevel5/OriginalBlur/BlurEditedMorph40.png,Stimuli/BlurMorphTrio/EditedMorph40.png,010110right.gif,Stimuli/normal_thumbnails/40right.gif,,,,,0,0,0,0,0,47,47,39,,,,,,,,,,,,,,,,,,,,,,,65,48,1,2,2.498477068,0.087248742,40,Experiment,,,,,,,,,14,45,-5,-5,,,,,,,,,,,,,,,415.7761249,416.3206923,415.7761249,416.3206923,93.19727891,1575485281,1575485284,2.966792822,1575485278,1575485281,,,s10,1,31,male,fellow,2019_Dec_04_1241,AdjustEyeTrack,3.1.5,59.76481148
39,Stimuli/Morph39.JPG,Stimuli/Morph39.png,Stimuli/BlurLevel5/BlurEditedMorph39,Stimuli/BlurLevel5/BlurEditedMorph39.png,Stimuli/BlurLevel5/NumberedMorphs/BlurEditedMorph39.png,Stimuli/BlurLevel5/OriginalBlur/BlurEditedMorph39.png,Stimuli/BlurMorphTrio/EditedMorph39.png,010109right.gif,Stimuli/normal_thumbnails/39right.gif,,,,,0,0,0,0,0,48,48,38,,,,,,,,,,,,,,,,,,,,,,,9,49,1,331,2.186549268,-1.212024051,39,Experiment,,,,,,,,,18,60,-21,-21,,,,,,,,,,,,,,,421.2363491,421.7547683,421.2363491,421.7547683,71.42857143,1575485286,1575485289,2.457570791,1575485284,1575485286,,,s10,1,31,male,fellow,2019_Dec_04_1241,AdjustEyeTrack,3.1.5,59.76481148
119,Stimuli/Morph119.JPG,Stimuli/Morph119.png,Stimuli/BlurLevel5/BlurEditedMorph119,Stimuli/BlurLevel5/BlurEditedMorph119.png,Stimuli/BlurLevel5/NumberedMorphs/BlurEditedMorph119.png,Stimuli/BlurLevel5/OriginalBlur/BlurEditedMorph119.png,Stimuli/BlurMorphTrio/EditedMorph119.png,None,None,,,,,0,0,0,0,0,49,49,118,,,,,,,,,,,,,,,,,,,,,,,33,50,1,344,2.40315424,-0.68909339,119,Experiment,,,,,,,,,62,109,10,10,,,,,,,,,,,,,,,426.5123276,427.0191082,426.5123276,427.0191082,86.39455782,1575485292,1575485294,2.46604085,1575485289,1575485292,,,s10,1,31,male,fellow,2019_Dec_04_1241,AdjustEyeTrack,3.1.5,59.76481148
147,Stimuli/Morph147.JPG,Stimuli/Morph147.png,Stimuli/BlurLevel5/BlurEditedMorph147,Stimuli/BlurLevel5/BlurEditedMorph147.png,Stimuli/BlurLevel5/NumberedMorphs/BlurEditedMorph147.png,Stimuli/BlurLevel5/OriginalBlur/BlurEditedMorph147.png,Stimuli/BlurMorphTrio/EditedMorph147.png,None,None,,,,,0,0,0,0,0,50,50,146,,,,,,,,,,,,,,,,,,,,,,,87,51,1,139,-1.886773951,1.640147572,147,Experiment,,,,,,,,,27,4,143,-4,,,,,,,,,,,,,,,431.6069555,432.1347509,431.6069555,432.1347509,94.55782313,1575485297,1575485300,3.183104992,1575485294,1575485297,,,s10,1,31,male,fellow,2019_Dec_04_1241,AdjustEyeTrack,3.1.5,59.76481148
97,Stimuli/Morph97.JPG,Stimuli/Morph97.png,Stimuli/BlurLevel5/BlurEditedMorph97,Stimuli/BlurLevel5/BlurEditedMorph97.png,Stimuli/BlurLevel5/NumberedMorphs/BlurEditedMorph97.png,Stimuli/BlurLevel5/OriginalBlur/BlurEditedMorph97.png,Stimuli/BlurMorphTrio/EditedMorph97.png,020294right.gif,Stimuli/normal_thumbnails/97right.gif,,,,,0,0,0,0,0,51,51,96,,,,,,,,,,,,,,,,,,,,,,,45,52,1,106,-0.68909339,2.40315424,97,Experiment,,,,,,,,,123,91,6,6,,,,,,,,,,,,,,,437.2522506,437.7862204,437.2522506,437.7862204,91.83673469,1575485302,1575485305,2.165829897,1575485300,1575485302,,,s10,1,31,male,fellow,2019_Dec_04_1241,AdjustEyeTrack,3.1.5,59.76481148
127,Stimuli/Morph127.JPG,Stimuli/Morph127.png,Stimuli/BlurLevel5/BlurEditedMorph127,Stimuli/BlurLevel5/BlurEditedMorph127.png,Stimuli/BlurLevel5/NumberedMorphs/BlurEditedMorph127.png,Stimuli/BlurLevel5/OriginalBlur/BlurEditedMorph127.png,Stimuli/BlurMorphTrio/EditedMorph127.png,None,None,,,,,0,0,0,0,0,52,52,126,,,,,,,,,,,,,,,,,,,,,,,3,53,1,111,-0.895919874,2.333951066,127,Experiment,,,,,,,,,3,116,11,11,,,,,,,,,,,,,,,442.3290486,442.8360144,442.3290486,442.8360144,85.03401361,1575485307,1575485310,2.465368748,1575485305,1575485307,,,s10,1,31,male,fellow,2019_Dec_04_1241,AdjustEyeTrack,3.1.5,59.76481148
129,Stimuli/Morph129.JPG,Stimuli/Morph129.png,Stimuli/BlurLevel5/BlurEditedMorph129,Stimuli/BlurLevel5/BlurEditedMorph129.png,Stimuli/BlurLevel5/NumberedMorphs/BlurEditedMorph129.png,Stimuli/BlurLevel5/OriginalBlur/BlurEditedMorph129.png,Stimuli/BlurMorphTrio/EditedMorph129.png,None,None,,,,,0,0,0,0,0,53,53,128,,,,,,,,,,,,,,,,,,,,,,,10,54,1,320,1.915111108,-1.606969024,129,Experiment,,,,,,,,,46,102,27,27,,,,,,,,,,,,,,,447.2984627,447.8193096,447.2984627,447.8193096,63.26530612,1575485312,1575485315,2.416043997,1575485310,1575485312,,,s10,1,31,male,fellow,2019_Dec_04_1241,AdjustEyeTrack,3.1.5,59.76481148
4,Stimuli/Morph4.JPG,Stimuli/Morph4.png,Stimuli/BlurLevel5/BlurEditedMorph4,Stimuli/BlurLevel5/BlurEditedMorph4.png,Stimuli/BlurLevel5/NumberedMorphs/BlurEditedMorph4.png,Stimuli/BlurLevel5/OriginalBlur/BlurEditedMorph4.png,Stimuli/BlurMorphTrio/EditedMorph4.png,010010right.gif,Stimuli/normal_thumbnails/4right.gif,,,,,0,0,0,0,0,54,54,3,,,,,,,,,,,,,,,,,,,,,,,19,55,1,27,2.22751631,1.134976249,4,Experiment,,,,,,,,,89,6,-2,-2,,,,,,,,,,,,,,,452.703995,453.2356167,452.703995,453.2356167,97.27891156,1575485318,1575485320,2.166736841,1575485315,1575485318,,,s10,1,31,male,fellow,2019_Dec_04_1241,AdjustEyeTrack,3.1.5,59.76481148
37,Stimuli/Morph37.JPG,Stimuli/Morph37.png,Stimuli/BlurLevel5/BlurEditedMorph37,Stimuli/BlurLevel5/BlurEditedMorph37.png,Stimuli/BlurLevel5/NumberedMorphs/BlurEditedMorph37.png,Stimuli/BlurLevel5/OriginalBlur/BlurEditedMorph37.png,Stimuli/BlurMorphTrio/EditedMorph37.png,010097right.gif,Stimuli/normal_thumbnails/37right.gif,,,,,0,0,0,0,0,55,55,36,,,,,,,,,,,,,,,,,,,,,,,28,56,1,239,-1.287595187,-2.142918252,37,Experiment,,,,,,,,,95,33,4,4,,,,,,,,,,,,,,,457.8856485,458.4197187,457.8856485,458.4197187,94.55782313,1575485323,1575485326,2.864219189,1575485320,1575485323,,,s10,1,31,male,fellow,2019_Dec_04_1241,AdjustEyeTrack,3.1.5,59.76481148
143,Stimuli/Morph143.JPG,Stimuli/Morph143.png,Stimuli/BlurLevel5/BlurEditedMorph143,Stimuli/BlurLevel5/BlurEditedMorph143.png,Stimuli/BlurLevel5/NumberedMorphs/BlurEditedMorph143.png,Stimuli/BlurLevel5/OriginalBlur/BlurEditedMorph143.png,Stimuli/BlurMorphTrio/EditedMorph143.png,None,None,,,,,0,0,0,0,0,56,56,142,,,,,,,,,,,,,,,,,,,,,,,19,57,1,248,-0.936516484,-2.317959636,143,Experiment,,,,,,,,,51,133,10,10,,,,,,,,,,,,,,,463.4796891,464.0025165,463.4796891,464.0025165,86.39455782,1575485329,1575485331,1.884481907,1575485326,1575485329,,,s10,1,31,male,fellow,2019_Dec_04_1241,AdjustEyeTrack,3.1.5,59.76481148
90,Stimuli/Morph90.JPG,Stimuli/Morph90.png,Stimuli/BlurLevel5/BlurEditedMorph90,Stimuli/BlurLevel5/BlurEditedMorph90.png,Stimuli/BlurLevel5/NumberedMorphs/BlurEditedMorph90.png,Stimuli/BlurLevel5/OriginalBlur/BlurEditedMorph90.png,Stimuli/BlurMorphTrio/EditedMorph90.png,020275right.gif,Stimuli/normal_thumbnails/90right.gif,,,,,0,0,0,0,0,57,57,89,,,,,,,,,,,,,,,,,,,,,,,78,58,1,206,-2.246985116,-1.095927867,90,Experiment,,,,,,,,,134,107,-17,-17,,,,,,,,,,,,,,,467.7441345,468.251683,467.7441345,468.251683,76.8707483,1575485333,1575485335,1.983110905,1575485331,1575485333,,,s10,1,31,male,fellow,2019_Dec_04_1241,AdjustEyeTrack,3.1.5,59.76481148
77,Stimuli/Morph77.JPG,Stimuli/Morph77.png,Stimuli/BlurLevel5/BlurEditedMorph77,Stimuli/BlurLevel5/BlurEditedMorph77.png,Stimuli/BlurLevel5/NumberedMorphs/BlurEditedMorph77.png,Stimuli/BlurLevel5/OriginalBlur/BlurEditedMorph77.png,Stimuli/BlurMorphTrio/EditedMorph77.png,020235right.gif,Stimuli/normal_thumbnails/77right.gif,,,,,0,0,0,0,0,58,58,76,,,,,,,,,,,,,,,,,,,,,,,51,59,1,135,-1.767766953,1.767766953,77,Experiment,,,,,,,,,35,75,2,2,,,,,,,,,,,,,,,472.8858943,473.403357,472.8858943,473.403357,97.27891156,1575485338,1575485340,1.867105961,1575485335,1575485338,,,s10,1,31,male,fellow,2019_Dec_04_1241,AdjustEyeTrack,3.1.5,59.76481148
117,Stimuli/Morph117.JPG,Stimuli/Morph117.png,Stimuli/BlurLevel5/BlurEditedMorph117,Stimuli/BlurLevel5/BlurEditedMorph117.png,Stimuli/BlurLevel5/NumberedMorphs/BlurEditedMorph117.png,Stimuli/BlurLevel5/OriginalBlur/BlurEditedMorph117.png,Stimuli/BlurMorphTrio/EditedMorph117.png,None,None,,,,,0,0,0,0,0,59,59,116,,,,,,,,,,,,,,,,,,,,,,,63,60,1,11,2.454067959,0.477022488,117,Experiment,,,,,,,,,97,101,16,16,,,,,,,,,,,,,,,477.4957255,478.0369883,477.4957255,478.0369883,78.23129252,1575485343,1575485345,2.016325951,1575485340,1575485343,,,s10,1,31,male,fellow,2019_Dec_04_1241,AdjustEyeTrack,3.1.5,59.76481148
51,Stimuli/Morph51.JPG,Stimuli/Morph51.png,Stimuli/BlurLevel5/BlurEditedMorph51,Stimuli/BlurLevel5/BlurEditedMorph51.png,Stimuli/BlurLevel5/NumberedMorphs/BlurEditedMorph51.png,Stimuli/BlurLevel5/OriginalBlur/BlurEditedMorph51.png,Stimuli/BlurMorphTrio/EditedMorph51.png,010146right.gif,Stimuli/normal_thumbnails/51right.gif,,,,,0,0,0,0,0,60,60,50,,,,,,,,,,,,,,,,,,,,,,,55,61,1,337,2.301262134,-0.976827821,51,Experiment,,,,,,,,,89,63,-12,-12,,,,,,,,,,,,,,,482.0900625,482.6178869,482.0900625,482.6178869,83.67346939,1575485347,1575485349,1.87005806,1575485345,1575485347,,,s10,1,31,male,fellow,2019_Dec_04_1241,AdjustEyeTrack,3.1.5,59.76481148
49,Stimuli/Morph49.JPG,Stimuli/Morph49.png,Stimuli/BlurLevel5/BlurEditedMorph49,Stimuli/BlurLevel5/BlurEditedMorph49.png,Stimuli/BlurLevel5/NumberedMorphs/BlurEditedMorph49.png,Stimuli/BlurLevel5/OriginalBlur/BlurEditedMorph49.png,Stimuli/BlurMorphTrio/EditedMorph49.png,010135right.gif,Stimuli/normal_thumbnails/49right.gif,,,,,0,0,0,0,0,61,61,48,,,,,,,,,,,,,,,,,,,,,,,67,62,1,235,-1.433941091,-2.047880111,49,Experiment,,,,,,,,,99,48,1,1,,,,,,,,,,,,,,,486.7298176,487.2686973,486.7298176,487.2686973,98.63945578,1575485352,1575485355,3.217609882,1575485349,1575485352,,,s10,1,31,male,fellow,2019_Dec_04_1241,AdjustEyeTrack,3.1.5,59.76481148
91,Stimuli/Morph91.JPG,Stimuli/Morph91.png,Stimuli/BlurLevel5/BlurEditedMorph91,Stimuli/BlurLevel5/BlurEditedMorph91.png,Stimuli/BlurLevel5/NumberedMorphs/BlurEditedMorph91.png,Stimuli/BlurLevel5/OriginalBlur/BlurEditedMorph91.png,Stimuli/BlurMorphTrio/EditedMorph91.png,020276right.gif,Stimuli/normal_thumbnails/91right.gif,,,,,0,0,0,0,0,62,62,90,,,,,,,,,,,,,,,,,,,,,,,92,63,1,321,1.942864904,-1.573300978,91,Experiment,,,,,,,,,90,104,-13,-13,,,,,,,,,,,,,,,493.3890569,493.9034245,493.3890569,493.9034245,82.31292517,1575485359,1575485361,2.149884224,1575485355,1575485359,,,s10,1,31,male,fellow,2019_Dec_04_1241,AdjustEyeTrack,3.1.5,59.76481148
98,Stimuli/Morph98.JPG,Stimuli/Morph98.png,Stimuli/BlurLevel5/BlurEditedMorph98,Stimuli/BlurLevel5/BlurEditedMorph98.png,Stimuli/BlurLevel5/NumberedMorphs/BlurEditedMorph98.png,Stimuli/BlurLevel5/OriginalBlur/BlurEditedMorph98.png,Stimuli/BlurMorphTrio/EditedMorph98.png,020298right.gif,Stimuli/normal_thumbnails/98right.gif,,,,,0,0,0,0,0,63,63,97,,,,,,,,,,,,,,,,,,,,,,,76,64,1,277,0.304673359,-2.481365379,98,Experiment,,,,,,,,,73,106,-8,-8,,,,,,,,,,,,,,,497.85191,498.353572,497.85191,498.353572,89.11564626,1575485363,1575485364,1.266498089,1575485361,1575485363,,,s10,1,31,male,fellow,2019_Dec_04_1241,AdjustEyeTrack,3.1.5,59.76481148
5,Stimuli/Morph5.JPG,Stimuli/Morph5.png,Stimuli/BlurLevel5/BlurEditedMorph5,Stimuli/BlurLevel5/BlurEditedMorph5.png,Stimuli/BlurLevel5/NumberedMorphs/BlurEditedMorph5.png,Stimuli/BlurLevel5/OriginalBlur/BlurEditedMorph5.png,Stimuli/BlurMorphTrio/EditedMorph5.png,010011right.gif,Stimuli/normal_thumbnails/5right.gif,,,,,0,0,0,0,0,64,64,4,,,,,,,,,,,,,,,,,,,,,,,15,65,1,81,0.391086163,2.469220851,5,Experiment,,,,,,,,,46,12,-7,-7,,,,,,,,,,,,,,,501.7325289,502.2664052,501.7325289,502.2664052,90.47619048,1575485367,1575485370,2.800298214,1575485365,1575485367,,,s10,1,31,male,fellow,2019_Dec_04_1241,AdjustEyeTrack,3.1.5,59.76481148
60,Stimuli/Morph60.JPG,Stimuli/Morph60.png,Stimuli/BlurLevel5/BlurEditedMorph60,Stimuli/BlurLevel5/BlurEditedMorph60.png,Stimuli/BlurLevel5/NumberedMorphs/BlurEditedMorph60.png,Stimuli/BlurLevel5/OriginalBlur/BlurEditedMorph60.png,Stimuli/BlurMorphTrio/EditedMorph60.png,020200right.gif,Stimuli/normal_thumbnails/60right.gif,,,,,0,0,0,0,0,65,65,59,,,,,,,,,,,,,,,,,,,,,,,10,66,1,342,2.377641291,-0.772542486,60,Experiment,,,,,,,,,33,26,34,34,,,,,,,,,,,,,,,507.3579424,507.8672359,507.3579424,507.8672359,53.7414966,1575485373,1575485376,3.258476973,1575485370,1575485372,,,s10,1,31,male,fellow,2019_Dec_04_1241,AdjustEyeTrack,3.1.5,59.76481148
16,Stimuli/Morph16.JPG,Stimuli/Morph16.png,Stimuli/BlurLevel5/BlurEditedMorph16,Stimuli/BlurLevel5/BlurEditedMorph16.png,Stimuli/BlurLevel5/NumberedMorphs/BlurEditedMorph16.png,Stimuli/BlurLevel5/OriginalBlur/BlurEditedMorph16.png,Stimuli/BlurMorphTrio/EditedMorph16.png,010034right.gif,Stimuli/normal_thumbnails/16right.gif,,,,,0,0,0,0,0,66,66,15,,,,,,,,,,,,,,,,,,,,,,,94,67,1,84,0.261321158,2.486304738,16,Experiment,,,,,,,,,5,20,-4,-4,,,,,,,,,,,,,,,513.446657,513.9522291,513.446657,513.9522291,94.55782313,1575485379,1575485381,2.634771824,1575485376,1575485379,,,s10,1,31,male,fellow,2019_Dec_04_1241,AdjustEyeTrack,3.1.5,59.76481148
2,Stimuli/Morph2.JPG,Stimuli/Morph2.png,Stimuli/BlurLevel5/BlurEditedMorph2,Stimuli/BlurLevel5/BlurEditedMorph2.png,Stimuli/BlurLevel5/NumberedMorphs/BlurEditedMorph2.png,Stimuli/BlurLevel5/OriginalBlur/BlurEditedMorph2.png,Stimuli/BlurMorphTrio/EditedMorph2.png,010006right.gif,Stimuli/normal_thumbnails/2right.gif,,,,,0,0,0,0,0,67,67,1,,,,,,,,,,,,,,,,,,,,,,,89,68,1,109,-0.813920386,2.363796439,2,Experiment,,,,,,,,,19,143,-141,6,,,,,,,,,,,,,,,518.9172439,519.4174841,518.9172439,519.4174841,91.83673469,1575485384,1575485386,2.083894014,1575485381,1575485384,,,s10,1,31,male,fellow,2019_Dec_04_1241,AdjustEyeTrack,3.1.5,59.76481148
84,Stimuli/Morph84.JPG,Stimuli/Morph84.png,Stimuli/BlurLevel5/BlurEditedMorph84,Stimuli/BlurLevel5/BlurEditedMorph84.png,Stimuli/BlurLevel5/NumberedMorphs/BlurEditedMorph84.png,Stimuli/BlurLevel5/OriginalBlur/BlurEditedMorph84.png,Stimuli/BlurMorphTrio/EditedMorph84.png,020261right.gif,Stimuli/normal_thumbnails/84right.gif,,,,,0,0,0,0,0,68,68,83,,,,,,,,,,,,,,,,,,,,,,,57,69,1,51,1.573300978,1.942864904,84,Experiment,,,,,,,,,136,92,-8,-8,,,,,,,,,,,,,,,523.6522904,524.1504352,523.6522904,524.1504352,89.11564626,1575485389,1575485391,2.250164986,1575485386,1575485389,,,s10,1,31,male,fellow,2019_Dec_04_1241,AdjustEyeTrack,3.1.5,59.76481148
8,Stimuli/Morph8.JPG,Stimuli/Morph8.png,Stimuli/BlurLevel5/BlurEditedMorph8,Stimuli/BlurLevel5/BlurEditedMorph8.png,Stimuli/BlurLevel5/NumberedMorphs/BlurEditedMorph8.png,Stimuli/BlurLevel5/OriginalBlur/BlurEditedMorph8.png,Stimuli/BlurMorphTrio/EditedMorph8.png,010014right.gif,Stimuli/normal_thumbnails/8right.gif,,,,,0,0,0,0,0,69,69,7,,,,,,,,,,,,,,,,,,,,,,,83,70,1,314,1.736645926,-1.798349501,8,Experiment,,,,,,,,,114,146,-138,9,,,,,,,,,,,,,,,529.0030259,529.5005875,529.0030259,529.5005875,87.75510204,1575485394,1575485396,1.667484999,1575485391,1575485394,,,s10,1,31,male,fellow,2019_Dec_04_1241,AdjustEyeTrack,3.1.5,59.76481148
113,Stimuli/Morph113.JPG,Stimuli/Morph113.png,Stimuli/BlurLevel5/BlurEditedMorph113,Stimuli/BlurLevel5/BlurEditedMorph113.png,Stimuli/BlurLevel5/NumberedMorphs/BlurEditedMorph113.png,Stimuli/BlurLevel5/OriginalBlur/BlurEditedMorph113.png,Stimuli/BlurMorphTrio/EditedMorph113.png,None,None,,,,,0,0,0,0,0,70,70,112,,,,,,,,,,,,,,,,,,,,,,,2,71,1,152,-2.207368982,1.173678907,113,Experiment,,,,,,,,,77,103,10,10,,,,,,,,,,,,,,,533.3002815,533.8168096,533.3002815,533.8168096,86.39455782,1575485398,1575485400,1.966844797,1575485396,1575485398,,,s10,1,31,male,fellow,2019_Dec_04_1241,AdjustEyeTrack,3.1.5,59.76481148
19,Stimuli/Morph19.JPG,Stimuli/Morph19.png,Stimuli/BlurLevel5/BlurEditedMorph19,Stimuli/BlurLevel5/BlurEditedMorph19.png,Stimuli/BlurLevel5/NumberedMorphs/BlurEditedMorph19.png,Stimuli/BlurLevel5/OriginalBlur/BlurEditedMorph19.png,Stimuli/BlurMorphTrio/EditedMorph19.png,010045right.gif,Stimuli/normal_thumbnails/19right.gif,,,,,0,0,0,0,0,71,71,18,,,,,,,,,,,,,,,,,,,,,,,22,72,1,255,-0.647047613,-2.414814566,19,Experiment,,,,,,,,,113,16,3,3,,,,,,,,,,,,,,,538.0863127,538.5871323,538.0863127,538.5871323,95.91836735,1575485403,1575485406,2.567685127,1575485401,1575485403,,,s10,1,31,male,fellow,2019_Dec_04_1241,AdjustEyeTrack,3.1.5,59.76481148
52,Stimuli/Morph52.JPG,Stimuli/Morph52.png,Stimuli/BlurLevel5/BlurEditedMorph52,Stimuli/BlurLevel5/BlurEditedMorph52.png,Stimuli/BlurLevel5/NumberedMorphs/BlurEditedMorph52.png,Stimuli/BlurLevel5/OriginalBlur/BlurEditedMorph52.png,Stimuli/BlurMorphTrio/EditedMorph52.png,010148right.gif,Stimuli/normal_thumbnails/52right.gif,,,,,0,0,0,0,0,72,72,51,,,,,,,,,,,,,,,,,,,,,,,49,73,1,116,-1.095927867,2.246985116,52,Experiment,,,,,,,,,40,48,4,4,,,,,,,,,,,,,,,543.4333908,543.9503797,543.4333908,543.9503797,94.55782313,1575485409,1575485412,3.049225092,1575485406,1575485409,,,s10,1,31,male,fellow,2019_Dec_04_1241,AdjustEyeTrack,3.1.5,59.76481148
41,Stimuli/Morph41.JPG,Stimuli/Morph41.png,Stimuli/BlurLevel5/BlurEditedMorph41,Stimuli/BlurLevel5/BlurEditedMorph41.png,Stimuli/BlurLevel5/NumberedMorphs/BlurEditedMorph41.png,Stimuli/BlurLevel5/OriginalBlur/BlurEditedMorph41.png,Stimuli/BlurMorphTrio/EditedMorph41.png,010112right.gif,Stimuli/normal_thumbnails/41right.gif,,,,,0,0,0,0,0,73,73,40,,,,,,,,,,,,,,,,,,,,,,,58,74,1,249,-0.895919874,-2.333951066,41,Experiment,,,,,,,,,126,30,11,11,,,,,,,,,,,,,,,549.2871513,549.7994369,549.2871513,549.7994369,85.03401361,1575485414,1575485417,2.50084281,1575485412,1575485414,,,s10,1,31,male,fellow,2019_Dec_04_1241,AdjustEyeTrack,3.1.5,59.76481148
94,Stimuli/Morph94.JPG,Stimuli/Morph94.png,Stimuli/BlurLevel5/BlurEditedMorph94,Stimuli/BlurLevel5/BlurEditedMorph94.png,Stimuli/BlurLevel5/NumberedMorphs/BlurEditedMorph94.png,Stimuli/BlurLevel5/OriginalBlur/BlurEditedMorph94.png,Stimuli/BlurMorphTrio/EditedMorph94.png,020286right.gif,Stimuli/normal_thumbnails/94right.gif,,,,,0,0,0,0,0,74,74,93,,,,,,,,,,,,,,,,,,,,,,,84,75,1,123,-1.361597588,2.09667642,94,Experiment,,,,,,,,,75,100,-6,-6,,,,,,,,,,,,,,,554.3334355,554.8508959,554.3334355,554.8508959,91.83673469,1575485419,1575485421,1.616006136,1575485417,1575485419,,,s10,1,31,male,fellow,2019_Dec_04_1241,AdjustEyeTrack,3.1.5,59.76481148
139,Stimuli/Morph139.JPG,Stimuli/Morph139.png,Stimuli/BlurLevel5/BlurEditedMorph139,Stimuli/BlurLevel5/BlurEditedMorph139.png,Stimuli/BlurLevel5/NumberedMorphs/BlurEditedMorph139.png,Stimuli/BlurLevel5/OriginalBlur/BlurEditedMorph139.png,Stimuli/BlurMorphTrio/EditedMorph139.png,None,None,,,,,0,0,0,0,0,75,75,138,,,,,,,,,,,,,,,,,,,,,,,43,76,1,350,2.462019383,-0.434120444,139,Experiment,,,,,,,,,62,6,133,-14,,,,,,,,,,,,,,,558.458467,559.0003565,558.458467,559.0003565,80.95238095,1575485424,1575485425,1.783582926,1575485421,1575485424,,,s10,1,31,male,fellow,2019_Dec_04_1241,AdjustEyeTrack,3.1.5,59.76481148
101,Stimuli/Morph101.JPG,Stimuli/Morph101.png,Stimuli/BlurLevel5/BlurEditedMorph101,Stimuli/BlurLevel5/BlurEditedMorph101.png,Stimuli/BlurLevel5/NumberedMorphs/BlurEditedMorph101.png,Stimuli/BlurLevel5/OriginalBlur/BlurEditedMorph101.png,Stimuli/BlurMorphTrio/EditedMorph101.png,None,None,,,,,0,0,0,0,0,76,76,100,,,,,,,,,,,,,,,,,,,,,,,99,77,1,101,-0.477022488,2.454067959,101,Experiment,,,,,,,,,99,104,-3,-3,,,,,,,,,,,,,,,562.8412899,563.350388,562.8412899,563.350388,95.91836735,1575485428,1575485430,1.583116055,1575485426,1575485428,,,s10,1,31,male,fellow,2019_Dec_04_1241,AdjustEyeTrack,3.1.5,59.76481148
55,Stimuli/Morph55.JPG,Stimuli/Morph55.png,Stimuli/BlurLevel5/BlurEditedMorph55,Stimuli/BlurLevel5/BlurEditedMorph55.png,Stimuli/BlurLevel5/NumberedMorphs/BlurEditedMorph55.png,Stimuli/BlurLevel5/OriginalBlur/BlurEditedMorph55.png,Stimuli/BlurMorphTrio/EditedMorph55.png,010151right.gif,Stimuli/normal_thumbnails/55right.gif,,,,,0,0,0,0,0,77,77,54,,,,,,,,,,,,,,,,,,,,,,,24,78,1,24,2.283863644,1.016841608,55,Experiment,,,,,,,,,27,46,9,9,,,,,,,,,,,,,,,567.2785433,567.804513,567.2785433,567.804513,87.75510204,1575485432,1575485436,3.266521692,1575485430,1575485432,,,s10,1,31,male,fellow,2019_Dec_04_1241,AdjustEyeTrack,3.1.5,59.76481148
71,Stimuli/Morph71.JPG,Stimuli/Morph71.png,Stimuli/BlurLevel5/BlurEditedMorph71,Stimuli/BlurLevel5/BlurEditedMorph71.png,Stimuli/BlurLevel5/NumberedMorphs/BlurEditedMorph71.png,Stimuli/BlurLevel5/OriginalBlur/BlurEditedMorph71.png,Stimuli/BlurMorphTrio/EditedMorph71.png,020225right.gif,Stimuli/normal_thumbnails/71right.gif,,,,,0,0,0,0,0,78,78,70,,,,,,,,,,,,,,,,,,,,,,,66,79,1,152,-2.207368982,1.173678907,71,Experiment,,,,,,,,,104,68,3,3,,,,,,,,,,,,,,,573.0332304,573.5514786,573.0332304,573.5514786,95.91836735,1575485438,1575485442,4.132705688,1575485436,1575485438,,,s10,1,31,male,fellow,2019_Dec_04_1241,AdjustEyeTrack,3.1.5,59.76481148
33,Stimuli/Morph33.JPG,Stimuli/Morph33.png,Stimuli/BlurLevel5/BlurEditedMorph33,Stimuli/BlurLevel5/BlurEditedMorph33.png,Stimuli/BlurLevel5/NumberedMorphs/BlurEditedMorph33.png,Stimuli/BlurLevel5/OriginalBlur/BlurEditedMorph33.png,Stimuli/BlurMorphTrio/EditedMorph33.png,010089right.gif,Stimuli/normal_thumbnails/33right.gif,,,,,0,0,0,0,0,79,79,32,,,,,,,,,,,,,,,,,,,,,,,71,80,1,307,1.504537558,-1.996588775,33,Experiment,,,,,,,,,44,27,6,6,,,,,,,,,,,,,,,579.8911511,580.4323258,579.8911511,580.4323258,91.83673469,1575485445,1575485447,1.71626091,1575485443,1575485445,,,s10,1,31,male,fellow,2019_Dec_04_1241,AdjustEyeTrack,3.1.5,59.76481148
123,Stimuli/Morph123.JPG,Stimuli/Morph123.png,Stimuli/BlurLevel5/BlurEditedMorph123,Stimuli/BlurLevel5/BlurEditedMorph123.png,Stimuli/BlurLevel5/NumberedMorphs/BlurEditedMorph123.png,Stimuli/BlurLevel5/OriginalBlur/BlurEditedMorph123.png,Stimuli/BlurMorphTrio/EditedMorph123.png,None,None,,,,,0,0,0,0,0,80,80,122,,,,,,,,,,,,,,,,,,,,,,,88,81,1,277,0.304673359,-2.481365379,123,Experiment,,,,,,,,,121,118,5,5,,,,,,,,,,,,,,,584.5706337,585.0683749,584.5706337,585.0683749,93.19727891,1575485450,1575485451,1.133306026,1575485447,1575485450,,,s10,1,31,male,fellow,2019_Dec_04_1241,AdjustEyeTrack,3.1.5,59.76481148
134,Stimuli/Morph134.JPG,Stimuli/Morph134.png,Stimuli/BlurLevel5/BlurEditedMorph134,Stimuli/BlurLevel5/BlurEditedMorph134.png,Stimuli/BlurLevel5/NumberedMorphs/BlurEditedMorph134.png,Stimuli/BlurLevel5/OriginalBlur/BlurEditedMorph134.png,Stimuli/BlurMorphTrio/EditedMorph134.png,None,None,,,,,0,0,0,0,0,81,81,133,,,,,,,,,,,,,,,,,,,,,,,91,82,1,98,-0.347932752,2.475670172,134,Experiment,,,,,,,,,87,110,24,24,,,,,,,,,,,,,,,588.6717391,589.1840665,588.6717391,589.1840665,67.34693878,1575485454,1575485456,2.052563906,1575485451,1575485454,,,s10,1,31,male,fellow,2019_Dec_04_1241,AdjustEyeTrack,3.1.5,59.76481148
96,Stimuli/Morph96.JPG,Stimuli/Morph96.png,Stimuli/BlurLevel5/BlurEditedMorph96,Stimuli/BlurLevel5/BlurEditedMorph96.png,Stimuli/BlurLevel5/NumberedMorphs/BlurEditedMorph96.png,Stimuli/BlurLevel5/OriginalBlur/BlurEditedMorph96.png,Stimuli/BlurMorphTrio/EditedMorph96.png,020292right.gif,Stimuli/normal_thumbnails/96right.gif,,,,,0,0,0,0,0,82,82,95,,,,,,,,,,,,,,,,,,,,,,,88,83,1,64,1.095927867,2.246985116,96,Experiment,,,,,,,,,74,103,-7,-7,,,,,,,,,,,,,,,593.4350235,593.965449,593.4350235,593.965449,90.47619048,1575485459,1575485461,2.666846037,1575485456,1575485459,,,s10,1,31,male,fellow,2019_Dec_04_1241,AdjustEyeTrack,3.1.5,59.76481148
3,Stimuli/Morph3.JPG,Stimuli/Morph3.png,Stimuli/BlurLevel5/BlurEditedMorph3,Stimuli/BlurLevel5/BlurEditedMorph3.png,Stimuli/BlurLevel5/NumberedMorphs/BlurEditedMorph3.png,Stimuli/BlurLevel5/OriginalBlur/BlurEditedMorph3.png,Stimuli/BlurMorphTrio/EditedMorph3.png,010009right.gif,Stimuli/normal_thumbnails/3right.gif,,,,,0,0,0,0,0,83,83,2,,,,,,,,,,,,,,,,,,,,,,,81,84,1,286,0.68909339,-2.40315424,3,Experiment,,,,,,,,,114,8,-5,-5,,,,,,,,,,,,,,,598.4832222,599.0176696,598.4832222,599.0176696,93.19727891,1575485464,1575485467,2.963971853,1575485462,1575485464,,,s10,1,31,male,fellow,2019_Dec_04_1241,AdjustEyeTrack,3.1.5,59.76481148
46,Stimuli/Morph46.JPG,Stimuli/Morph46.png,Stimuli/BlurLevel5/BlurEditedMorph46,Stimuli/BlurLevel5/BlurEditedMorph46.png,Stimuli/BlurLevel5/NumberedMorphs/BlurEditedMorph46.png,Stimuli/BlurLevel5/OriginalBlur/BlurEditedMorph46.png,Stimuli/BlurMorphTrio/EditedMorph46.png,010128right.gif,Stimuli/normal_thumbnails/46right.gif,,,,,0,0,0,0,0,84,84,45,,,,,,,,,,,,,,,,,,,,,,,73,85,1,174,-2.486304738,0.261321158,46,Experiment,,,,,,,,,63,51,-5,-5,,,,,,,,,,,,,,,604.3829923,604.8839963,604.3829923,604.8839963,93.19727891,1575485470,1575485475,5.08408308,1575485467,1575485470,,,s10,1,31,male,fellow,2019_Dec_04_1241,AdjustEyeTrack,3.1.5,59.76481148
54,Stimuli/Morph54.JPG,Stimuli/Morph54.png,Stimuli/BlurLevel5/BlurEditedMorph54,Stimuli/BlurLevel5/BlurEditedMorph54.png,Stimuli/BlurLevel5/NumberedMorphs/BlurEditedMorph54.png,Stimuli/BlurLevel5/OriginalBlur/BlurEditedMorph54.png,Stimuli/BlurMorphTrio/EditedMorph54.png,010150right.gif,Stimuli/normal_thumbnails/54right.gif,,,,,1,0,1,0,0,0,0,53,,,,,,,,,,,,,,,,,,,,,,,18,1,2,276,0.261321158,-2.486304738,54,Experiment,,,,,,,,,134,47,7,7,,,,,,,,,,,,,,,637.799302,638.2985086,637.799302,638.2985086,90.47619048,1575485503,1575485506,2.782867908,1575485501,1575485503,space,25.82917457,s10,1,31,male,fellow,2019_Dec_04_1241,AdjustEyeTrack,3.1.5,59.76481148
59,Stimuli/Morph59.JPG,Stimuli/Morph59.png,Stimuli/BlurLevel5/BlurEditedMorph59,Stimuli/BlurLevel5/BlurEditedMorph59.png,Stimuli/BlurLevel5/NumberedMorphs/BlurEditedMorph59.png,Stimuli/BlurLevel5/OriginalBlur/BlurEditedMorph59.png,Stimuli/BlurMorphTrio/EditedMorph59.png,010160right.gif,Stimuli/normal_thumbnails/59right.gif,,,,,1,0,1,0,0,1,1,58,,,,,,,,,,,,,,,,,,,,,,,24,2,2,130,-1.606969024,1.915111108,59,Experiment,,,,,,,,,73,48,11,11,,,,,,,,,,,,,,,643.2354432,643.765133,643.2354432,643.765133,85.03401361,1575485508,1575485511,2.466788054,1575485506,1575485508,,,s10,1,31,male,fellow,2019_Dec_04_1241,AdjustEyeTrack,3.1.5,59.76481148
140,Stimuli/Morph140.JPG,Stimuli/Morph140.png,Stimuli/BlurLevel5/BlurEditedMorph140,Stimuli/BlurLevel5/BlurEditedMorph140.png,Stimuli/BlurLevel5/NumberedMorphs/BlurEditedMorph140.png,Stimuli/BlurLevel5/OriginalBlur/BlurEditedMorph140.png,Stimuli/BlurMorphTrio/EditedMorph140.png,None,None,,,,,1,0,1,0,0,2,2,139,,,,,,,,,,,,,,,,,,,,,,,43,3,2,241,-1.212024051,-2.186549268,140,Experiment,,,,,,,,,36,141,-1,-1,,,,,,,,,,,,,,,648.5178575,649.0485584,648.5178575,649.0485584,98.63945578,1575485514,1575485515,1.333426952,1575485511,1575485514,,,s10,1,31,male,fellow,2019_Dec_04_1241,AdjustEyeTrack,3.1.5,59.76481148
9,Stimuli/Morph9.JPG,Stimuli/Morph9.png,Stimuli/BlurLevel5/BlurEditedMorph9,Stimuli/BlurLevel5/BlurEditedMorph9.png,Stimuli/BlurLevel5/NumberedMorphs/BlurEditedMorph9.png,Stimuli/BlurLevel5/OriginalBlur/BlurEditedMorph9.png,Stimuli/BlurMorphTrio/EditedMorph9.png,010015right.gif,Stimuli/normal_thumbnails/9right.gif,,,,,1,0,1,0,0,3,3,8,,,,,,,,,,,,,,,,,,,,,,,64,4,2,298,1.173678907,-2.207368982,9,Experiment,,,,,,,,,126,7,2,2,,,,,,,,,,,,,,,652.3485123,652.8515096,652.3485123,652.8515096,97.27891156,1575485517,1575485519,1.935217857,1575485515,1575485517,,,s10,1,31,male,fellow,2019_Dec_04_1241,AdjustEyeTrack,3.1.5,59.76481148
23,Stimuli/Morph23.JPG,Stimuli/Morph23.png,Stimuli/BlurLevel5/BlurEditedMorph23,Stimuli/BlurLevel5/BlurEditedMorph23.png,Stimuli/BlurLevel5/NumberedMorphs/BlurEditedMorph23.png,Stimuli/BlurLevel5/OriginalBlur/BlurEditedMorph23.png,Stimuli/BlurMorphTrio/EditedMorph23.png,010063right.gif,Stimuli/normal_thumbnails/23right.gif,,,,,1,0,1,0,0,4,4,22,,,,,,,,,,,,,,,,,,,,,,,32,5,2,24,2.283863644,1.016841608,23,Experiment,,,,,,,,,56,22,1,1,,,,,,,,,,,,,,,657.134162,657.6322777,657.134162,657.6322777,98.63945578,1575485522,1575485526,3.317263126,1575485520,1575485522,,,s10,1,31,male,fellow,2019_Dec_04_1241,AdjustEyeTrack,3.1.5,59.76481148
139,Stimuli/Morph139.JPG,Stimuli/Morph139.png,Stimuli/BlurLevel5/BlurEditedMorph139,Stimuli/BlurLevel5/BlurEditedMorph139.png,Stimuli/BlurLevel5/NumberedMorphs/BlurEditedMorph139.png,Stimuli/BlurLevel5/OriginalBlur/BlurEditedMorph139.png,Stimuli/BlurMorphTrio/EditedMorph139.png,None,None,,,,,1,0,1,0,0,5,5,138,,,,,,,,,,,,,,,,,,,,,,,83,6,2,339,2.333951066,-0.895919874,139,Experiment,,,,,,,,,34,130,9,9,,,,,,,,,,,,,,,663.4856898,663.9997864,663.4856898,663.9997864,87.75510204,1575485529,1575485531,2.603217125,1575485526,1575485529,,,s10,1,31,male,fellow,2019_Dec_04_1241,AdjustEyeTrack,3.1.5,59.76481148
102,Stimuli/Morph102.JPG,Stimuli/Morph102.png,Stimuli/BlurLevel5/BlurEditedMorph102,Stimuli/BlurLevel5/BlurEditedMorph102.png,Stimuli/BlurLevel5/NumberedMorphs/BlurEditedMorph102.png,Stimuli/BlurLevel5/OriginalBlur/BlurEditedMorph102.png,Stimuli/BlurMorphTrio/EditedMorph102.png,None,None,,,,,1,0,1,0,0,6,6,101,,,,,,,,,,,,,,,,,,,,,,,54,7,2,113,-0.976827821,2.301262134,102,Experiment,,,,,,,,,97,98,4,4,,,,,,,,,,,,,,,668.9337466,669.4655766,668.9337466,669.4655766,94.55782313,1575485534,1575485537,2.53284502,1575485532,1575485534,,,s10,1,31,male,fellow,2019_Dec_04_1241,AdjustEyeTrack,3.1.5,59.76481148
41,Stimuli/Morph41.JPG,Stimuli/Morph41.png,Stimuli/BlurLevel5/BlurEditedMorph41,Stimuli/BlurLevel5/BlurEditedMorph41.png,Stimuli/BlurLevel5/NumberedMorphs/BlurEditedMorph41.png,Stimuli/BlurLevel5/OriginalBlur/BlurEditedMorph41.png,Stimuli/BlurMorphTrio/EditedMorph41.png,010112right.gif,Stimuli/normal_thumbnails/41right.gif,,,,,1,0,1,0,0,7,7,40,,,,,,,,,,,,,,,,,,,,,,,83,8,2,75,0.647047613,2.414814566,41,Experiment,,,,,,,,,32,48,-7,-7,,,,,,,,,,,,,,,674.0254213,674.5479493,674.0254213,674.5479493,90.47619048,1575485539,1575485541,1.833202839,1575485537,1575485539,,,s10,1,31,male,fellow,2019_Dec_04_1241,AdjustEyeTrack,3.1.5,59.76481148
92,Stimuli/Morph92.JPG,Stimuli/Morph92.png,Stimuli/BlurLevel5/BlurEditedMorph92,Stimuli/BlurLevel5/BlurEditedMorph92.png,Stimuli/BlurLevel5/NumberedMorphs/BlurEditedMorph92.png,Stimuli/BlurLevel5/OriginalBlur/BlurEditedMorph92.png,Stimuli/BlurMorphTrio/EditedMorph92.png,020277right.gif,Stimuli/normal_thumbnails/92right.gif,,,,,1,0,1,0,0,8,8,91,,,,,,,,,,,,,,,,,,,,,,,16,9,2,140,-1.915111108,1.606969024,92,Experiment,,,,,,,,,41,94,-2,-2,,,,,,,,,,,,,,,678.7836857,679.2863986,678.7836857,679.2863986,97.27891156,1575485544,1575485547,2.783766031,1575485541,1575485544,,,s10,1,31,male,fellow,2019_Dec_04_1241,AdjustEyeTrack,3.1.5,59.76481148
146,Stimuli/Morph146.JPG,Stimuli/Morph146.png,Stimuli/BlurLevel5/BlurEditedMorph146,Stimuli/BlurLevel5/BlurEditedMorph146.png,Stimuli/BlurLevel5/NumberedMorphs/BlurEditedMorph146.png,Stimuli/BlurLevel5/OriginalBlur/BlurEditedMorph146.png,Stimuli/BlurMorphTrio/EditedMorph146.png,None,None,,,,,1,0,1,0,0,9,9,145,,,,,,,,,,,,,,,,,,,,,,,44,10,2,87,0.130839891,2.496573837,146,Experiment,,,,,,,,,100,127,19,19,,,,,,,,,,,,,,,684.6222503,685.1680162,684.6222503,685.1680162,74.14965986,1575485550,1575485552,2.332368135,1575485547,1575485550,,,s10,1,31,male,fellow,2019_Dec_04_1241,AdjustEyeTrack,3.1.5,59.76481148
129,Stimuli/Morph129.JPG,Stimuli/Morph129.png,Stimuli/BlurLevel5/BlurEditedMorph129,Stimuli/BlurLevel5/BlurEditedMorph129.png,Stimuli/BlurLevel5/NumberedMorphs/BlurEditedMorph129.png,Stimuli/BlurLevel5/OriginalBlur/BlurEditedMorph129.png,Stimuli/BlurMorphTrio/EditedMorph129.png,None,None,,,,,1,0,1,0,0,10,10,128,,,,,,,,,,,,,,,,,,,,,,,63,11,2,316,1.798349501,-1.736645926,129,Experiment,,,,,,,,,30,106,23,23,,,,,,,,,,,,,,,689.7665739,690.2976389,689.7665739,690.2976389,68.70748299,1575485555,1575485557,2.23331213,1575485552,1575485555,,,s10,1,31,male,fellow,2019_Dec_04_1241,AdjustEyeTrack,3.1.5,59.76481148
132,Stimuli/Morph132.JPG,Stimuli/Morph132.png,Stimuli/BlurLevel5/BlurEditedMorph132,Stimuli/BlurLevel5/BlurEditedMorph132.png,Stimuli/BlurLevel5/NumberedMorphs/BlurEditedMorph132.png,Stimuli/BlurLevel5/OriginalBlur/BlurEditedMorph132.png,Stimuli/BlurMorphTrio/EditedMorph132.png,None,None,,,,,1,0,1,0,0,11,11,131,,,,,,,,,,,,,,,,,,,,,,,39,12,2,275,0.217889357,-2.490486745,132,Experiment,,,,,,,,,59,127,5,5,,,,,,,,,,,,,,,694.5861986,695.1150536,694.5861986,695.1150536,93.19727891,1575485560,1575485562,2.116460085,1575485557,1575485560,,,s10,1,31,male,fellow,2019_Dec_04_1241,AdjustEyeTrack,3.1.5,59.76481148
69,Stimuli/Morph69.JPG,Stimuli/Morph69.png,Stimuli/BlurLevel5/BlurEditedMorph69,Stimuli/BlurLevel5/BlurEditedMorph69.png,Stimuli/BlurLevel5/NumberedMorphs/BlurEditedMorph69.png,Stimuli/BlurLevel5/OriginalBlur/BlurEditedMorph69.png,Stimuli/BlurMorphTrio/EditedMorph69.png,020220right.gif,Stimuli/normal_thumbnails/69right.gif,,,,,1,0,1,0,0,12,12,68,,,,,,,,,,,,,,,,,,,,,,,29,13,2,239,-1.287595187,-2.142918252,69,Experiment,,,,,,,,,3,53,16,16,,,,,,,,,,,,,,,700.0657451,700.5846139,700.0657451,700.5846139,78.23129252,1575485565,1575485569,3.645170927,1575485562,1575485565,,,s10,1,31,male,fellow,2019_Dec_04_1241,AdjustEyeTrack,3.1.5,59.76481148
119,Stimuli/Morph119.JPG,Stimuli/Morph119.png,Stimuli/BlurLevel5/BlurEditedMorph119,Stimuli/BlurLevel5/BlurEditedMorph119.png,Stimuli/BlurLevel5/NumberedMorphs/BlurEditedMorph119.png,Stimuli/BlurLevel5/OriginalBlur/BlurEditedMorph119.png,Stimuli/BlurMorphTrio/EditedMorph119.png,None,None,,,,,1,0,1,0,0,13,13,118,,,,,,,,,,,,,,,,,,,,,,,78,14,2,342,2.377641291,-0.772542486,119,Experiment,,,,,,,,,136,104,15,15,,,,,,,,,,,,,,,706.384405,706.8814623,706.384405,706.8814623,79.59183673,1575485572,1575485574,2.617233276,1575485569,1575485572,,,s10,1,31,male,fellow,2019_Dec_04_1241,AdjustEyeTrack,3.1.5,59.76481148
145,Stimuli/Morph145.JPG,Stimuli/Morph145.png,Stimuli/BlurLevel5/BlurEditedMorph145,Stimuli/BlurLevel5/BlurEditedMorph145.png,Stimuli/BlurLevel5/NumberedMorphs/BlurEditedMorph145.png,Stimuli/BlurLevel5/OriginalBlur/BlurEditedMorph145.png,Stimuli/BlurMorphTrio/EditedMorph145.png,None,None,,,,,1,0,1,0,0,14,14,144,,,,,,,,,,,,,,,,,,,,,,,33,15,2,315,1.767766953,-1.767766953,145,Experiment,,,,,,,,,102,20,125,-22,,,,,,,,,,,,,,,711.792603,712.2979932,711.792603,712.2979932,70.06802721,1575485577,1575485579,1.885800123,1575485574,1575485577,,,s10,1,31,male,fellow,2019_Dec_04_1241,AdjustEyeTrack,3.1.5,59.76481148
39,Stimuli/Morph39.JPG,Stimuli/Morph39.png,Stimuli/BlurLevel5/BlurEditedMorph39,Stimuli/BlurLevel5/BlurEditedMorph39.png,Stimuli/BlurLevel5/NumberedMorphs/BlurEditedMorph39.png,Stimuli/BlurLevel5/OriginalBlur/BlurEditedMorph39.png,Stimuli/BlurMorphTrio/EditedMorph39.png,010109right.gif,Stimuli/normal_thumbnails/39right.gif,,,,,1,0,1,0,0,15,15,38,,,,,,,,,,,,,,,,,,,,,,,26,16,2,212,-2.12012024,-1.324798161,39,Experiment,,,,,,,,,55,7,32,32,,,,,,,,,,,,,,,716.4177883,716.9349,716.4177883,716.9349,56.46258503,1575485582,1575485584,2.799597025,1575485579,1575485582,,,s10,1,31,male,fellow,2019_Dec_04_1241,AdjustEyeTrack,3.1.5,59.76481148
104,Stimuli/Morph104.JPG,Stimuli/Morph104.png,Stimuli/BlurLevel5/BlurEditedMorph104,Stimuli/BlurLevel5/BlurEditedMorph104.png,Stimuli/BlurLevel5/NumberedMorphs/BlurEditedMorph104.png,Stimuli/BlurLevel5/OriginalBlur/BlurEditedMorph104.png,Stimuli/BlurMorphTrio/EditedMorph104.png,None,None,,,,,1,0,1,0,0,16,16,103,,,,,,,,,,,,,,,,,,,,,,,28,17,2,317,1.828384254,-1.7049959,104,Experiment,,,,,,,,,88,101,3,3,,,,,,,,,,,,,,,722.293977,722.8152351,722.293977,722.8152351,95.91836735,1575485587,1575485589,1.449973106,1575485585,1575485587,,,s10,1,31,male,fellow,2019_Dec_04_1241,AdjustEyeTrack,3.1.5,59.76481148
96,Stimuli/Morph96.JPG,Stimuli/Morph96.png,Stimuli/BlurLevel5/BlurEditedMorph96,Stimuli/BlurLevel5/BlurEditedMorph96.png,Stimuli/BlurLevel5/NumberedMorphs/BlurEditedMorph96.png,Stimuli/BlurLevel5/OriginalBlur/BlurEditedMorph96.png,Stimuli/BlurMorphTrio/EditedMorph96.png,020292right.gif,Stimuli/normal_thumbnails/96right.gif,,,,,1,0,1,0,0,17,17,95,,,,,,,,,,,,,,,,,,,,,,,70,18,2,286,0.68909339,-2.40315424,96,Experiment,,,,,,,,,81,100,-4,-4,,,,,,,,,,,,,,,726.2552057,726.7829339,726.2552057,726.7829339,94.55782313,1575485591,1575485593,1.433437824,1575485589,1575485591,,,s10,1,31,male,fellow,2019_Dec_04_1241,AdjustEyeTrack,3.1.5,59.76481148
82,Stimuli/Morph82.JPG,Stimuli/Morph82.png,Stimuli/BlurLevel5/BlurEditedMorph82,Stimuli/BlurLevel5/BlurEditedMorph82.png,Stimuli/BlurLevel5/NumberedMorphs/BlurEditedMorph82.png,Stimuli/BlurLevel5/OriginalBlur/BlurEditedMorph82.png,Stimuli/BlurMorphTrio/EditedMorph82.png,020247right.gif,Stimuli/normal_thumbnails/82right.gif,,,,,1,0,1,0,0,18,18,81,,,,,,,,,,,,,,,,,,,,,,,27,19,2,273,0.130839891,-2.496573837,82,Experiment,,,,,,,,,119,90,-8,-8,,,,,,,,,,,,,,,730.3555732,730.8980613,730.3555732,730.8980613,89.11564626,1575485596,1575485597,1.399784803,1575485593,1575485596,,,s10,1,31,male,fellow,2019_Dec_04_1241,AdjustEyeTrack,3.1.5,59.76481148
125,Stimuli/Morph125.JPG,Stimuli/Morph125.png,Stimuli/BlurLevel5/BlurEditedMorph125,Stimuli/BlurLevel5/BlurEditedMorph125.png,Stimuli/BlurLevel5/NumberedMorphs/BlurEditedMorph125.png,Stimuli/BlurLevel5/OriginalBlur/BlurEditedMorph125.png,Stimuli/BlurMorphTrio/EditedMorph125.png,None,None,,,,,1,0,1,0,0,19,19,124,,,,,,,,,,,,,,,,,,,,,,,8,20,2,340,2.349231552,-0.855050358,125,Experiment,,,,,,,,,55,122,3,3,,,,,,,,,,,,,,,734.7887184,735.315675,734.7887184,735.315675,95.91836735,1575485600,1575485602,1.746672869,1575485597,1575485600,,,s10,1,31,male,fellow,2019_Dec_04_1241,AdjustEyeTrack,3.1.5,59.76481148
112,Stimuli/Morph112.JPG,Stimuli/Morph112.png,Stimuli/BlurLevel5/BlurEditedMorph112,Stimuli/BlurLevel5/BlurEditedMorph112.png,Stimuli/BlurLevel5/NumberedMorphs/BlurEditedMorph112.png,Stimuli/BlurLevel5/OriginalBlur/BlurEditedMorph112.png,Stimuli/BlurMorphTrio/EditedMorph112.png,None,None,,,,,1,0,1,0,0,20,20,111,,,,,,,,,,,,,,,,,,,,,,,21,21,2,201,-2.333951066,-0.895919874,112,Experiment,,,,,,,,,63,104,8,8,,,,,,,,,,,,,,,739.2475902,739.7495929,739.2475902,739.7495929,89.11564626,1575485604,1575485607,2.267416,1575485602,1575485604,,,s10,1,31,male,fellow,2019_Dec_04_1241,AdjustEyeTrack,3.1.5,59.76481148
110,Stimuli/Morph110.JPG,Stimuli/Morph110.png,Stimuli/BlurLevel5/BlurEditedMorph110,Stimuli/BlurLevel5/BlurEditedMorph110.png,Stimuli/BlurLevel5/NumberedMorphs/BlurEditedMorph110.png,Stimuli/BlurLevel5/OriginalBlur/BlurEditedMorph110.png,Stimuli/BlurMorphTrio/EditedMorph110.png,None,None,,,,,1,0,1,0,0,21,21,109,,,,,,,,,,,,,,,,,,,,,,,99,22,2,166,-2.425739316,0.604804739,110,Experiment,,,,,,,,,68,118,-8,-8,,,,,,,,,,,,,,,744.0970541,744.6149791,744.0970541,744.6149791,89.11564626,1575485609,1575485611,1.831577063,1575485607,1575485609,,,s10,1,31,male,fellow,2019_Dec_04_1241,AdjustEyeTrack,3.1.5,59.76481148
10,Stimuli/Morph10.JPG,Stimuli/Morph10.png,Stimuli/BlurLevel5/BlurEditedMorph10,Stimuli/BlurLevel5/BlurEditedMorph10.png,Stimuli/BlurLevel5/NumberedMorphs/BlurEditedMorph10.png,Stimuli/BlurLevel5/OriginalBlur/BlurEditedMorph10.png,Stimuli/BlurMorphTrio/EditedMorph10.png,010016right.gif,Stimuli/normal_thumbnails/10right.gif,,,,,1,0,1,0,0,22,22,9,,,,,,,,,,,,,,,,,,,,,,,55,23,2,108,-0.772542486,2.377641291,10,Experiment,,,,,,,,,91,7,3,3,,,,,,,,,,,,,,,748.4515522,748.964905,748.4515522,748.964905,95.91836735,1575485614,1575485617,3.100867033,1575485611,1575485614,,,s10,1,31,male,fellow,2019_Dec_04_1241,AdjustEyeTrack,3.1.5,59.76481148
138,Stimuli/Morph138.JPG,Stimuli/Morph138.png,Stimuli/BlurLevel5/BlurEditedMorph138,Stimuli/BlurLevel5/BlurEditedMorph138.png,Stimuli/BlurLevel5/NumberedMorphs/BlurEditedMorph138.png,Stimuli/BlurLevel5/OriginalBlur/BlurEditedMorph138.png,Stimuli/BlurMorphTrio/EditedMorph138.png,None,None,,,,,1,0,1,0,0,23,23,137,,,,,,,,,,,,,,,,,,,,,,,75,24,2,34,2.072593931,1.397982259,138,Experiment,,,,,,,,,51,132,6,6,,,,,,,,,,,,,,,753.8992115,754.4307046,753.8992115,754.4307046,91.83673469,1575485619,1575485625,6.035529137,1575485617,1575485619,,,s10,1,31,male,fellow,2019_Dec_04_1241,AdjustEyeTrack,3.1.5,59.76481148
49,Stimuli/Morph49.JPG,Stimuli/Morph49.png,Stimuli/BlurLevel5/BlurEditedMorph49,Stimuli/BlurLevel5/BlurEditedMorph49.png,Stimuli/BlurLevel5/NumberedMorphs/BlurEditedMorph49.png,Stimuli/BlurLevel5/OriginalBlur/BlurEditedMorph49.png,Stimuli/BlurMorphTrio/EditedMorph49.png,010135right.gif,Stimuli/normal_thumbnails/49right.gif,,,,,1,0,1,0,0,24,24,48,,,,,,,,,,,,,,,,,,,,,,,51,25,2,189,-2.469220851,-0.391086163,49,Experiment,,,,,,,,,145,49,0,0,,,,,,,,,,,,,,,763.1396957,763.6469893,763.1396957,763.6469893,100,1575485628,1575485631,2.533593893,1575485625,1575485628,,,s10,1,31,male,fellow,2019_Dec_04_1241,AdjustEyeTrack,3.1.5,59.76481148
78,Stimuli/Morph78.JPG,Stimuli/Morph78.png,Stimuli/BlurLevel5/BlurEditedMorph78,Stimuli/BlurLevel5/BlurEditedMorph78.png,Stimuli/BlurLevel5/NumberedMorphs/BlurEditedMorph78.png,Stimuli/BlurLevel5/OriginalBlur/BlurEditedMorph78.png,Stimuli/BlurMorphTrio/EditedMorph78.png,020238right.gif,Stimuli/normal_thumbnails/78right.gif,,,,,1,0,1,0,0,25,25,77,,,,,,,,,,,,,,,,,,,,,,,65,26,2,275,0.217889357,-2.490486745,78,Experiment,,,,,,,,,41,101,-23,-23,,,,,,,,,,,,,,,768.4990785,769.0140714,768.4990785,769.0140714,68.70748299,1575485634,1575485636,1.916191816,1575485631,1575485634,,,s10,1,31,male,fellow,2019_Dec_04_1241,AdjustEyeTrack,3.1.5,59.76481148
51,Stimuli/Morph51.JPG,Stimuli/Morph51.png,Stimuli/BlurLevel5/BlurEditedMorph51,Stimuli/BlurLevel5/BlurEditedMorph51.png,Stimuli/BlurLevel5/NumberedMorphs/BlurEditedMorph51.png,Stimuli/BlurLevel5/OriginalBlur/BlurEditedMorph51.png,Stimuli/BlurMorphTrio/EditedMorph51.png,010146right.gif,Stimuli/normal_thumbnails/51right.gif,,,,,1,0,1,0,0,26,26,50,,,,,,,,,,,,,,,,,,,,,,,20,27,2,146,-2.072593931,1.397982259,51,Experiment,,,,,,,,,44,55,-4,-4,,,,,,,,,,,,,,,773.2672801,773.796197,773.2672801,773.796197,94.55782313,1575485638,1575485641,2.747502804,1575485636,1575485638,,,s10,1,31,male,fellow,2019_Dec_04_1241,AdjustEyeTrack,3.1.5,59.76481148
143,Stimuli/Morph143.JPG,Stimuli/Morph143.png,Stimuli/BlurLevel5/BlurEditedMorph143,Stimuli/BlurLevel5/BlurEditedMorph143.png,Stimuli/BlurLevel5/NumberedMorphs/BlurEditedMorph143.png,Stimuli/BlurLevel5/OriginalBlur/BlurEditedMorph143.png,Stimuli/BlurMorphTrio/EditedMorph143.png,None,None,,,,,1,0,1,0,0,27,27,142,,,,,,,,,,,,,,,,,,,,,,,88,28,2,337,2.301262134,-0.976827821,143,Experiment,,,,,,,,,75,3,140,-7,,,,,,,,,,,,,,,779.0100948,779.5465667,779.0100948,779.5465667,90.47619048,1575485644,1575485646,1.834346056,1575485641,1575485644,,,s10,1,31,male,fellow,2019_Dec_04_1241,AdjustEyeTrack,3.1.5,59.76481148
126,Stimuli/Morph126.JPG,Stimuli/Morph126.png,Stimuli/BlurLevel5/BlurEditedMorph126,Stimuli/BlurLevel5/BlurEditedMorph126.png,Stimuli/BlurLevel5/NumberedMorphs/BlurEditedMorph126.png,Stimuli/BlurLevel5/OriginalBlur/BlurEditedMorph126.png,Stimuli/BlurMorphTrio/EditedMorph126.png,None,None,,,,,1,0,1,0,0,28,28,125,,,,,,,,,,,,,,,,,,,,,,,61,29,2,298,1.173678907,-2.207368982,126,Experiment,,,,,,,,,142,116,10,10,,,,,,,,,,,,,,,784.118141,784.6647395,784.118141,784.6647395,86.39455782,1575485649,1575485651,1.551134109,1575485646,1575485649,,,s10,1,31,male,fellow,2019_Dec_04_1241,AdjustEyeTrack,3.1.5,59.76481148
16,Stimuli/Morph16.JPG,Stimuli/Morph16.png,Stimuli/BlurLevel5/BlurEditedMorph16,Stimuli/BlurLevel5/BlurEditedMorph16.png,Stimuli/BlurLevel5/NumberedMorphs/BlurEditedMorph16.png,Stimuli/BlurLevel5/OriginalBlur/BlurEditedMorph16.png,Stimuli/BlurMorphTrio/EditedMorph16.png,010034right.gif,Stimuli/normal_thumbnails/16right.gif,,,,,1,0,1,0,0,29,29,15,,,,,,,,,,,,,,,,,,,,,,,36,30,2,135,-1.767766953,1.767766953,16,Experiment,,,,,,,,,51,2,14,14,,,,,,,,,,,,,,,788.8427202,789.3466745,788.8427202,789.3466745,80.95238095,1575485654,1575485656,1.767114878,1575485651,1575485654,,,s10,1,31,male,fellow,2019_Dec_04_1241,AdjustEyeTrack,3.1.5,59.76481148
147,Stimuli/Morph147.JPG,Stimuli/Morph147.png,Stimuli/BlurLevel5/BlurEditedMorph147,Stimuli/BlurLevel5/BlurEditedMorph147.png,Stimuli/BlurLevel5/NumberedMorphs/BlurEditedMorph147.png,Stimuli/BlurLevel5/OriginalBlur/BlurEditedMorph147.png,Stimuli/BlurMorphTrio/EditedMorph147.png,None,None,,,,,1,0,1,0,0,30,30,146,,,,,,,,,,,,,,,,,,,,,,,4,31,2,110,-0.855050358,2.349231552,147,Experiment,,,,,,,,,86,147,0,0,,,,,,,,,,,,,,,793.9154761,794.4138631,793.9154761,794.4138631,100,1575485659,1575485661,2.233326912,1575485656,1575485659,,,s10,1,31,male,fellow,2019_Dec_04_1241,AdjustEyeTrack,3.1.5,59.76481148
7,Stimuli/Morph7.JPG,Stimuli/Morph7.png,Stimuli/BlurLevel5/BlurEditedMorph7,Stimuli/BlurLevel5/BlurEditedMorph7.png,Stimuli/BlurLevel5/NumberedMorphs/BlurEditedMorph7.png,Stimuli/BlurLevel5/OriginalBlur/BlurEditedMorph7.png,Stimuli/BlurMorphTrio/EditedMorph7.png,010013right.gif,Stimuli/normal_thumbnails/7right.gif,,,,,1,0,1,0,0,31,31,6,,,,,,,,,,,,,,,,,,,,,,,46,32,2,17,2.39076189,0.730929262,7,Experiment,,,,,,,,,29,2,5,5,,,,,,,,,,,,,,,798.5173146,799.0145572,798.5173146,799.0145572,93.19727891,1575485664,1575485667,2.929606915,1575485662,1575485664,,,s10,1,31,male,fellow,2019_Dec_04_1241,AdjustEyeTrack,3.1.5,59.76481148
113,Stimuli/Morph113.JPG,Stimuli/Morph113.png,Stimuli/BlurLevel5/BlurEditedMorph113,Stimuli/BlurLevel5/BlurEditedMorph113.png,Stimuli/BlurLevel5/NumberedMorphs/BlurEditedMorph113.png,Stimuli/BlurLevel5/OriginalBlur/BlurEditedMorph113.png,Stimuli/BlurMorphTrio/EditedMorph113.png,None,None,,,,,1,0,1,0,0,32,32,112,,,,,,,,,,,,,,,,,,,,,,,2,33,2,247,-0.976827821,-2.301262134,113,Experiment,,,,,,,,,69,127,-14,-14,,,,,,,,,,,,,,,804.3206364,804.830835,804.3206364,804.830835,80.95238095,1575485669,1575485672,2.767960072,1575485667,1575485669,,,s10,1,31,male,fellow,2019_Dec_04_1241,AdjustEyeTrack,3.1.5,59.76481148
34,Stimuli/Morph34.JPG,Stimuli/Morph34.png,Stimuli/BlurLevel5/BlurEditedMorph34,Stimuli/BlurLevel5/BlurEditedMorph34.png,Stimuli/BlurLevel5/NumberedMorphs/BlurEditedMorph34.png,Stimuli/BlurLevel5/OriginalBlur/BlurEditedMorph34.png,Stimuli/BlurMorphTrio/EditedMorph34.png,010090right.gif,Stimuli/normal_thumbnails/34right.gif,,,,,1,0,1,0,0,33,33,33,,,,,,,,,,,,,,,,,,,,,,,96,34,2,65,1.056545654,2.265769468,34,Experiment,,,,,,,,,61,29,5,5,,,,,,,,,,,,,,,810.9636115,811.499331,810.9636115,811.499331,93.19727891,1575485676,1575485680,3.599300146,1575485673,1575485676,,,s10,1,31,male,fellow,2019_Dec_04_1241,AdjustEyeTrack,3.1.5,59.76481148
124,Stimuli/Morph124.JPG,Stimuli/Morph124.png,Stimuli/BlurLevel5/BlurEditedMorph124,Stimuli/BlurLevel5/BlurEditedMorph124.png,Stimuli/BlurLevel5/NumberedMorphs/BlurEditedMorph124.png,Stimuli/BlurLevel5/OriginalBlur/BlurEditedMorph124.png,Stimuli/BlurMorphTrio/EditedMorph124.png,None,None,,,,,1,0,1,0,0,34,34,123,,,,,,,,,,,,,,,,,,,,,,,31,35,2,32,2.12012024,1.324798161,124,Experiment,,,,,,,,,130,113,11,11,,,,,,,,,,,,,,,817.1835369,817.6971694,817.1835369,817.6971694,85.03401361,1575485682,1575485684,1.383926153,1575485680,1575485682,,,s10,1,31,male,fellow,2019_Dec_04_1241,AdjustEyeTrack,3.1.5,59.76481148
83,Stimuli/Morph83.JPG,Stimuli/Morph83.png,Stimuli/BlurLevel5/BlurEditedMorph83,Stimuli/BlurLevel5/BlurEditedMorph83.png,Stimuli/BlurLevel5/NumberedMorphs/BlurEditedMorph83.png,Stimuli/BlurLevel5/OriginalBlur/BlurEditedMorph83.png,Stimuli/BlurMorphTrio/EditedMorph83.png,020259right.gif,Stimuli/normal_thumbnails/83right.gif,,,,,1,0,1,0,0,35,35,82,,,,,,,,,,,,,,,,,,,,,,,95,36,2,317,1.828384254,-1.7049959,83,Experiment,,,,,,,,,143,90,-7,-7,,,,,,,,,,,,,,,821.701324,822.2294294,821.701324,822.2294294,90.47619048,1575485687,1575485689,2.349474907,1575485684,1575485687,,,s10,1,31,male,fellow,2019_Dec_04_1241,AdjustEyeTrack,3.1.5,59.76481148
135,Stimuli/Morph135.JPG,Stimuli/Morph135.png,Stimuli/BlurLevel5/BlurEditedMorph135,Stimuli/BlurLevel5/BlurEditedMorph135.png,Stimuli/BlurLevel5/NumberedMorphs/BlurEditedMorph135.png,Stimuli/BlurLevel5/OriginalBlur/BlurEditedMorph135.png,Stimuli/BlurMorphTrio/EditedMorph135.png,None,None,,,,,1,0,1,0,0,36,36,134,,,,,,,,,,,,,,,,,,,,,,,13,37,2,102,-0.519779227,2.445369002,135,Experiment,,,,,,,,,51,118,17,17,,,,,,,,,,,,,,,827.170437,827.6634889,827.170437,827.6634889,76.8707483,1575485692,1575485694,2.000832796,1575485689,1575485692,,,s10,1,31,male,fellow,2019_Dec_04_1241,AdjustEyeTrack,3.1.5,59.76481148
108,Stimuli/Morph108.JPG,Stimuli/Morph108.png,Stimuli/BlurLevel5/BlurEditedMorph108,Stimuli/BlurLevel5/BlurEditedMorph108.png,Stimuli/BlurLevel5/NumberedMorphs/BlurEditedMorph108.png,Stimuli/BlurLevel5/OriginalBlur/BlurEditedMorph108.png,Stimuli/BlurMorphTrio/EditedMorph108.png,None,None,,,,,1,0,1,0,0,37,37,107,,,,,,,,,,,,,,,,,,,,,,,25,38,2,137,-1.828384254,1.7049959,108,Experiment,,,,,,,,,46,116,-8,-8,,,,,,,,,,,,,,,831.7626997,832.2629848,831.7626997,832.2629848,89.11564626,1575485697,1575485699,1.834115982,1575485695,1575485697,,,s10,1,31,male,fellow,2019_Dec_04_1241,AdjustEyeTrack,3.1.5,59.76481148
58,Stimuli/Morph58.JPG,Stimuli/Morph58.png,Stimuli/BlurLevel5/BlurEditedMorph58,Stimuli/BlurLevel5/BlurEditedMorph58.png,Stimuli/BlurLevel5/NumberedMorphs/BlurEditedMorph58.png,Stimuli/BlurLevel5/OriginalBlur/BlurEditedMorph58.png,Stimuli/BlurMorphTrio/EditedMorph58.png,010159right.gif,Stimuli/normal_thumbnails/58right.gif,,,,,1,0,1,0,0,38,38,57,,,,,,,,,,,,,,,,,,,,,,,32,39,2,268,-0.087248742,-2.498477068,58,Experiment,,,,,,,,,81,52,6,6,,,,,,,,,,,,,,,836.5384197,837.0465929,836.5384197,837.0465929,91.83673469,1575485702,1575485704,1.985077858,1575485699,1575485702,,,s10,1,31,male,fellow,2019_Dec_04_1241,AdjustEyeTrack,3.1.5,59.76481148
88,Stimuli/Morph88.JPG,Stimuli/Morph88.png,Stimuli/BlurLevel5/BlurEditedMorph88,Stimuli/BlurLevel5/BlurEditedMorph88.png,Stimuli/BlurLevel5/NumberedMorphs/BlurEditedMorph88.png,Stimuli/BlurLevel5/OriginalBlur/BlurEditedMorph88.png,Stimuli/BlurMorphTrio/EditedMorph88.png,020271right.gif,Stimuli/normal_thumbnails/88right.gif,,,,,1,0,1,0,0,39,39,87,,,,,,,,,,,,,,,,,,,,,,,70,40,2,75,0.647047613,2.414814566,88,Experiment,,,,,,,,,13,93,-5,-5,,,,,,,,,,,,,,,841.0332749,841.5455481,841.0332749,841.5455481,93.19727891,1575485706,1575485708,2.133722067,1575485704,1575485706,,,s10,1,31,male,fellow,2019_Dec_04_1241,AdjustEyeTrack,3.1.5,59.76481148
90,Stimuli/Morph90.JPG,Stimuli/Morph90.png,Stimuli/BlurLevel5/BlurEditedMorph90,Stimuli/BlurLevel5/BlurEditedMorph90.png,Stimuli/BlurLevel5/NumberedMorphs/BlurEditedMorph90.png,Stimuli/BlurLevel5/OriginalBlur/BlurEditedMorph90.png,Stimuli/BlurMorphTrio/EditedMorph90.png,020275right.gif,Stimuli/normal_thumbnails/90right.gif,,,,,1,0,1,0,0,40,40,89,,,,,,,,,,,,,,,,,,,,,,,89,41,2,279,0.391086163,-2.469220851,90,Experiment,,,,,,,,,137,89,1,1,,,,,,,,,,,,,,,845.6836924,846.2292012,845.6836924,846.2292012,98.63945578,1575485711,1575485714,2.78243494,1575485709,1575485711,,,s10,1,31,male,fellow,2019_Dec_04_1241,AdjustEyeTrack,3.1.5,59.76481148
74,Stimuli/Morph74.JPG,Stimuli/Morph74.png,Stimuli/BlurLevel5/BlurEditedMorph74,Stimuli/BlurLevel5/BlurEditedMorph74.png,Stimuli/BlurLevel5/NumberedMorphs/BlurEditedMorph74.png,Stimuli/BlurLevel5/OriginalBlur/BlurEditedMorph74.png,Stimuli/BlurMorphTrio/EditedMorph74.png,020232right.gif,Stimuli/normal_thumbnails/74right.gif,,,,,1,0,1,0,0,41,41,73,,,,,,,,,,,,,,,,,,,,,,,76,42,2,297,1.134976249,-2.22751631,74,Experiment,,,,,,,,,32,90,-16,-16,,,,,,,,,,,,,,,850.755383,851.2643019,850.755383,851.2643019,78.23129252,1575485716,1575485718,2.298459291,1575485714,1575485716,,,s10,1,31,male,fellow,2019_Dec_04_1241,AdjustEyeTrack,3.1.5,59.76481148
133,Stimuli/Morph133.JPG,Stimuli/Morph133.png,Stimuli/BlurLevel5/BlurEditedMorph133,Stimuli/BlurLevel5/BlurEditedMorph133.png,Stimuli/BlurLevel5/NumberedMorphs/BlurEditedMorph133.png,Stimuli/BlurLevel5/OriginalBlur/BlurEditedMorph133.png,Stimuli/BlurMorphTrio/EditedMorph133.png,None,None,,,,,1,0,1,0,0,42,42,132,,,,,,,,,,,,,,,,,,,,,,,16,43,2,287,0.730929262,-2.39076189,133,Experiment,,,,,,,,,87,119,14,14,,,,,,,,,,,,,,,856.0835761,856.5967116,856.0835761,856.5967116,80.95238095,1575485721,1575485723,1.298156023,1575485718,1575485721,,,s10,1,31,male,fellow,2019_Dec_04_1241,AdjustEyeTrack,3.1.5,59.76481148
114,Stimuli/Morph114.JPG,Stimuli/Morph114.png,Stimuli/BlurLevel5/BlurEditedMorph114,Stimuli/BlurLevel5/BlurEditedMorph114.png,Stimuli/BlurLevel5/NumberedMorphs/BlurEditedMorph114.png,Stimuli/BlurLevel5/OriginalBlur/BlurEditedMorph114.png,Stimuli/BlurMorphTrio/EditedMorph114.png,None,None,,,,,1,0,1,0,0,43,43,113,,,,,,,,,,,,,,,,,,,,,,,68,44,2,212,-2.12012024,-1.324798161,114,Experiment,,,,,,,,,28,107,7,7,,,,,,,,,,,,,,,860.248814,860.7613754,860.248814,860.7613754,90.47619048,1575485725,1575485728,2.783374786,1575485723,1575485725,,,s10,1,31,male,fellow,2019_Dec_04_1241,AdjustEyeTrack,3.1.5,59.76481148
75,Stimuli/Morph75.JPG,Stimuli/Morph75.png,Stimuli/BlurLevel5/BlurEditedMorph75,Stimuli/BlurLevel5/BlurEditedMorph75.png,Stimuli/BlurLevel5/NumberedMorphs/BlurEditedMorph75.png,Stimuli/BlurLevel5/OriginalBlur/BlurEditedMorph75.png,Stimuli/BlurMorphTrio/EditedMorph75.png,020233right.gif,Stimuli/normal_thumbnails/75right.gif,,,,,1,0,1,0,0,44,44,74,,,,,,,,,,,,,,,,,,,,,,,56,45,2,24,2.283863644,1.016841608,75,Experiment,,,,,,,,,123,113,-38,-38,,,,,,,,,,,,,,,866.201064,866.7158706,866.201064,866.7158706,48.29931973,1575485731,1575485735,4.014846087,1575485728,1575485731,,,s10,1,31,male,fellow,2019_Dec_04_1241,AdjustEyeTrack,3.1.5,59.76481148
2,Stimuli/Morph2.JPG,Stimuli/Morph2.png,Stimuli/BlurLevel5/BlurEditedMorph2,Stimuli/BlurLevel5/BlurEditedMorph2.png,Stimuli/BlurLevel5/NumberedMorphs/BlurEditedMorph2.png,Stimuli/BlurLevel5/OriginalBlur/BlurEditedMorph2.png,Stimuli/BlurMorphTrio/EditedMorph2.png,010006right.gif,Stimuli/normal_thumbnails/2right.gif,,,,,1,0,1,0,0,45,45,1,,,,,,,,,,,,,,,,,,,,,,,99,46,2,279,0.391086163,-2.469220851,2,Experiment,,,,,,,,,107,145,-143,4,,,,,,,,,,,,,,,873.1005782,873.5962143,873.1005782,873.5962143,94.55782313,1575485738,1575485741,2.650794029,1575485736,1575485738,,,s10,1,31,male,fellow,2019_Dec_04_1241,AdjustEyeTrack,3.1.5,59.76481148
121,Stimuli/Morph121.JPG,Stimuli/Morph121.png,Stimuli/BlurLevel5/BlurEditedMorph121,Stimuli/BlurLevel5/BlurEditedMorph121.png,Stimuli/BlurLevel5/NumberedMorphs/BlurEditedMorph121.png,Stimuli/BlurLevel5/OriginalBlur/BlurEditedMorph121.png,Stimuli/BlurMorphTrio/EditedMorph121.png,None,None,,,,,1,0,1,0,0,46,46,120,,,,,,,,,,,,,,,,,,,,,,,37,47,2,104,-0.604804739,2.425739316,121,Experiment,,,,,,,,,140,130,-9,-9,,,,,,,,,,,,,,,878.2691844,878.8125082,878.2691844,878.8125082,87.75510204,1575485743,1575485745,1.999110222,1575485741,1575485743,,,s10,1,31,male,fellow,2019_Dec_04_1241,AdjustEyeTrack,3.1.5,59.76481148
77,Stimuli/Morph77.JPG,Stimuli/Morph77.png,Stimuli/BlurLevel5/BlurEditedMorph77,Stimuli/BlurLevel5/BlurEditedMorph77.png,Stimuli/BlurLevel5/NumberedMorphs/BlurEditedMorph77.png,Stimuli/BlurLevel5/OriginalBlur/BlurEditedMorph77.png,Stimuli/BlurMorphTrio/EditedMorph77.png,020235right.gif,Stimuli/normal_thumbnails/77right.gif,,,,,1,0,1,0,0,47,47,76,,,,,,,,,,,,,,,,,,,,,,,14,48,2,305,1.433941091,-2.047880111,77,Experiment,,,,,,,,,96,103,-26,-26,,,,,,,,,,,,,,,883.0084958,883.5142609,883.0084958,883.5142609,64.62585034,1575485748,1575485751,2.733286858,1575485746,1575485748,,,s10,1,31,male,fellow,2019_Dec_04_1241,AdjustEyeTrack,3.1.5,59.76481148
57,Stimuli/Morph57.JPG,Stimuli/Morph57.png,Stimuli/BlurLevel5/BlurEditedMorph57,Stimuli/BlurLevel5/BlurEditedMorph57.png,Stimuli/BlurLevel5/NumberedMorphs/BlurEditedMorph57.png,Stimuli/BlurLevel5/OriginalBlur/BlurEditedMorph57.png,Stimuli/BlurMorphTrio/EditedMorph57.png,010158right.gif,Stimuli/normal_thumbnails/57right.gif,,,,,1,0,1,0,0,48,48,56,,,,,,,,,,,,,,,,,,,,,,,79,49,2,301,1.287595187,-2.142918252,57,Experiment,,,,,,,,,140,91,-34,-34,,,,,,,,,,,,,,,888.4154497,888.9784841,888.4154497,888.9784841,53.7414966,1575485754,1575485755,1.583345175,1575485751,1575485754,,,s10,1,31,male,fellow,2019_Dec_04_1241,AdjustEyeTrack,3.1.5,59.76481148
33,Stimuli/Morph33.JPG,Stimuli/Morph33.png,Stimuli/BlurLevel5/BlurEditedMorph33,Stimuli/BlurLevel5/BlurEditedMorph33.png,Stimuli/BlurLevel5/NumberedMorphs/BlurEditedMorph33.png,Stimuli/BlurLevel5/OriginalBlur/BlurEditedMorph33.png,Stimuli/BlurMorphTrio/EditedMorph33.png,010089right.gif,Stimuli/normal_thumbnails/33right.gif,,,,,1,0,1,0,0,49,49,32,,,,,,,,,,,,,,,,,,,,,,,67,50,2,294,1.016841608,-2.283863644,33,Experiment,,,,,,,,,130,28,5,5,,,,,,,,,,,,,,,892.9965446,893.4951643,892.9965446,893.4951643,93.19727891,1575485758,1575485761,3.11986208,1575485755,1575485758,,,s10,1,31,male,fellow,2019_Dec_04_1241,AdjustEyeTrack,3.1.5,59.76481148
50,Stimuli/Morph50.JPG,Stimuli/Morph50.png,Stimuli/BlurLevel5/BlurEditedMorph50,Stimuli/BlurLevel5/BlurEditedMorph50.png,Stimuli/BlurLevel5/NumberedMorphs/BlurEditedMorph50.png,Stimuli/BlurLevel5/OriginalBlur/BlurEditedMorph50.png,Stimuli/BlurMorphTrio/EditedMorph50.png,010142right.gif,Stimuli/normal_thumbnails/50right.gif,,,,,1,0,1,0,0,50,50,49,,,,,,,,,,,,,,,,,,,,,,,29,51,2,127,-1.504537558,1.996588775,50,Experiment,,,,,,,,,68,103,-53,-53,,,,,,,,,,,,,,,899.3951995,899.9153965,899.3951995,899.9153965,27.89115646,1575485765,1575485767,2.750056028,1575485762,1575485765,,,s10,1,31,male,fellow,2019_Dec_04_1241,AdjustEyeTrack,3.1.5,59.76481148
55,Stimuli/Morph55.JPG,Stimuli/Morph55.png,Stimuli/BlurLevel5/BlurEditedMorph55,Stimuli/BlurLevel5/BlurEditedMorph55.png,Stimuli/BlurLevel5/NumberedMorphs/BlurEditedMorph55.png,Stimuli/BlurLevel5/OriginalBlur/BlurEditedMorph55.png,Stimuli/BlurMorphTrio/EditedMorph55.png,010151right.gif,Stimuli/normal_thumbnails/55right.gif,,,,,1,0,1,0,0,51,51,54,,,,,,,,,,,,,,,,,,,,,,,57,52,2,55,1.433941091,2.047880111,55,Experiment,,,,,,,,,26,53,2,2,,,,,,,,,,,,,,,905.1381113,905.6478874,905.1381113,905.6478874,97.27891156,1575485770,1575485774,3.617673874,1575485768,1575485770,,,s10,1,31,male,fellow,2019_Dec_04_1241,AdjustEyeTrack,3.1.5,59.76481148
134,Stimuli/Morph134.JPG,Stimuli/Morph134.png,Stimuli/BlurLevel5/BlurEditedMorph134,Stimuli/BlurLevel5/BlurEditedMorph134.png,Stimuli/BlurLevel5/NumberedMorphs/BlurEditedMorph134.png,Stimuli/BlurLevel5/OriginalBlur/BlurEditedMorph134.png,Stimuli/BlurMorphTrio/EditedMorph134.png,None,None,,,,,1,0,1,0,0,52,52,133,,,,,,,,,,,,,,,,,,,,,,,74,53,2,91,-0.043631016,2.499619238,134,Experiment,,,,,,,,,22,4,130,-17,,,,,,,,,,,,,,,911.4155127,911.9139922,911.4155127,911.9139922,76.8707483,1575485777,1575485779,2.436686754,1575485774,1575485777,,,s10,1,31,male,fellow,2019_Dec_04_1241,AdjustEyeTrack,3.1.5,59.76481148
127,Stimuli/Morph127.JPG,Stimuli/Morph127.png,Stimuli/BlurLevel5/BlurEditedMorph127,Stimuli/BlurLevel5/BlurEditedMorph127.png,Stimuli/BlurLevel5/NumberedMorphs/BlurEditedMorph127.png,Stimuli/BlurLevel5/OriginalBlur/BlurEditedMorph127.png,Stimuli/BlurMorphTrio/EditedMorph127.png,None,None,,,,,1,0,1,0,0,53,53,126,,,,,,,,,,,,,,,,,,,,,,,29,54,2,239,-1.287595187,-2.142918252,127,Experiment,,,,,,,,,142,108,19,19,,,,,,,,,,,,,,,916.6241481,917.1309289,916.6241481,917.1309289,74.14965986,1575485782,1575485784,1.999511003,1575485779,1575485782,,,s10,1,31,male,fellow,2019_Dec_04_1241,AdjustEyeTrack,3.1.5,59.76481148
38,Stimuli/Morph38.JPG,Stimuli/Morph38.png,Stimuli/BlurLevel5/BlurEditedMorph38,Stimuli/BlurLevel5/BlurEditedMorph38.png,Stimuli/BlurLevel5/NumberedMorphs/BlurEditedMorph38.png,Stimuli/BlurLevel5/OriginalBlur/BlurEditedMorph38.png,Stimuli/BlurMorphTrio/EditedMorph38.png,010108right.gif,Stimuli/normal_thumbnails/38right.gif,,,,,1,0,1,0,0,54,54,37,,,,,,,,,,,,,,,,,,,,,,,71,55,2,1,2.499619238,0.043631016,38,Experiment,,,,,,,,,54,40,-2,-2,,,,,,,,,,,,,,,921.0621923,921.5774705,921.0621923,921.5774705,97.27891156,1575485786,1575485789,2.952495098,1575485784,1575485786,,,s10,1,31,male,fellow,2019_Dec_04_1241,AdjustEyeTrack,3.1.5,59.76481148
111,Stimuli/Morph111.JPG,Stimuli/Morph111.png,Stimuli/BlurLevel5/BlurEditedMorph111,Stimuli/BlurLevel5/BlurEditedMorph111.png,Stimuli/BlurLevel5/NumberedMorphs/BlurEditedMorph111.png,Stimuli/BlurLevel5/OriginalBlur/BlurEditedMorph111.png,Stimuli/BlurMorphTrio/EditedMorph111.png,None,None,,,,,1,0,1,0,0,55,55,110,,,,,,,,,,,,,,,,,,,,,,,5,56,2,242,-1.173678907,-2.207368982,111,Experiment,,,,,,,,,136,128,-17,-17,,,,,,,,,,,,,,,926.8146181,927.3282586,926.8146181,927.3282586,76.8707483,1575485792,1575485795,3.401099682,1575485789,1575485792,,,s10,1,31,male,fellow,2019_Dec_04_1241,AdjustEyeTrack,3.1.5,59.76481148
63,Stimuli/Morph63.JPG,Stimuli/Morph63.png,Stimuli/BlurLevel5/BlurEditedMorph63,Stimuli/BlurLevel5/BlurEditedMorph63.png,Stimuli/BlurLevel5/NumberedMorphs/BlurEditedMorph63.png,Stimuli/BlurLevel5/OriginalBlur/BlurEditedMorph63.png,Stimuli/BlurMorphTrio/EditedMorph63.png,020206right.gif,Stimuli/normal_thumbnails/63right.gif,,,,,1,0,1,0,0,56,56,62,,,,,,,,,,,,,,,,,,,,,,,88,57,2,38,1.970026884,1.539153688,63,Experiment,,,,,,,,,130,56,7,7,,,,,,,,,,,,,,,933.5115328,934.0127289,933.5115328,934.0127289,90.47619048,1575485799,1575485803,4.316864014,1575485796,1575485799,,,s10,1,31,male,fellow,2019_Dec_04_1241,AdjustEyeTrack,3.1.5,59.76481148
116,Stimuli/Morph116.JPG,Stimuli/Morph116.png,Stimuli/BlurLevel5/BlurEditedMorph116,Stimuli/BlurLevel5/BlurEditedMorph116.png,Stimuli/BlurLevel5/NumberedMorphs/BlurEditedMorph116.png,Stimuli/BlurLevel5/OriginalBlur/BlurEditedMorph116.png,Stimuli/BlurMorphTrio/EditedMorph116.png,None,None,,,,,1,0,1,0,0,57,57,115,,,,,,,,,,,,,,,,,,,,,,,46,58,2,251,-0.813920386,-2.363796439,116,Experiment,,,,,,,,,3,104,12,12,,,,,,,,,,,,,,,940.194282,940.6942431,940.194282,940.6942431,83.67346939,1575485805,1575485807,1.400999069,1575485803,1575485805,,,s10,1,31,male,fellow,2019_Dec_04_1241,AdjustEyeTrack,3.1.5,59.76481148
1,Stimuli/Morph1.JPG,Stimuli/Morph1.png,Stimuli/BlurLevel5/BlurEditedMorph1,Stimuli/BlurLevel5/BlurEditedMorph1.png,Stimuli/BlurLevel5/NumberedMorphs/BlurEditedMorph1.png,Stimuli/BlurLevel5/OriginalBlur/BlurEditedMorph1.png,Stimuli/BlurMorphTrio/EditedMorph1.png,010003right.gif,Stimuli/normal_thumbnails/1right.gif,,,,,1,0,1,0,0,58,58,0,,,,,,,,,,,,,,,,,,,,,,,10,59,2,162,-2.377641291,0.772542486,1,Experiment,,,,,,,,,29,139,-138,9,,,,,,,,,,,,,,,944.1796436,944.6936172,944.1796436,944.6936172,87.75510204,1575485809,1575485812,2.234275818,1575485807,1575485809,,,s10,1,31,male,fellow,2019_Dec_04_1241,AdjustEyeTrack,3.1.5,59.76481148
32,Stimuli/Morph32.JPG,Stimuli/Morph32.png,Stimuli/BlurLevel5/BlurEditedMorph32,Stimuli/BlurLevel5/BlurEditedMorph32.png,Stimuli/BlurLevel5/NumberedMorphs/BlurEditedMorph32.png,Stimuli/BlurLevel5/OriginalBlur/BlurEditedMorph32.png,Stimuli/BlurMorphTrio/EditedMorph32.png,010080right.gif,Stimuli/normal_thumbnails/32right.gif,,,,,1,0,1,0,0,59,59,31,,,,,,,,,,,,,,,,,,,,,,,27,60,2,114,-1.016841608,2.283863644,32,Experiment,,,,,,,,,25,28,4,4,,,,,,,,,,,,,,,949.0285277,949.5445189,949.0285277,949.5445189,94.55782313,1575485814,1575485816,1.330899239,1575485812,1575485814,,,s10,1,31,male,fellow,2019_Dec_04_1241,AdjustEyeTrack,3.1.5,59.76481148
