stimulusID,stimulus_JPG,stimulusPath,stimulusPath2,stimulusPath3,stimulusPath4,stimulusPath5,stimulusPath6,xRayOriginal,xRayPath,Training.thisRepN,Training.thisTrialN,Training.thisN,Training.thisIndex,Blocks.thisRepN,Blocks.thisTrialN,Blocks.thisN,Blocks.thisIndex,Trials.thisRepN,Trials.thisTrialN,Trials.thisN,Trials.thisIndex,text_2.started,text_2.stopped,image.started,image.stopped,image_2.started,image_2.stopped,image_3.started,image_3.stopped,image_4.started,image_4.stopped,image_6.started,image_6.stopped,image_7.started,image_7.stopped,image_8.started,image_8.stopped,image_9.started,image_9.stopped,image_10.started,image_10.stopped,image_12.started,image_12.stopped,xrayID,trialNumber,blockNumber,stimLocationDeg,stimXCoord,stimYCoord,stimulusID,blockType,trainingXray.started,trainingXray.stopped,trainingTumors.started,trainingTumors.stopped,trainingScore%,startTrainingRespTime,endTrainingRespTime,trainingRT,morphTrack,morphID,errorRaw,errorCorrected,startTrainingStimTime,endTrainingStimTime,key_resp_3.keys,key_resp_3.rt,text.started,text.stopped,text_3.started,text_3.stopped,text_4.started,text_4.stopped,key_resp_5.keys,key_resp_5.rt,key_resp_5.started,key_resp_5.stopped,xray1.started,xray1.stopped,tumors.started,tumors.stopped,trialCorrect%,startRespTime,endRespTime,RT,startStimTime,endStimTime,key_resp.keys,key_resp.rt,participant,session,age,gender,status,date,expName,psychopyVersion,frameRate
97,Stimuli/Morph97.JPG,Stimuli/Morph97.png,Stimuli/BlurLevel5/BlurEditedMorph97,Stimuli/BlurLevel5/BlurEditedMorph97.png,Stimuli/BlurLevel5/NumberedMorphs/BlurEditedMorph97.png,Stimuli/BlurLevel5/OriginalBlur/BlurEditedMorph97.png,Stimuli/BlurMorphTrio/EditedMorph97.png,020294right.gif,Stimuli/normal_thumbnails/97right.gif,0,0,0,96,,,,,,,,,54.39540325,None,54.39540325,None,54.39540325,None,54.39540325,None,54.39540325,None,54.39540325,None,54.39540325,None,54.39540325,None,54.39540325,None,54.39540325,None,54.39540325,None,44,-100,-100,140,-1.915111108,1.606969024,97,training,102.8291651,103.3285659,102.8291651,103.3285659,97.27891156,1575559459,1575559466,7.083406925,29,99,-2,-2,1575559456,1575559459,space,2.831012499,,,,,,,,,,,,,,,,,,,,,,,s12,1,59,f,expert radiologist,2019_Dec_05_0923,AdjustEyeTrack,3.1.5,60.2276238
27,Stimuli/Morph27.JPG,Stimuli/Morph27.png,Stimuli/BlurLevel5/BlurEditedMorph27,Stimuli/BlurLevel5/BlurEditedMorph27.png,Stimuli/BlurLevel5/NumberedMorphs/BlurEditedMorph27.png,Stimuli/BlurLevel5/OriginalBlur/BlurEditedMorph27.png,Stimuli/BlurMorphTrio/EditedMorph27.png,010072right.gif,Stimuli/normal_thumbnails/27right.gif,0,1,1,26,,,,,,,,,,,,,,,,,,,,,,,,,,,,,,,94,-100,-100,91,-0.043631016,2.499619238,27,training,115.3943104,115.8939642,115.3943104,115.8939642,68.70748299,1575559471,1575559474,3.100467205,12,50,-23,-23,1575559469,1575559471,space,7.353182491,,,,,,,,,,,,,,,,,,,,,,,s12,1,59,f,expert radiologist,2019_Dec_05_0923,AdjustEyeTrack,3.1.5,60.2276238
57,Stimuli/Morph57.JPG,Stimuli/Morph57.png,Stimuli/BlurLevel5/BlurEditedMorph57,Stimuli/BlurLevel5/BlurEditedMorph57.png,Stimuli/BlurLevel5/NumberedMorphs/BlurEditedMorph57.png,Stimuli/BlurLevel5/OriginalBlur/BlurEditedMorph57.png,Stimuli/BlurMorphTrio/EditedMorph57.png,010158right.gif,Stimuli/normal_thumbnails/57right.gif,0,2,2,56,,,,,,,,,,,,,,,,,,,,,,,,,,,,,,,58,-100,-100,116,-1.095927867,2.246985116,57,training,128.3494297,128.8448313,128.3494297,128.8448313,94.55782313,1575559484,1575559488,4.18280983,100,53,4,4,1575559482,1575559484,space,10.74506003,,,,,,,,,,,,,,,,,,,,,,,s12,1,59,f,expert radiologist,2019_Dec_05_0923,AdjustEyeTrack,3.1.5,60.2276238
64,Stimuli/Morph64.JPG,Stimuli/Morph64.png,Stimuli/BlurLevel5/BlurEditedMorph64,Stimuli/BlurLevel5/BlurEditedMorph64.png,Stimuli/BlurLevel5/NumberedMorphs/BlurEditedMorph64.png,Stimuli/BlurLevel5/OriginalBlur/BlurEditedMorph64.png,Stimuli/BlurMorphTrio/EditedMorph64.png,020208right.gif,Stimuli/normal_thumbnails/64right.gif,0,3,3,63,,,,,,,,,,,,,,,,,,,,,,,,,,,,,,,48,-100,-100,245,-1.056545654,-2.265769468,64,training,145.8241617,146.327843,145.8241617,146.327843,71.42857143,1575559502,1575559526,24.91657186,44,43,21,21,1575559499,1575559502,space,4.182453686,,,,,,,,,,,,,,,,,,,,,,,s12,1,59,f,expert radiologist,2019_Dec_05_0923,AdjustEyeTrack,3.1.5,60.2276238
63,Stimuli/Morph63.JPG,Stimuli/Morph63.png,Stimuli/BlurLevel5/BlurEditedMorph63,Stimuli/BlurLevel5/BlurEditedMorph63.png,Stimuli/BlurLevel5/NumberedMorphs/BlurEditedMorph63.png,Stimuli/BlurLevel5/OriginalBlur/BlurEditedMorph63.png,Stimuli/BlurMorphTrio/EditedMorph63.png,020206right.gif,Stimuli/normal_thumbnails/63right.gif,0,4,4,62,,,,,,,,,,,,,,,,,,,,,,,,,,,,,,,21,-100,-100,303,1.361597588,-2.09667642,63,training,177.47676,177.9768468,177.47676,177.9768468,61.9047619,1575559533,1575559538,5.24969697,35,35,28,28,1575559531,1575559533,space,1.03593474,,,,,,,,,,,,,,,,,,,,,,,s12,1,59,f,expert radiologist,2019_Dec_05_0923,AdjustEyeTrack,3.1.5,60.2276238
72,Stimuli/Morph72.JPG,Stimuli/Morph72.png,Stimuli/BlurLevel5/BlurEditedMorph72,Stimuli/BlurLevel5/BlurEditedMorph72.png,Stimuli/BlurLevel5/NumberedMorphs/BlurEditedMorph72.png,Stimuli/BlurLevel5/OriginalBlur/BlurEditedMorph72.png,Stimuli/BlurMorphTrio/EditedMorph72.png,020227right.gif,Stimuli/normal_thumbnails/72right.gif,0,5,5,71,,,,,,,,,,,,,,,,,,,,,,,,,,,,,,,18,-100,-100,120,-1.25,2.165063509,72,training,185.9438729,186.4432541,185.9438729,186.4432541,0.680272109,1575559542,1575559577,35.26534891,146,146,-74,73,1575559540,1575559542,space,2.343319544,,,,,,,,,,,,,,,,,,,,,,,s12,1,59,f,expert radiologist,2019_Dec_05_0923,AdjustEyeTrack,3.1.5,60.2276238
107,Stimuli/Morph107.JPG,Stimuli/Morph107.png,Stimuli/BlurLevel5/BlurEditedMorph107,Stimuli/BlurLevel5/BlurEditedMorph107.png,Stimuli/BlurLevel5/NumberedMorphs/BlurEditedMorph107.png,Stimuli/BlurLevel5/OriginalBlur/BlurEditedMorph107.png,Stimuli/BlurMorphTrio/EditedMorph107.png,None,None,0,6,6,106,,,,,,,,,,,,,,,,,,,,,,,,,,,,,,,3,-100,-100,276,0.261321158,-2.486304738,107,training,226.3634262,226.8600342,226.3634262,226.8600342,97.27891156,1575559582,1575559592,9.799610138,56,105,2,2,1575559579,1575559582,space,4.348011112,,,,,,,,,,,,,,,,,,,,,,,s12,1,59,f,expert radiologist,2019_Dec_05_0923,AdjustEyeTrack,3.1.5,60.2276238
95,Stimuli/Morph95.JPG,Stimuli/Morph95.png,Stimuli/BlurLevel5/BlurEditedMorph95,Stimuli/BlurLevel5/BlurEditedMorph95.png,Stimuli/BlurLevel5/NumberedMorphs/BlurEditedMorph95.png,Stimuli/BlurLevel5/OriginalBlur/BlurEditedMorph95.png,Stimuli/BlurMorphTrio/EditedMorph95.png,020287right.gif,Stimuli/normal_thumbnails/95right.gif,0,7,7,94,,,,,,,,,,,,,,,,,,,,,,,,,,,,,,,7,-100,-100,290,0.855050358,-2.349231552,95,training,243.1656358,243.6591546,243.1656358,243.6591546,91.83673469,1575559599,1575559609,9.683393002,52,89,6,6,1575559596,1575559599,space,3.828358452,,,,,,,,,,,,,,,,,,,,,,,s12,1,59,f,expert radiologist,2019_Dec_05_0923,AdjustEyeTrack,3.1.5,60.2276238
46,Stimuli/Morph46.JPG,Stimuli/Morph46.png,Stimuli/BlurLevel5/BlurEditedMorph46,Stimuli/BlurLevel5/BlurEditedMorph46.png,Stimuli/BlurLevel5/NumberedMorphs/BlurEditedMorph46.png,Stimuli/BlurLevel5/OriginalBlur/BlurEditedMorph46.png,Stimuli/BlurMorphTrio/EditedMorph46.png,010128right.gif,Stimuli/normal_thumbnails/46right.gif,0,8,8,45,,,,,,,,,,,,,,,,,,,,,,,,,,,,,,,66,-100,-100,206,-2.246985116,-1.095927867,46,training,259.1289934,259.6256373,259.1289934,259.6256373,87.75510204,1575559615,1575559633,18.0500772,4,55,-9,-9,1575559612,1575559615,space,1.924830623,,,,,,,,,,,,,,,,,,,,,,,s12,1,59,f,expert radiologist,2019_Dec_05_0923,AdjustEyeTrack,3.1.5,60.2276238
91,Stimuli/Morph91.JPG,Stimuli/Morph91.png,Stimuli/BlurLevel5/BlurEditedMorph91,Stimuli/BlurLevel5/BlurEditedMorph91.png,Stimuli/BlurLevel5/NumberedMorphs/BlurEditedMorph91.png,Stimuli/BlurLevel5/OriginalBlur/BlurEditedMorph91.png,Stimuli/BlurMorphTrio/EditedMorph91.png,020276right.gif,Stimuli/normal_thumbnails/91right.gif,0,9,9,90,,,,,,,,,,,,,,,,,,,,,,,,,,,,,,,92,-100,-100,290,0.855050358,-2.349231552,91,training,281.9814976,282.4758818,281.9814976,282.4758818,95.91836735,1575559638,1575559641,3.514708996,88,88,3,3,1575559635,1575559638,space,2.310050285,,,,,,,,,,,,,,,,,,,,,,,s12,1,59,f,expert radiologist,2019_Dec_05_0923,AdjustEyeTrack,3.1.5,60.2276238
,,,,,,,,,,,,,,,,,,,,,,,,,,,,,,,,,,,,,,,,,,,,,-100,-100,,,,,training,,,,,,,,,,,,,,,,,289.4583609,None,289.4583609,None,289.4583609,None,space,48.77742911,289.4583609,None,,,,,,,,,,,,,s12,1,59,f,expert radiologist,2019_Dec_05_0923,AdjustEyeTrack,3.1.5,60.2276238
34,Stimuli/Morph34.JPG,Stimuli/Morph34.png,Stimuli/BlurLevel5/BlurEditedMorph34,Stimuli/BlurLevel5/BlurEditedMorph34.png,Stimuli/BlurLevel5/NumberedMorphs/BlurEditedMorph34.png,Stimuli/BlurLevel5/OriginalBlur/BlurEditedMorph34.png,Stimuli/BlurMorphTrio/EditedMorph34.png,010090right.gif,Stimuli/normal_thumbnails/34right.gif,,,,,0,0,0,0,0,0,0,33,,,,,,,,,,,,,,,,,,,,,,,9,1,1,143,-1.996588775,1.504537558,34,Experiment,,,,,,,,,136,137,-103,44,,,,,,,,,,,,,,,339.2204461,339.7255901,339.2204461,339.7255901,40.13605442,1575559695,1575559709,13.68322492,1575559693,1575559695,,,s12,1,59,f,expert radiologist,2019_Dec_05_0923,AdjustEyeTrack,3.1.5,60.2276238
20,Stimuli/Morph20.JPG,Stimuli/Morph20.png,Stimuli/BlurLevel5/BlurEditedMorph20,Stimuli/BlurLevel5/BlurEditedMorph20.png,Stimuli/BlurLevel5/NumberedMorphs/BlurEditedMorph20.png,Stimuli/BlurLevel5/OriginalBlur/BlurEditedMorph20.png,Stimuli/BlurMorphTrio/EditedMorph20.png,010046right.gif,Stimuli/normal_thumbnails/20right.gif,,,,,0,0,0,0,0,1,1,19,,,,,,,,,,,,,,,,,,,,,,,74,2,1,292,0.936516484,-2.317959636,20,Experiment,,,,,,,,,105,8,12,12,,,,,,,,,,,,,,,355.8079597,356.3081196,355.8079597,356.3081196,83.67346939,1575559712,1575559715,3.433238983,1575559709,1575559711,,,s12,1,59,f,expert radiologist,2019_Dec_05_0923,AdjustEyeTrack,3.1.5,60.2276238
117,Stimuli/Morph117.JPG,Stimuli/Morph117.png,Stimuli/BlurLevel5/BlurEditedMorph117,Stimuli/BlurLevel5/BlurEditedMorph117.png,Stimuli/BlurLevel5/NumberedMorphs/BlurEditedMorph117.png,Stimuli/BlurLevel5/OriginalBlur/BlurEditedMorph117.png,Stimuli/BlurMorphTrio/EditedMorph117.png,None,None,,,,,0,0,0,0,0,2,2,116,,,,,,,,,,,,,,,,,,,,,,,60,3,1,239,-1.287595187,-2.142918252,117,Experiment,,,,,,,,,63,97,20,20,,,,,,,,,,,,,,,362.2265106,362.7246914,362.2265106,362.7246914,72.78911565,1575559718,1575559721,2.733784199,1575559715,1575559718,,,s12,1,59,f,expert radiologist,2019_Dec_05_0923,AdjustEyeTrack,3.1.5,60.2276238
138,Stimuli/Morph138.JPG,Stimuli/Morph138.png,Stimuli/BlurLevel5/BlurEditedMorph138,Stimuli/BlurLevel5/BlurEditedMorph138.png,Stimuli/BlurLevel5/NumberedMorphs/BlurEditedMorph138.png,Stimuli/BlurLevel5/OriginalBlur/BlurEditedMorph138.png,Stimuli/BlurMorphTrio/EditedMorph138.png,None,None,,,,,0,0,0,0,0,3,3,137,,,,,,,,,,,,,,,,,,,,,,,50,4,1,245,-1.056545654,-2.265769468,138,Experiment,,,,,,,,,48,48,90,-57,,,,,,,,,,,,,,,367.7407544,368.2410828,367.7407544,368.2410828,22.44897959,1575559723,1575559724,0.100224018,1575559721,1575559723,,,s12,1,59,f,expert radiologist,2019_Dec_05_0923,AdjustEyeTrack,3.1.5,60.2276238
134,Stimuli/Morph134.JPG,Stimuli/Morph134.png,Stimuli/BlurLevel5/BlurEditedMorph134,Stimuli/BlurLevel5/BlurEditedMorph134.png,Stimuli/BlurLevel5/NumberedMorphs/BlurEditedMorph134.png,Stimuli/BlurLevel5/OriginalBlur/BlurEditedMorph134.png,Stimuli/BlurMorphTrio/EditedMorph134.png,None,None,,,,,0,0,0,0,0,4,4,133,,,,,,,,,,,,,,,,,,,,,,,8,5,1,111,-0.895919874,2.333951066,134,Experiment,,,,,,,,,44,44,90,-57,,,,,,,,,,,,,,,370.8017024,371.2908663,370.8017024,371.2908663,22.44897959,1575559726,1575559732,5.616877079,1575559724,1575559726,,,s12,1,59,f,expert radiologist,2019_Dec_05_0923,AdjustEyeTrack,3.1.5,60.2276238
96,Stimuli/Morph96.JPG,Stimuli/Morph96.png,Stimuli/BlurLevel5/BlurEditedMorph96,Stimuli/BlurLevel5/BlurEditedMorph96.png,Stimuli/BlurLevel5/NumberedMorphs/BlurEditedMorph96.png,Stimuli/BlurLevel5/OriginalBlur/BlurEditedMorph96.png,Stimuli/BlurMorphTrio/EditedMorph96.png,020292right.gif,Stimuli/normal_thumbnails/96right.gif,,,,,0,0,0,0,0,5,5,95,,,,,,,,,,,,,,,,,,,,,,,55,6,1,2,2.498477068,0.087248742,96,Experiment,,,,,,,,,73,109,-13,-13,,,,,,,,,,,,,,,379.5911415,380.0916178,379.5911415,380.0916178,82.31292517,1575559735,1575559737,1.916756868,1575559733,1575559735,,,s12,1,59,f,expert radiologist,2019_Dec_05_0923,AdjustEyeTrack,3.1.5,60.2276238
52,Stimuli/Morph52.JPG,Stimuli/Morph52.png,Stimuli/BlurLevel5/BlurEditedMorph52,Stimuli/BlurLevel5/BlurEditedMorph52.png,Stimuli/BlurLevel5/NumberedMorphs/BlurEditedMorph52.png,Stimuli/BlurLevel5/OriginalBlur/BlurEditedMorph52.png,Stimuli/BlurMorphTrio/EditedMorph52.png,010148right.gif,Stimuli/normal_thumbnails/52right.gif,,,,,0,0,0,0,0,6,6,51,,,,,,,,,,,,,,,,,,,,,,,12,7,1,111,-0.895919874,2.333951066,52,Experiment,,,,,,,,,65,65,-13,-13,,,,,,,,,,,,,,,384.3097581,384.8072511,384.3097581,384.8072511,82.31292517,1575559740,1575559741,1.249753952,1575559737,1575559740,,,s12,1,59,f,expert radiologist,2019_Dec_05_0923,AdjustEyeTrack,3.1.5,60.2276238
62,Stimuli/Morph62.JPG,Stimuli/Morph62.png,Stimuli/BlurLevel5/BlurEditedMorph62,Stimuli/BlurLevel5/BlurEditedMorph62.png,Stimuli/BlurLevel5/NumberedMorphs/BlurEditedMorph62.png,Stimuli/BlurLevel5/OriginalBlur/BlurEditedMorph62.png,Stimuli/BlurMorphTrio/EditedMorph62.png,020205right.gif,Stimuli/normal_thumbnails/62right.gif,,,,,0,0,0,0,0,7,7,61,,,,,,,,,,,,,,,,,,,,,,,38,8,1,67,0.976827821,2.301262134,62,Experiment,,,,,,,,,86,145,-83,64,,,,,,,,,,,,,,,388.391308,388.8912092,388.391308,388.8912092,12.92517007,1575559744,1575559748,4.049585819,1575559742,1575559744,,,s12,1,59,f,expert radiologist,2019_Dec_05_0923,AdjustEyeTrack,3.1.5,60.2276238
28,Stimuli/Morph28.JPG,Stimuli/Morph28.png,Stimuli/BlurLevel5/BlurEditedMorph28,Stimuli/BlurLevel5/BlurEditedMorph28.png,Stimuli/BlurLevel5/NumberedMorphs/BlurEditedMorph28.png,Stimuli/BlurLevel5/OriginalBlur/BlurEditedMorph28.png,Stimuli/BlurMorphTrio/EditedMorph28.png,010073right.gif,Stimuli/normal_thumbnails/28right.gif,,,,,0,0,0,0,0,8,8,27,,,,,,,,,,,,,,,,,,,,,,,26,9,1,95,-0.217889357,2.490486745,28,Experiment,,,,,,,,,96,35,-7,-7,,,,,,,,,,,,,,,395.1586735,395.6595446,395.1586735,395.6595446,90.47619048,1575559751,1575559755,3.790761948,1575559748,1575559751,,,s12,1,59,f,expert radiologist,2019_Dec_05_0923,AdjustEyeTrack,3.1.5,60.2276238
76,Stimuli/Morph76.JPG,Stimuli/Morph76.png,Stimuli/BlurLevel5/BlurEditedMorph76,Stimuli/BlurLevel5/BlurEditedMorph76.png,Stimuli/BlurLevel5/NumberedMorphs/BlurEditedMorph76.png,Stimuli/BlurLevel5/OriginalBlur/BlurEditedMorph76.png,Stimuli/BlurMorphTrio/EditedMorph76.png,020234right.gif,Stimuli/normal_thumbnails/76right.gif,,,,,0,0,0,0,0,9,9,75,,,,,,,,,,,,,,,,,,,,,,,29,10,1,270,-4.59E-16,-2.5,76,Experiment,,,,,,,,,143,67,9,9,,,,,,,,,,,,,,,401.6468685,402.1404405,401.6468685,402.1404405,87.75510204,1575559757,1575559764,6.699443817,1575559755,1575559757,,,s12,1,59,f,expert radiologist,2019_Dec_05_0923,AdjustEyeTrack,3.1.5,60.2276238
57,Stimuli/Morph57.JPG,Stimuli/Morph57.png,Stimuli/BlurLevel5/BlurEditedMorph57,Stimuli/BlurLevel5/BlurEditedMorph57.png,Stimuli/BlurLevel5/NumberedMorphs/BlurEditedMorph57.png,Stimuli/BlurLevel5/OriginalBlur/BlurEditedMorph57.png,Stimuli/BlurMorphTrio/EditedMorph57.png,010158right.gif,Stimuli/normal_thumbnails/57right.gif,,,,,0,0,0,0,0,10,10,56,,,,,,,,,,,,,,,,,,,,,,,66,11,1,33,2.09667642,1.361597588,57,Experiment,,,,,,,,,25,52,5,5,,,,,,,,,,,,,,,410.9910937,411.4905248,410.9910937,411.4905248,93.19727891,1575559767,1575559771,4.60065794,1575559764,1575559767,,,s12,1,59,f,expert radiologist,2019_Dec_05_0923,AdjustEyeTrack,3.1.5,60.2276238
144,Stimuli/Morph144.JPG,Stimuli/Morph144.png,Stimuli/BlurLevel5/BlurEditedMorph144,Stimuli/BlurLevel5/BlurEditedMorph144.png,Stimuli/BlurLevel5/NumberedMorphs/BlurEditedMorph144.png,Stimuli/BlurLevel5/OriginalBlur/BlurEditedMorph144.png,Stimuli/BlurMorphTrio/EditedMorph144.png,None,None,,,,,0,0,0,0,0,11,11,143,,,,,,,,,,,,,,,,,,,,,,,62,12,1,141,-1.942864904,1.573300978,144,Experiment,,,,,,,,,133,1,143,-4,,,,,,,,,,,,,,,418.3779997,418.8737743,418.3779997,418.8737743,94.55782313,1575559774,1575559781,6.750436783,1575559772,1575559774,,,s12,1,59,f,expert radiologist,2019_Dec_05_0923,AdjustEyeTrack,3.1.5,60.2276238
107,Stimuli/Morph107.JPG,Stimuli/Morph107.png,Stimuli/BlurLevel5/BlurEditedMorph107,Stimuli/BlurLevel5/BlurEditedMorph107.png,Stimuli/BlurLevel5/NumberedMorphs/BlurEditedMorph107.png,Stimuli/BlurLevel5/OriginalBlur/BlurEditedMorph107.png,Stimuli/BlurMorphTrio/EditedMorph107.png,None,None,,,,,0,0,0,0,0,12,12,106,,,,,,,,,,,,,,,,,,,,,,,59,13,1,313,1.7049959,-1.828384254,107,Experiment,,,,,,,,,67,107,0,0,,,,,,,,,,,,,,,427.4155862,427.9069181,427.4155862,427.9069181,100,1575559783,1575559785,2.002812862,1575559781,1575559783,,,s12,1,59,f,expert radiologist,2019_Dec_05_0923,AdjustEyeTrack,3.1.5,60.2276238
91,Stimuli/Morph91.JPG,Stimuli/Morph91.png,Stimuli/BlurLevel5/BlurEditedMorph91,Stimuli/BlurLevel5/BlurEditedMorph91.png,Stimuli/BlurLevel5/NumberedMorphs/BlurEditedMorph91.png,Stimuli/BlurLevel5/OriginalBlur/BlurEditedMorph91.png,Stimuli/BlurMorphTrio/EditedMorph91.png,020276right.gif,Stimuli/normal_thumbnails/91right.gif,,,,,0,0,0,0,0,13,13,90,,,,,,,,,,,,,,,,,,,,,,,30,14,1,294,1.016841608,-2.283863644,91,Experiment,,,,,,,,,50,111,-20,-20,,,,,,,,,,,,,,,432.2239752,432.7243432,432.2239752,432.7243432,72.78911565,1575559788,1575559790,2.400660038,1575559785,1575559788,,,s12,1,59,f,expert radiologist,2019_Dec_05_0923,AdjustEyeTrack,3.1.5,60.2276238
33,Stimuli/Morph33.JPG,Stimuli/Morph33.png,Stimuli/BlurLevel5/BlurEditedMorph33,Stimuli/BlurLevel5/BlurEditedMorph33.png,Stimuli/BlurLevel5/NumberedMorphs/BlurEditedMorph33.png,Stimuli/BlurLevel5/OriginalBlur/BlurEditedMorph33.png,Stimuli/BlurMorphTrio/EditedMorph33.png,010089right.gif,Stimuli/normal_thumbnails/33right.gif,,,,,0,0,0,0,0,14,14,32,,,,,,,,,,,,,,,,,,,,,,,24,15,1,90,1.53E-16,2.5,33,Experiment,,,,,,,,,2,34,-1,-1,,,,,,,,,,,,,,,437.0925665,437.5901312,437.0925665,437.5901312,98.63945578,1575559793,1575559796,3.051329851,1575559791,1575559793,,,s12,1,59,f,expert radiologist,2019_Dec_05_0923,AdjustEyeTrack,3.1.5,60.2276238
43,Stimuli/Morph43.JPG,Stimuli/Morph43.png,Stimuli/BlurLevel5/BlurEditedMorph43,Stimuli/BlurLevel5/BlurEditedMorph43.png,Stimuli/BlurLevel5/NumberedMorphs/BlurEditedMorph43.png,Stimuli/BlurLevel5/OriginalBlur/BlurEditedMorph43.png,Stimuli/BlurMorphTrio/EditedMorph43.png,010124right.gif,Stimuli/normal_thumbnails/43right.gif,,,,,0,0,0,0,0,15,15,42,,,,,,,,,,,,,,,,,,,,,,,99,16,1,301,1.287595187,-2.142918252,43,Experiment,,,,,,,,,17,41,2,2,,,,,,,,,,,,,,,442.7598308,443.2573017,442.7598308,443.2573017,97.27891156,1575559798,1575559801,2.566616058,1575559796,1575559798,,,s12,1,59,f,expert radiologist,2019_Dec_05_0923,AdjustEyeTrack,3.1.5,60.2276238
83,Stimuli/Morph83.JPG,Stimuli/Morph83.png,Stimuli/BlurLevel5/BlurEditedMorph83,Stimuli/BlurLevel5/BlurEditedMorph83.png,Stimuli/BlurLevel5/NumberedMorphs/BlurEditedMorph83.png,Stimuli/BlurLevel5/OriginalBlur/BlurEditedMorph83.png,Stimuli/BlurMorphTrio/EditedMorph83.png,020259right.gif,Stimuli/normal_thumbnails/83right.gif,,,,,0,0,0,0,0,16,16,82,,,,,,,,,,,,,,,,,,,,,,,58,17,1,188,-2.475670172,-0.347932752,83,Experiment,,,,,,,,,52,94,-11,-11,,,,,,,,,,,,,,,447.9634461,448.4566122,447.9634461,448.4566122,85.03401361,1575559804,1575559805,1.81577301,1575559801,1575559804,,,s12,1,59,f,expert radiologist,2019_Dec_05_0923,AdjustEyeTrack,3.1.5,60.2276238
123,Stimuli/Morph123.JPG,Stimuli/Morph123.png,Stimuli/BlurLevel5/BlurEditedMorph123,Stimuli/BlurLevel5/BlurEditedMorph123.png,Stimuli/BlurLevel5/NumberedMorphs/BlurEditedMorph123.png,Stimuli/BlurLevel5/OriginalBlur/BlurEditedMorph123.png,Stimuli/BlurMorphTrio/EditedMorph123.png,None,None,,,,,0,0,0,0,0,17,17,122,,,,,,,,,,,,,,,,,,,,,,,38,18,1,121,-1.287595187,2.142918252,123,Experiment,,,,,,,,,33,91,32,32,,,,,,,,,,,,,,,452.4571244,452.9567695,452.4571244,452.9567695,56.46258503,1575559808,1575559811,2.349342108,1575559806,1575559808,,,s12,1,59,f,expert radiologist,2019_Dec_05_0923,AdjustEyeTrack,3.1.5,60.2276238
25,Stimuli/Morph25.JPG,Stimuli/Morph25.png,Stimuli/BlurLevel5/BlurEditedMorph25,Stimuli/BlurLevel5/BlurEditedMorph25.png,Stimuli/BlurLevel5/NumberedMorphs/BlurEditedMorph25.png,Stimuli/BlurLevel5/OriginalBlur/BlurEditedMorph25.png,Stimuli/BlurMorphTrio/EditedMorph25.png,010069right.gif,Stimuli/normal_thumbnails/25right.gif,,,,,0,0,0,0,0,18,18,24,,,,,,,,,,,,,,,,,,,,,,,18,19,1,62,1.173678907,2.207368982,25,Experiment,,,,,,,,,120,10,15,15,,,,,,,,,,,,,,,457.2140118,457.7060876,457.2140118,457.7060876,79.59183673,1575559813,1575559816,2.800625801,1575559811,1575559813,,,s12,1,59,f,expert radiologist,2019_Dec_05_0923,AdjustEyeTrack,3.1.5,60.2276238
45,Stimuli/Morph45.JPG,Stimuli/Morph45.png,Stimuli/BlurLevel5/BlurEditedMorph45,Stimuli/BlurLevel5/BlurEditedMorph45.png,Stimuli/BlurLevel5/NumberedMorphs/BlurEditedMorph45.png,Stimuli/BlurLevel5/OriginalBlur/BlurEditedMorph45.png,Stimuli/BlurMorphTrio/EditedMorph45.png,010127right.gif,Stimuli/normal_thumbnails/45right.gif,,,,,0,0,0,0,0,19,19,44,,,,,,,,,,,,,,,,,,,,,,,42,20,1,216,-2.022542486,-1.469463131,45,Experiment,,,,,,,,,110,50,-5,-5,,,,,,,,,,,,,,,462.8235415,463.3229582,462.8235415,463.3229582,93.19727891,1575559819,1575559821,2.784673929,1575559816,1575559819,,,s12,1,59,f,expert radiologist,2019_Dec_05_0923,AdjustEyeTrack,3.1.5,60.2276238
102,Stimuli/Morph102.JPG,Stimuli/Morph102.png,Stimuli/BlurLevel5/BlurEditedMorph102,Stimuli/BlurLevel5/BlurEditedMorph102.png,Stimuli/BlurLevel5/NumberedMorphs/BlurEditedMorph102.png,Stimuli/BlurLevel5/OriginalBlur/BlurEditedMorph102.png,Stimuli/BlurMorphTrio/EditedMorph102.png,None,None,,,,,0,0,0,0,0,20,20,101,,,,,,,,,,,,,,,,,,,,,,,62,21,1,320,1.915111108,-1.606969024,102,Experiment,,,,,,,,,105,105,-3,-3,,,,,,,,,,,,,,,468.2749832,468.7729232,468.2749832,468.7729232,95.91836735,1575559824,1575559825,0.866202831,1575559822,1575559824,,,s12,1,59,f,expert radiologist,2019_Dec_05_0923,AdjustEyeTrack,3.1.5,60.2276238
112,Stimuli/Morph112.JPG,Stimuli/Morph112.png,Stimuli/BlurLevel5/BlurEditedMorph112,Stimuli/BlurLevel5/BlurEditedMorph112.png,Stimuli/BlurLevel5/NumberedMorphs/BlurEditedMorph112.png,Stimuli/BlurLevel5/OriginalBlur/BlurEditedMorph112.png,Stimuli/BlurMorphTrio/EditedMorph112.png,None,None,,,,,0,0,0,0,0,21,21,111,,,,,,,,,,,,,,,,,,,,,,,27,22,1,135,-1.767766953,1.767766953,112,Experiment,,,,,,,,,59,94,18,18,,,,,,,,,,,,,,,472.0915,472.5896578,472.0915,472.5896578,75.51020408,1575559828,1575559831,2.763196945,1575559825,1575559828,,,s12,1,59,f,expert radiologist,2019_Dec_05_0923,AdjustEyeTrack,3.1.5,60.2276238
93,Stimuli/Morph93.JPG,Stimuli/Morph93.png,Stimuli/BlurLevel5/BlurEditedMorph93,Stimuli/BlurLevel5/BlurEditedMorph93.png,Stimuli/BlurLevel5/NumberedMorphs/BlurEditedMorph93.png,Stimuli/BlurLevel5/OriginalBlur/BlurEditedMorph93.png,Stimuli/BlurMorphTrio/EditedMorph93.png,020280right.gif,Stimuli/normal_thumbnails/93right.gif,,,,,0,0,0,0,0,22,22,92,,,,,,,,,,,,,,,,,,,,,,,76,23,1,302,1.324798161,-2.12012024,93,Experiment,,,,,,,,,136,106,-13,-13,,,,,,,,,,,,,,,477.0431139,477.5557557,477.0431139,477.5557557,82.31292517,1575559833,1575559837,4.233260155,1575559831,1575559833,,,s12,1,59,f,expert radiologist,2019_Dec_05_0923,AdjustEyeTrack,3.1.5,60.2276238
97,Stimuli/Morph97.JPG,Stimuli/Morph97.png,Stimuli/BlurLevel5/BlurEditedMorph97,Stimuli/BlurLevel5/BlurEditedMorph97.png,Stimuli/BlurLevel5/NumberedMorphs/BlurEditedMorph97.png,Stimuli/BlurLevel5/OriginalBlur/BlurEditedMorph97.png,Stimuli/BlurMorphTrio/EditedMorph97.png,020294right.gif,Stimuli/normal_thumbnails/97right.gif,,,,,0,0,0,0,0,23,23,96,,,,,,,,,,,,,,,,,,,,,,,86,24,1,231,-1.573300978,-1.942864904,97,Experiment,,,,,,,,,106,106,-9,-9,,,,,,,,,,,,,,,484.1932111,484.7061146,484.1932111,484.7061146,87.75510204,1575559840,1575559841,0.787585974,1575559837,1575559840,,,s12,1,59,f,expert radiologist,2019_Dec_05_0923,AdjustEyeTrack,3.1.5,60.2276238
5,Stimuli/Morph5.JPG,Stimuli/Morph5.png,Stimuli/BlurLevel5/BlurEditedMorph5,Stimuli/BlurLevel5/BlurEditedMorph5.png,Stimuli/BlurLevel5/NumberedMorphs/BlurEditedMorph5.png,Stimuli/BlurLevel5/OriginalBlur/BlurEditedMorph5.png,Stimuli/BlurMorphTrio/EditedMorph5.png,010011right.gif,Stimuli/normal_thumbnails/5right.gif,,,,,0,0,0,0,0,24,24,4,,,,,,,,,,,,,,,,,,,,,,,58,25,1,247,-0.976827821,-2.301262134,5,Experiment,,,,,,,,,93,30,-25,-25,,,,,,,,,,,,,,,487.6233456,488.1224614,487.6233456,488.1224614,65.98639456,1575559843,1575559846,2.481980085,1575559841,1575559843,,,s12,1,59,f,expert radiologist,2019_Dec_05_0923,AdjustEyeTrack,3.1.5,60.2276238
126,Stimuli/Morph126.JPG,Stimuli/Morph126.png,Stimuli/BlurLevel5/BlurEditedMorph126,Stimuli/BlurLevel5/BlurEditedMorph126.png,Stimuli/BlurLevel5/NumberedMorphs/BlurEditedMorph126.png,Stimuli/BlurLevel5/OriginalBlur/BlurEditedMorph126.png,Stimuli/BlurMorphTrio/EditedMorph126.png,None,None,,,,,0,0,0,0,0,25,25,125,,,,,,,,,,,,,,,,,,,,,,,3,26,1,184,-2.493910126,-0.174391184,126,Experiment,,,,,,,,,20,4,122,-25,,,,,,,,,,,,,,,492.9391127,493.4393898,492.9391127,493.4393898,65.98639456,1575559849,1575559854,5.103497028,1575559846,1575559849,,,s12,1,59,f,expert radiologist,2019_Dec_05_0923,AdjustEyeTrack,3.1.5,60.2276238
29,Stimuli/Morph29.JPG,Stimuli/Morph29.png,Stimuli/BlurLevel5/BlurEditedMorph29,Stimuli/BlurLevel5/BlurEditedMorph29.png,Stimuli/BlurLevel5/NumberedMorphs/BlurEditedMorph29.png,Stimuli/BlurLevel5/OriginalBlur/BlurEditedMorph29.png,Stimuli/BlurMorphTrio/EditedMorph29.png,010074right.gif,Stimuli/normal_thumbnails/29right.gif,,,,,0,0,0,0,0,26,26,28,,,,,,,,,,,,,,,,,,,,,,,12,27,1,326,2.072593931,-1.397982259,29,Experiment,,,,,,,,,6,33,-4,-4,,,,,,,,,,,,,,,501.2137567,501.7059483,501.2137567,501.7059483,94.55782313,1575559857,1575559860,3.449840069,1575559854,1575559857,,,s12,1,59,f,expert radiologist,2019_Dec_05_0923,AdjustEyeTrack,3.1.5,60.2276238
8,Stimuli/Morph8.JPG,Stimuli/Morph8.png,Stimuli/BlurLevel5/BlurEditedMorph8,Stimuli/BlurLevel5/BlurEditedMorph8.png,Stimuli/BlurLevel5/NumberedMorphs/BlurEditedMorph8.png,Stimuli/BlurLevel5/OriginalBlur/BlurEditedMorph8.png,Stimuli/BlurMorphTrio/EditedMorph8.png,010014right.gif,Stimuli/normal_thumbnails/8right.gif,,,,,0,0,0,0,0,27,27,7,,,,,,,,,,,,,,,,,,,,,,,89,28,1,354,2.486304738,-0.261321158,8,Experiment,,,,,,,,,43,20,-12,-12,,,,,,,,,,,,,,,507.5062059,508.0055888,507.5062059,508.0055888,83.67346939,1575559863,1575559867,4.150141954,1575559861,1575559863,,,s12,1,59,f,expert radiologist,2019_Dec_05_0923,AdjustEyeTrack,3.1.5,60.2276238
137,Stimuli/Morph137.JPG,Stimuli/Morph137.png,Stimuli/BlurLevel5/BlurEditedMorph137,Stimuli/BlurLevel5/BlurEditedMorph137.png,Stimuli/BlurLevel5/NumberedMorphs/BlurEditedMorph137.png,Stimuli/BlurLevel5/OriginalBlur/BlurEditedMorph137.png,Stimuli/BlurMorphTrio/EditedMorph137.png,None,None,,,,,0,0,0,0,0,28,28,136,,,,,,,,,,,,,,,,,,,,,,,10,29,1,337,2.301262134,-0.976827821,137,Experiment,,,,,,,,,47,143,-6,-6,,,,,,,,,,,,,,,514.324044,514.8231845,514.324044,514.8231845,91.83673469,1575559870,1575559873,3.019410133,1575559868,1575559870,,,s12,1,59,f,expert radiologist,2019_Dec_05_0923,AdjustEyeTrack,3.1.5,60.2276238
89,Stimuli/Morph89.JPG,Stimuli/Morph89.png,Stimuli/BlurLevel5/BlurEditedMorph89,Stimuli/BlurLevel5/BlurEditedMorph89.png,Stimuli/BlurLevel5/NumberedMorphs/BlurEditedMorph89.png,Stimuli/BlurLevel5/OriginalBlur/BlurEditedMorph89.png,Stimuli/BlurMorphTrio/EditedMorph89.png,020273right.gif,Stimuli/normal_thumbnails/89right.gif,,,,,0,0,0,0,0,29,29,88,,,,,,,,,,,,,,,,,,,,,,,99,30,1,121,-1.287595187,2.142918252,89,Experiment,,,,,,,,,40,102,-13,-13,,,,,,,,,,,,,,,519.6284711,520.1248075,519.6284711,520.1248075,82.31292517,1575559875,1575559878,2.183406115,1575559873,1575559875,,,s12,1,59,f,expert radiologist,2019_Dec_05_0923,AdjustEyeTrack,3.1.5,60.2276238
11,Stimuli/Morph11.JPG,Stimuli/Morph11.png,Stimuli/BlurLevel5/BlurEditedMorph11,Stimuli/BlurLevel5/BlurEditedMorph11.png,Stimuli/BlurLevel5/NumberedMorphs/BlurEditedMorph11.png,Stimuli/BlurLevel5/OriginalBlur/BlurEditedMorph11.png,Stimuli/BlurMorphTrio/EditedMorph11.png,010024right.gif,Stimuli/normal_thumbnails/11right.gif,,,,,0,0,0,0,0,30,30,10,,,,,,,,,,,,,,,,,,,,,,,51,31,1,29,2.186549268,1.212024051,11,Experiment,,,,,,,,,37,2,9,9,,,,,,,,,,,,,,,524.3467759,524.8389688,524.3467759,524.8389688,87.75510204,1575559880,1575559883,2.71752286,1575559878,1575559880,,,s12,1,59,f,expert radiologist,2019_Dec_05_0923,AdjustEyeTrack,3.1.5,60.2276238
139,Stimuli/Morph139.JPG,Stimuli/Morph139.png,Stimuli/BlurLevel5/BlurEditedMorph139,Stimuli/BlurLevel5/BlurEditedMorph139.png,Stimuli/BlurLevel5/NumberedMorphs/BlurEditedMorph139.png,Stimuli/BlurLevel5/OriginalBlur/BlurEditedMorph139.png,Stimuli/BlurMorphTrio/EditedMorph139.png,None,None,,,,,0,0,0,0,0,31,31,138,,,,,,,,,,,,,,,,,,,,,,,57,32,1,336,2.283863644,-1.016841608,139,Experiment,,,,,,,,,63,4,135,-12,,,,,,,,,,,,,,,530.0261897,530.5217313,530.0261897,530.5217313,83.67346939,1575559886,1575559889,2.816473246,1575559883,1575559886,,,s12,1,59,f,expert radiologist,2019_Dec_05_0923,AdjustEyeTrack,3.1.5,60.2276238
140,Stimuli/Morph140.JPG,Stimuli/Morph140.png,Stimuli/BlurLevel5/BlurEditedMorph140,Stimuli/BlurLevel5/BlurEditedMorph140.png,Stimuli/BlurLevel5/NumberedMorphs/BlurEditedMorph140.png,Stimuli/BlurLevel5/OriginalBlur/BlurEditedMorph140.png,Stimuli/BlurMorphTrio/EditedMorph140.png,None,None,,,,,0,0,0,0,0,32,32,139,,,,,,,,,,,,,,,,,,,,,,,41,33,1,236,-1.397982259,-2.072593931,140,Experiment,,,,,,,,,49,9,131,-16,,,,,,,,,,,,,,,535.6891906,536.188754,535.6891906,536.188754,78.23129252,1575559891,1575559897,5.500801086,1575559889,1575559891,,,s12,1,59,f,expert radiologist,2019_Dec_05_0923,AdjustEyeTrack,3.1.5,60.2276238
81,Stimuli/Morph81.JPG,Stimuli/Morph81.png,Stimuli/BlurLevel5/BlurEditedMorph81,Stimuli/BlurLevel5/BlurEditedMorph81.png,Stimuli/BlurLevel5/NumberedMorphs/BlurEditedMorph81.png,Stimuli/BlurLevel5/OriginalBlur/BlurEditedMorph81.png,Stimuli/BlurMorphTrio/EditedMorph81.png,020245right.gif,Stimuli/normal_thumbnails/81right.gif,,,,,0,0,0,0,0,33,33,80,,,,,,,,,,,,,,,,,,,,,,,64,34,1,103,-0.562377636,2.435925162,81,Experiment,,,,,,,,,25,95,-14,-14,,,,,,,,,,,,,,,543.8718113,544.3721509,543.8718113,544.3721509,80.95238095,1575559900,1575559902,2.319443941,1575559897,1575559900,,,s12,1,59,f,expert radiologist,2019_Dec_05_0923,AdjustEyeTrack,3.1.5,60.2276238
111,Stimuli/Morph111.JPG,Stimuli/Morph111.png,Stimuli/BlurLevel5/BlurEditedMorph111,Stimuli/BlurLevel5/BlurEditedMorph111.png,Stimuli/BlurLevel5/NumberedMorphs/BlurEditedMorph111.png,Stimuli/BlurLevel5/OriginalBlur/BlurEditedMorph111.png,Stimuli/BlurMorphTrio/EditedMorph111.png,None,None,,,,,0,0,0,0,0,34,34,110,,,,,,,,,,,,,,,,,,,,,,,75,35,1,135,-1.767766953,1.767766953,111,Experiment,,,,,,,,,94,94,17,17,,,,,,,,,,,,,,,548.7890234,549.2889264,548.7890234,549.2889264,76.8707483,1575559904,1575559906,1.15195322,1575559902,1575559904,,,s12,1,59,f,expert radiologist,2019_Dec_05_0923,AdjustEyeTrack,3.1.5,60.2276238
46,Stimuli/Morph46.JPG,Stimuli/Morph46.png,Stimuli/BlurLevel5/BlurEditedMorph46,Stimuli/BlurLevel5/BlurEditedMorph46.png,Stimuli/BlurLevel5/NumberedMorphs/BlurEditedMorph46.png,Stimuli/BlurLevel5/OriginalBlur/BlurEditedMorph46.png,Stimuli/BlurMorphTrio/EditedMorph46.png,010128right.gif,Stimuli/normal_thumbnails/46right.gif,,,,,0,0,0,0,0,35,35,45,,,,,,,,,,,,,,,,,,,,,,,41,36,1,18,2.377641291,0.772542486,46,Experiment,,,,,,,,,143,53,-7,-7,,,,,,,,,,,,,,,552.4129423,552.9049706,552.4129423,552.9049706,90.47619048,1575559908,1575559911,2.465961218,1575559906,1575559908,,,s12,1,59,f,expert radiologist,2019_Dec_05_0923,AdjustEyeTrack,3.1.5,60.2276238
135,Stimuli/Morph135.JPG,Stimuli/Morph135.png,Stimuli/BlurLevel5/BlurEditedMorph135,Stimuli/BlurLevel5/BlurEditedMorph135.png,Stimuli/BlurLevel5/NumberedMorphs/BlurEditedMorph135.png,Stimuli/BlurLevel5/OriginalBlur/BlurEditedMorph135.png,Stimuli/BlurMorphTrio/EditedMorph135.png,None,None,,,,,0,0,0,0,0,36,36,134,,,,,,,,,,,,,,,,,,,,,,,22,37,1,69,0.895919874,2.333951066,135,Experiment,,,,,,,,,63,3,132,-15,,,,,,,,,,,,,,,557.5906894,558.08896,557.5906894,558.08896,79.59183673,1575559913,1575559916,2.466490746,1575559911,1575559913,,,s12,1,59,f,expert radiologist,2019_Dec_05_0923,AdjustEyeTrack,3.1.5,60.2276238
143,Stimuli/Morph143.JPG,Stimuli/Morph143.png,Stimuli/BlurLevel5/BlurEditedMorph143,Stimuli/BlurLevel5/BlurEditedMorph143.png,Stimuli/BlurLevel5/NumberedMorphs/BlurEditedMorph143.png,Stimuli/BlurLevel5/OriginalBlur/BlurEditedMorph143.png,Stimuli/BlurMorphTrio/EditedMorph143.png,None,None,,,,,0,0,0,0,0,37,37,142,,,,,,,,,,,,,,,,,,,,,,,25,38,1,18,2.377641291,0.772542486,143,Experiment,,,,,,,,,11,11,132,-15,,,,,,,,,,,,,,,562.7557375,563.2551876,562.7557375,563.2551876,79.59183673,1575559918,1575559919,0.799839973,1575559916,1575559918,,,s12,1,59,f,expert radiologist,2019_Dec_05_0923,AdjustEyeTrack,3.1.5,60.2276238
95,Stimuli/Morph95.JPG,Stimuli/Morph95.png,Stimuli/BlurLevel5/BlurEditedMorph95,Stimuli/BlurLevel5/BlurEditedMorph95.png,Stimuli/BlurLevel5/NumberedMorphs/BlurEditedMorph95.png,Stimuli/BlurLevel5/OriginalBlur/BlurEditedMorph95.png,Stimuli/BlurMorphTrio/EditedMorph95.png,020287right.gif,Stimuli/normal_thumbnails/95right.gif,,,,,0,0,0,0,0,38,38,94,,,,,,,,,,,,,,,,,,,,,,,18,39,1,131,-1.640147572,1.886773951,95,Experiment,,,,,,,,,76,110,-15,-15,,,,,,,,,,,,,,,566.088446,566.5884414,566.088446,566.5884414,79.59183673,1575559922,1575559924,2.033370972,1575559920,1575559922,,,s12,1,59,f,expert radiologist,2019_Dec_05_0923,AdjustEyeTrack,3.1.5,60.2276238
51,Stimuli/Morph51.JPG,Stimuli/Morph51.png,Stimuli/BlurLevel5/BlurEditedMorph51,Stimuli/BlurLevel5/BlurEditedMorph51.png,Stimuli/BlurLevel5/NumberedMorphs/BlurEditedMorph51.png,Stimuli/BlurLevel5/OriginalBlur/BlurEditedMorph51.png,Stimuli/BlurMorphTrio/EditedMorph51.png,010146right.gif,Stimuli/normal_thumbnails/51right.gif,,,,,0,0,0,0,0,39,39,50,,,,,,,,,,,,,,,,,,,,,,,24,40,1,122,-1.324798161,2.12012024,51,Experiment,,,,,,,,,137,93,-42,-42,,,,,,,,,,,,,,,570.5395391,571.0386838,570.5395391,571.0386838,42.85714286,1575559926,1575559929,2.568398952,1575559924,1575559926,,,s12,1,59,f,expert radiologist,2019_Dec_05_0923,AdjustEyeTrack,3.1.5,60.2276238
10,Stimuli/Morph10.JPG,Stimuli/Morph10.png,Stimuli/BlurLevel5/BlurEditedMorph10,Stimuli/BlurLevel5/BlurEditedMorph10.png,Stimuli/BlurLevel5/NumberedMorphs/BlurEditedMorph10.png,Stimuli/BlurLevel5/OriginalBlur/BlurEditedMorph10.png,Stimuli/BlurMorphTrio/EditedMorph10.png,010016right.gif,Stimuli/normal_thumbnails/10right.gif,,,,,0,0,0,0,0,40,40,9,,,,,,,,,,,,,,,,,,,,,,,6,41,1,108,-0.772542486,2.377641291,10,Experiment,,,,,,,,,24,24,-14,-14,,,,,,,,,,,,,,,576.372888,576.871397,576.372888,576.871397,80.95238095,1575559932,1575559933,1.016997099,1575559929,1575559932,,,s12,1,59,f,expert radiologist,2019_Dec_05_0923,AdjustEyeTrack,3.1.5,60.2276238
9,Stimuli/Morph9.JPG,Stimuli/Morph9.png,Stimuli/BlurLevel5/BlurEditedMorph9,Stimuli/BlurLevel5/BlurEditedMorph9.png,Stimuli/BlurLevel5/NumberedMorphs/BlurEditedMorph9.png,Stimuli/BlurLevel5/OriginalBlur/BlurEditedMorph9.png,Stimuli/BlurMorphTrio/EditedMorph9.png,010015right.gif,Stimuli/normal_thumbnails/9right.gif,,,,,0,0,0,0,0,41,41,8,,,,,,,,,,,,,,,,,,,,,,,28,42,1,325,2.047880111,-1.433941091,9,Experiment,,,,,,,,,24,24,-15,-15,,,,,,,,,,,,,,,579.9234704,580.4213195,579.9234704,580.4213195,79.59183673,1575559936,1575559936,0.620070696,1575559933,1575559936,,,s12,1,59,f,expert radiologist,2019_Dec_05_0923,AdjustEyeTrack,3.1.5,60.2276238
3,Stimuli/Morph3.JPG,Stimuli/Morph3.png,Stimuli/BlurLevel5/BlurEditedMorph3,Stimuli/BlurLevel5/BlurEditedMorph3.png,Stimuli/BlurLevel5/NumberedMorphs/BlurEditedMorph3.png,Stimuli/BlurLevel5/OriginalBlur/BlurEditedMorph3.png,Stimuli/BlurMorphTrio/EditedMorph3.png,010009right.gif,Stimuli/normal_thumbnails/3right.gif,,,,,0,0,0,0,0,42,42,2,,,,,,,,,,,,,,,,,,,,,,,31,43,1,83,0.304673359,2.481365379,3,Experiment,,,,,,,,,66,147,-144,3,,,,,,,,,,,,,,,583.0432711,583.5715809,583.0432711,583.5715809,95.91836735,1575559939,1575559942,3.451343298,1575559937,1575559939,,,s12,1,59,f,expert radiologist,2019_Dec_05_0923,AdjustEyeTrack,3.1.5,60.2276238
147,Stimuli/Morph147.JPG,Stimuli/Morph147.png,Stimuli/BlurLevel5/BlurEditedMorph147,Stimuli/BlurLevel5/BlurEditedMorph147.png,Stimuli/BlurLevel5/NumberedMorphs/BlurEditedMorph147.png,Stimuli/BlurLevel5/OriginalBlur/BlurEditedMorph147.png,Stimuli/BlurMorphTrio/EditedMorph147.png,None,None,,,,,0,0,0,0,0,43,43,146,,,,,,,,,,,,,,,,,,,,,,,2,44,1,43,1.828384254,1.7049959,147,Experiment,,,,,,,,,58,146,1,1,,,,,,,,,,,,,,,589.1550704,589.6542223,589.1550704,589.6542223,98.63945578,1575559945,1575559947,2.15289402,1575559942,1575559945,,,s12,1,59,f,expert radiologist,2019_Dec_05_0923,AdjustEyeTrack,3.1.5,60.2276238
41,Stimuli/Morph41.JPG,Stimuli/Morph41.png,Stimuli/BlurLevel5/BlurEditedMorph41,Stimuli/BlurLevel5/BlurEditedMorph41.png,Stimuli/BlurLevel5/NumberedMorphs/BlurEditedMorph41.png,Stimuli/BlurLevel5/OriginalBlur/BlurEditedMorph41.png,Stimuli/BlurMorphTrio/EditedMorph41.png,010112right.gif,Stimuli/normal_thumbnails/41right.gif,,,,,0,0,0,0,0,44,44,40,,,,,,,,,,,,,,,,,,,,,,,75,45,1,37,1.996588775,1.504537558,41,Experiment,,,,,,,,,59,59,-18,-18,,,,,,,,,,,,,,,593.8877183,594.388023,593.8877183,594.388023,75.51020408,1575559950,1575559951,1.316216707,1575559947,1575559950,,,s12,1,59,f,expert radiologist,2019_Dec_05_0923,AdjustEyeTrack,3.1.5,60.2276238
87,Stimuli/Morph87.JPG,Stimuli/Morph87.png,Stimuli/BlurLevel5/BlurEditedMorph87,Stimuli/BlurLevel5/BlurEditedMorph87.png,Stimuli/BlurLevel5/NumberedMorphs/BlurEditedMorph87.png,Stimuli/BlurLevel5/OriginalBlur/BlurEditedMorph87.png,Stimuli/BlurMorphTrio/EditedMorph87.png,020270right.gif,Stimuli/normal_thumbnails/87right.gif,,,,,0,0,0,0,0,45,45,86,,,,,,,,,,,,,,,,,,,,,,,94,46,1,86,0.174391184,2.493910126,87,Experiment,,,,,,,,,70,102,-15,-15,,,,,,,,,,,,,,,598.3216991,598.8237627,598.3216991,598.8237627,79.59183673,1575559954,1575559957,3.050994158,1575559951,1575559954,,,s12,1,59,f,expert radiologist,2019_Dec_05_0923,AdjustEyeTrack,3.1.5,60.2276238
106,Stimuli/Morph106.JPG,Stimuli/Morph106.png,Stimuli/BlurLevel5/BlurEditedMorph106,Stimuli/BlurLevel5/BlurEditedMorph106.png,Stimuli/BlurLevel5/NumberedMorphs/BlurEditedMorph106.png,Stimuli/BlurLevel5/OriginalBlur/BlurEditedMorph106.png,Stimuli/BlurMorphTrio/EditedMorph106.png,None,None,,,,,0,0,0,0,0,46,46,105,,,,,,,,,,,,,,,,,,,,,,,26,47,1,301,1.287595187,-2.142918252,106,Experiment,,,,,,,,,123,88,18,18,,,,,,,,,,,,,,,604.0387078,604.5397879,604.0387078,604.5397879,75.51020408,1575559960,1575559962,1.883718967,1575559957,1575559960,,,s12,1,59,f,expert radiologist,2019_Dec_05_0923,AdjustEyeTrack,3.1.5,60.2276238
60,Stimuli/Morph60.JPG,Stimuli/Morph60.png,Stimuli/BlurLevel5/BlurEditedMorph60,Stimuli/BlurLevel5/BlurEditedMorph60.png,Stimuli/BlurLevel5/NumberedMorphs/BlurEditedMorph60.png,Stimuli/BlurLevel5/OriginalBlur/BlurEditedMorph60.png,Stimuli/BlurMorphTrio/EditedMorph60.png,020200right.gif,Stimuli/normal_thumbnails/60right.gif,,,,,0,0,0,0,0,47,47,59,,,,,,,,,,,,,,,,,,,,,,,25,48,1,355,2.490486745,-0.217889357,60,Experiment,,,,,,,,,73,73,-13,-13,,,,,,,,,,,,,,,608.638914,609.1377614,608.638914,609.1377614,82.31292517,1575559964,1575559965,0.831337929,1575559962,1575559964,,,s12,1,59,f,expert radiologist,2019_Dec_05_0923,AdjustEyeTrack,3.1.5,60.2276238
130,Stimuli/Morph130.JPG,Stimuli/Morph130.png,Stimuli/BlurLevel5/BlurEditedMorph130,Stimuli/BlurLevel5/BlurEditedMorph130.png,Stimuli/BlurLevel5/NumberedMorphs/BlurEditedMorph130.png,Stimuli/BlurLevel5/OriginalBlur/BlurEditedMorph130.png,Stimuli/BlurMorphTrio/EditedMorph130.png,None,None,,,,,0,0,0,0,0,48,48,129,,,,,,,,,,,,,,,,,,,,,,,76,49,1,166,-2.425739316,0.604804739,130,Experiment,,,,,,,,,28,130,0,0,,,,,,,,,,,,,,,611.7907614,612.2871008,611.7907614,612.2871008,100,1575559967,1575559972,4.133101225,1575559965,1575559967,,,s12,1,59,f,expert radiologist,2019_Dec_05_0923,AdjustEyeTrack,3.1.5,60.2276238
92,Stimuli/Morph92.JPG,Stimuli/Morph92.png,Stimuli/BlurLevel5/BlurEditedMorph92,Stimuli/BlurLevel5/BlurEditedMorph92.png,Stimuli/BlurLevel5/NumberedMorphs/BlurEditedMorph92.png,Stimuli/BlurLevel5/OriginalBlur/BlurEditedMorph92.png,Stimuli/BlurMorphTrio/EditedMorph92.png,020277right.gif,Stimuli/normal_thumbnails/92right.gif,,,,,0,0,0,0,0,49,49,91,,,,,,,,,,,,,,,,,,,,,,,57,50,1,352,2.475670172,-0.347932752,92,Experiment,,,,,,,,,25,93,-1,-1,,,,,,,,,,,,,,,618.6774416,619.1708646,618.6774416,619.1708646,98.63945578,1575559974,1575559977,2.450192213,1575559972,1575559974,,,s12,1,59,f,expert radiologist,2019_Dec_05_0923,AdjustEyeTrack,3.1.5,60.2276238
56,Stimuli/Morph56.JPG,Stimuli/Morph56.png,Stimuli/BlurLevel5/BlurEditedMorph56,Stimuli/BlurLevel5/BlurEditedMorph56.png,Stimuli/BlurLevel5/NumberedMorphs/BlurEditedMorph56.png,Stimuli/BlurLevel5/OriginalBlur/BlurEditedMorph56.png,Stimuli/BlurMorphTrio/EditedMorph56.png,010157right.gif,Stimuli/normal_thumbnails/56right.gif,,,,,0,0,0,0,0,50,50,55,,,,,,,,,,,,,,,,,,,,,,,79,51,1,166,-2.425739316,0.604804739,56,Experiment,,,,,,,,,70,63,-7,-7,,,,,,,,,,,,,,,623.6713354,624.1706677,623.6713354,624.1706677,90.47619048,1575559979,1575559981,1.535370827,1575559977,1575559979,,,s12,1,59,f,expert radiologist,2019_Dec_05_0923,AdjustEyeTrack,3.1.5,60.2276238
90,Stimuli/Morph90.JPG,Stimuli/Morph90.png,Stimuli/BlurLevel5/BlurEditedMorph90,Stimuli/BlurLevel5/BlurEditedMorph90.png,Stimuli/BlurLevel5/NumberedMorphs/BlurEditedMorph90.png,Stimuli/BlurLevel5/OriginalBlur/BlurEditedMorph90.png,Stimuli/BlurMorphTrio/EditedMorph90.png,020275right.gif,Stimuli/normal_thumbnails/90right.gif,,,,,0,0,0,0,0,51,51,89,,,,,,,,,,,,,,,,,,,,,,,9,52,1,102,-0.519779227,2.445369002,90,Experiment,,,,,,,,,126,98,-8,-8,,,,,,,,,,,,,,,627.5732079,628.0708909,627.5732079,628.0708909,89.11564626,1575559983,1575559987,3.369208097,1575559981,1575559983,,,s12,1,59,f,expert radiologist,2019_Dec_05_0923,AdjustEyeTrack,3.1.5,60.2276238
127,Stimuli/Morph127.JPG,Stimuli/Morph127.png,Stimuli/BlurLevel5/BlurEditedMorph127,Stimuli/BlurLevel5/BlurEditedMorph127.png,Stimuli/BlurLevel5/NumberedMorphs/BlurEditedMorph127.png,Stimuli/BlurLevel5/OriginalBlur/BlurEditedMorph127.png,Stimuli/BlurMorphTrio/EditedMorph127.png,None,None,,,,,0,0,0,0,0,52,52,126,,,,,,,,,,,,,,,,,,,,,,,7,53,1,72,0.772542486,2.377641291,127,Experiment,,,,,,,,,136,136,-9,-9,,,,,,,,,,,,,,,633.7108784,634.203832,633.7108784,634.203832,87.75510204,1575559989,1575559991,2.034182787,1575559987,1575559989,,,s12,1,59,f,expert radiologist,2019_Dec_05_0923,AdjustEyeTrack,3.1.5,60.2276238
118,Stimuli/Morph118.JPG,Stimuli/Morph118.png,Stimuli/BlurLevel5/BlurEditedMorph118,Stimuli/BlurLevel5/BlurEditedMorph118.png,Stimuli/BlurLevel5/NumberedMorphs/BlurEditedMorph118.png,Stimuli/BlurLevel5/OriginalBlur/BlurEditedMorph118.png,Stimuli/BlurMorphTrio/EditedMorph118.png,None,None,,,,,0,0,0,0,0,53,53,117,,,,,,,,,,,,,,,,,,,,,,,23,54,1,187,-2.481365379,-0.304673359,118,Experiment,,,,,,,,,31,92,26,26,,,,,,,,,,,,,,,638.55428,639.3037113,638.55428,639.3037113,64.62585034,1575559995,1575559998,3.099873066,1575559992,1575559994,,,s12,1,59,f,expert radiologist,2019_Dec_05_0923,AdjustEyeTrack,3.1.5,60.2276238
37,Stimuli/Morph37.JPG,Stimuli/Morph37.png,Stimuli/BlurLevel5/BlurEditedMorph37,Stimuli/BlurLevel5/BlurEditedMorph37.png,Stimuli/BlurLevel5/NumberedMorphs/BlurEditedMorph37.png,Stimuli/BlurLevel5/OriginalBlur/BlurEditedMorph37.png,Stimuli/BlurMorphTrio/EditedMorph37.png,010097right.gif,Stimuli/normal_thumbnails/37right.gif,,,,,0,0,0,0,0,54,54,36,,,,,,,,,,,,,,,,,,,,,,,95,55,1,48,1.672826516,1.857862064,37,Experiment,,,,,,,,,36,36,1,1,,,,,,,,,,,,,,,644.5709407,645.0707216,644.5709407,645.0707216,98.63945578,1575560000,1575560001,0.983398914,1575559998,1575560000,,,s12,1,59,f,expert radiologist,2019_Dec_05_0923,AdjustEyeTrack,3.1.5,60.2276238
82,Stimuli/Morph82.JPG,Stimuli/Morph82.png,Stimuli/BlurLevel5/BlurEditedMorph82,Stimuli/BlurLevel5/BlurEditedMorph82.png,Stimuli/BlurLevel5/NumberedMorphs/BlurEditedMorph82.png,Stimuli/BlurLevel5/OriginalBlur/BlurEditedMorph82.png,Stimuli/BlurMorphTrio/EditedMorph82.png,020247right.gif,Stimuli/normal_thumbnails/82right.gif,,,,,0,0,0,0,0,55,55,81,,,,,,,,,,,,,,,,,,,,,,,84,56,1,322,1.970026884,-1.539153688,82,Experiment,,,,,,,,,133,99,-17,-17,,,,,,,,,,,,,,,647.9377257,648.4371729,647.9377257,648.4371729,76.8707483,1575560004,1575560005,1.769691944,1575560002,1575560004,,,s12,1,59,f,expert radiologist,2019_Dec_05_0923,AdjustEyeTrack,3.1.5,60.2276238
84,Stimuli/Morph84.JPG,Stimuli/Morph84.png,Stimuli/BlurLevel5/BlurEditedMorph84,Stimuli/BlurLevel5/BlurEditedMorph84.png,Stimuli/BlurLevel5/NumberedMorphs/BlurEditedMorph84.png,Stimuli/BlurLevel5/OriginalBlur/BlurEditedMorph84.png,Stimuli/BlurMorphTrio/EditedMorph84.png,020261right.gif,Stimuli/normal_thumbnails/84right.gif,,,,,0,0,0,0,0,56,56,83,,,,,,,,,,,,,,,,,,,,,,,27,57,1,203,-2.301262134,-0.976827821,84,Experiment,,,,,,,,,71,99,-15,-15,,,,,,,,,,,,,,,652.5765425,653.073125,652.5765425,653.073125,79.59183673,1575560008,1575560012,3.237845898,1575560006,1575560008,,,s12,1,59,f,expert radiologist,2019_Dec_05_0923,AdjustEyeTrack,3.1.5,60.2276238
109,Stimuli/Morph109.JPG,Stimuli/Morph109.png,Stimuli/BlurLevel5/BlurEditedMorph109,Stimuli/BlurLevel5/BlurEditedMorph109.png,Stimuli/BlurLevel5/NumberedMorphs/BlurEditedMorph109.png,Stimuli/BlurLevel5/OriginalBlur/BlurEditedMorph109.png,Stimuli/BlurMorphTrio/EditedMorph109.png,None,None,,,,,0,0,0,0,0,57,57,108,,,,,,,,,,,,,,,,,,,,,,,95,58,1,303,1.361597588,-2.09667642,109,Experiment,,,,,,,,,80,97,12,12,,,,,,,,,,,,,,,658.7415289,659.2370488,658.7415289,659.2370488,83.67346939,1575560014,1575560018,3.767073154,1575560012,1575560014,,,s12,1,59,f,expert radiologist,2019_Dec_05_0923,AdjustEyeTrack,3.1.5,60.2276238
17,Stimuli/Morph17.JPG,Stimuli/Morph17.png,Stimuli/BlurLevel5/BlurEditedMorph17,Stimuli/BlurLevel5/BlurEditedMorph17.png,Stimuli/BlurLevel5/NumberedMorphs/BlurEditedMorph17.png,Stimuli/BlurLevel5/OriginalBlur/BlurEditedMorph17.png,Stimuli/BlurMorphTrio/EditedMorph17.png,010036right.gif,Stimuli/normal_thumbnails/17right.gif,,,,,0,0,0,0,0,58,58,16,,,,,,,,,,,,,,,,,,,,,,,17,59,1,145,-2.047880111,1.433941091,17,Experiment,,,,,,,,,87,143,-126,21,,,,,,,,,,,,,,,665.6208923,666.1220097,665.6208923,666.1220097,71.42857143,1575560021,1575560024,2.74965477,1575560018,1575560021,,,s12,1,59,f,expert radiologist,2019_Dec_05_0923,AdjustEyeTrack,3.1.5,60.2276238
121,Stimuli/Morph121.JPG,Stimuli/Morph121.png,Stimuli/BlurLevel5/BlurEditedMorph121,Stimuli/BlurLevel5/BlurEditedMorph121.png,Stimuli/BlurLevel5/NumberedMorphs/BlurEditedMorph121.png,Stimuli/BlurLevel5/OriginalBlur/BlurEditedMorph121.png,Stimuli/BlurMorphTrio/EditedMorph121.png,None,None,,,,,0,0,0,0,0,59,59,120,,,,,,,,,,,,,,,,,,,,,,,79,60,1,290,0.855050358,-2.349231552,121,Experiment,,,,,,,,,142,97,24,24,,,,,,,,,,,,,,,671.1549043,671.6565402,671.1549043,671.6565402,67.34693878,1575560027,1575560029,2.01533103,1575560024,1575560027,,,s12,1,59,f,expert radiologist,2019_Dec_05_0923,AdjustEyeTrack,3.1.5,60.2276238
36,Stimuli/Morph36.JPG,Stimuli/Morph36.png,Stimuli/BlurLevel5/BlurEditedMorph36,Stimuli/BlurLevel5/BlurEditedMorph36.png,Stimuli/BlurLevel5/NumberedMorphs/BlurEditedMorph36.png,Stimuli/BlurLevel5/OriginalBlur/BlurEditedMorph36.png,Stimuli/BlurMorphTrio/EditedMorph36.png,010095right.gif,Stimuli/normal_thumbnails/36right.gif,,,,,0,0,0,0,0,60,60,35,,,,,,,,,,,,,,,,,,,,,,,63,61,1,62,1.173678907,2.207368982,36,Experiment,,,,,,,,,101,147,-111,36,,,,,,,,,,,,,,,675.6390207,676.1372106,675.6390207,676.1372106,51.02040816,1575560031,1575560035,4.01688385,1575560029,1575560031,,,s12,1,59,f,expert radiologist,2019_Dec_05_0923,AdjustEyeTrack,3.1.5,60.2276238
16,Stimuli/Morph16.JPG,Stimuli/Morph16.png,Stimuli/BlurLevel5/BlurEditedMorph16,Stimuli/BlurLevel5/BlurEditedMorph16.png,Stimuli/BlurLevel5/NumberedMorphs/BlurEditedMorph16.png,Stimuli/BlurLevel5/OriginalBlur/BlurEditedMorph16.png,Stimuli/BlurMorphTrio/EditedMorph16.png,010034right.gif,Stimuli/normal_thumbnails/16right.gif,,,,,0,0,0,0,0,61,61,15,,,,,,,,,,,,,,,,,,,,,,,25,62,1,314,1.736645926,-1.798349501,16,Experiment,,,,,,,,,21,21,-5,-5,,,,,,,,,,,,,,,682.2089231,682.719545,682.2089231,682.719545,93.19727891,1575560038,1575560039,0.816596985,1575560036,1575560038,,,s12,1,59,f,expert radiologist,2019_Dec_05_0923,AdjustEyeTrack,3.1.5,60.2276238
27,Stimuli/Morph27.JPG,Stimuli/Morph27.png,Stimuli/BlurLevel5/BlurEditedMorph27,Stimuli/BlurLevel5/BlurEditedMorph27.png,Stimuli/BlurLevel5/NumberedMorphs/BlurEditedMorph27.png,Stimuli/BlurLevel5/OriginalBlur/BlurEditedMorph27.png,Stimuli/BlurMorphTrio/EditedMorph27.png,010072right.gif,Stimuli/normal_thumbnails/27right.gif,,,,,0,0,0,0,0,62,62,26,,,,,,,,,,,,,,,,,,,,,,,2,63,1,9,2.469220851,0.391086163,27,Experiment,,,,,,,,,70,26,1,1,,,,,,,,,,,,,,,685.6899757,686.1878537,685.6899757,686.1878537,98.63945578,1575560041,1575560044,2.833518982,1575560039,1575560041,,,s12,1,59,f,expert radiologist,2019_Dec_05_0923,AdjustEyeTrack,3.1.5,60.2276238
133,Stimuli/Morph133.JPG,Stimuli/Morph133.png,Stimuli/BlurLevel5/BlurEditedMorph133,Stimuli/BlurLevel5/BlurEditedMorph133.png,Stimuli/BlurLevel5/NumberedMorphs/BlurEditedMorph133.png,Stimuli/BlurLevel5/OriginalBlur/BlurEditedMorph133.png,Stimuli/BlurMorphTrio/EditedMorph133.png,None,None,,,,,0,0,0,0,0,63,63,132,,,,,,,,,,,,,,,,,,,,,,,35,64,1,244,-1.095927867,-2.246985116,133,Experiment,,,,,,,,,28,4,129,-18,,,,,,,,,,,,,,,690.9702643,691.4700966,690.9702643,691.4700966,75.51020408,1575560047,1575560048,1.817510843,1575560044,1575560047,,,s12,1,59,f,expert radiologist,2019_Dec_05_0923,AdjustEyeTrack,3.1.5,60.2276238
68,Stimuli/Morph68.JPG,Stimuli/Morph68.png,Stimuli/BlurLevel5/BlurEditedMorph68,Stimuli/BlurLevel5/BlurEditedMorph68.png,Stimuli/BlurLevel5/NumberedMorphs/BlurEditedMorph68.png,Stimuli/BlurLevel5/OriginalBlur/BlurEditedMorph68.png,Stimuli/BlurMorphTrio/EditedMorph68.png,020218right.gif,Stimuli/normal_thumbnails/68right.gif,,,,,0,0,0,0,0,64,64,67,,,,,,,,,,,,,,,,,,,,,,,43,65,1,153,-2.22751631,1.134976249,68,Experiment,,,,,,,,,41,51,17,17,,,,,,,,,,,,,,,695.5882568,696.0864887,695.5882568,696.0864887,76.8707483,1575560051,1575560054,3.083623171,1575560049,1575560051,,,s12,1,59,f,expert radiologist,2019_Dec_05_0923,AdjustEyeTrack,3.1.5,60.2276238
21,Stimuli/Morph21.JPG,Stimuli/Morph21.png,Stimuli/BlurLevel5/BlurEditedMorph21,Stimuli/BlurLevel5/BlurEditedMorph21.png,Stimuli/BlurLevel5/NumberedMorphs/BlurEditedMorph21.png,Stimuli/BlurLevel5/OriginalBlur/BlurEditedMorph21.png,Stimuli/BlurMorphTrio/EditedMorph21.png,010049right.gif,Stimuli/normal_thumbnails/21right.gif,,,,,0,0,0,0,0,65,65,20,,,,,,,,,,,,,,,,,,,,,,,1,66,1,71,0.813920386,2.363796439,21,Experiment,,,,,,,,,20,20,1,1,,,,,,,,,,,,,,,700.6212035,701.1207926,700.6212035,701.1207926,98.63945578,1575560056,1575560058,1.416059971,1575560055,1575560056,,,s12,1,59,f,expert radiologist,2019_Dec_05_0923,AdjustEyeTrack,3.1.5,60.2276238
35,Stimuli/Morph35.JPG,Stimuli/Morph35.png,Stimuli/BlurLevel5/BlurEditedMorph35,Stimuli/BlurLevel5/BlurEditedMorph35.png,Stimuli/BlurLevel5/NumberedMorphs/BlurEditedMorph35.png,Stimuli/BlurLevel5/OriginalBlur/BlurEditedMorph35.png,Stimuli/BlurMorphTrio/EditedMorph35.png,010094right.gif,Stimuli/normal_thumbnails/35right.gif,,,,,0,0,0,0,0,66,66,34,,,,,,,,,,,,,,,,,,,,,,,11,67,1,202,-2.317959636,-0.936516484,35,Experiment,,,,,,,,,123,30,5,5,,,,,,,,,,,,,,,704.6745885,705.1699003,704.6745885,705.1699003,93.19727891,1575560060,1575560065,4.201442957,1575560058,1575560060,,,s12,1,59,f,expert radiologist,2019_Dec_05_0923,AdjustEyeTrack,3.1.5,60.2276238
19,Stimuli/Morph19.JPG,Stimuli/Morph19.png,Stimuli/BlurLevel5/BlurEditedMorph19,Stimuli/BlurLevel5/BlurEditedMorph19.png,Stimuli/BlurLevel5/NumberedMorphs/BlurEditedMorph19.png,Stimuli/BlurLevel5/OriginalBlur/BlurEditedMorph19.png,Stimuli/BlurMorphTrio/EditedMorph19.png,010045right.gif,Stimuli/normal_thumbnails/19right.gif,,,,,0,0,0,0,0,67,67,18,,,,,,,,,,,,,,,,,,,,,,,78,68,1,333,2.22751631,-1.134976249,19,Experiment,,,,,,,,,101,71,-52,-52,,,,,,,,,,,,,,,711.2696116,711.7707932,711.2696116,711.7707932,29.25170068,1575560067,1575560074,6.816104889,1575560065,1575560067,,,s12,1,59,f,expert radiologist,2019_Dec_05_0923,AdjustEyeTrack,3.1.5,60.2276238
132,Stimuli/Morph132.JPG,Stimuli/Morph132.png,Stimuli/BlurLevel5/BlurEditedMorph132,Stimuli/BlurLevel5/BlurEditedMorph132.png,Stimuli/BlurLevel5/NumberedMorphs/BlurEditedMorph132.png,Stimuli/BlurLevel5/OriginalBlur/BlurEditedMorph132.png,Stimuli/BlurMorphTrio/EditedMorph132.png,None,None,,,,,0,0,0,0,0,68,68,131,,,,,,,,,,,,,,,,,,,,,,,88,69,1,344,2.40315424,-0.68909339,132,Experiment,,,,,,,,,24,10,122,-25,,,,,,,,,,,,,,,721.1805393,721.6695956,721.1805393,721.6695956,65.98639456,1575560077,1575560079,2.215795994,1575560074,1575560077,,,s12,1,59,f,expert radiologist,2019_Dec_05_0923,AdjustEyeTrack,3.1.5,60.2276238
94,Stimuli/Morph94.JPG,Stimuli/Morph94.png,Stimuli/BlurLevel5/BlurEditedMorph94,Stimuli/BlurLevel5/BlurEditedMorph94.png,Stimuli/BlurLevel5/NumberedMorphs/BlurEditedMorph94.png,Stimuli/BlurLevel5/OriginalBlur/BlurEditedMorph94.png,Stimuli/BlurMorphTrio/EditedMorph94.png,020286right.gif,Stimuli/normal_thumbnails/94right.gif,,,,,0,0,0,0,0,69,69,93,,,,,,,,,,,,,,,,,,,,,,,55,70,1,341,2.363796439,-0.813920386,94,Experiment,,,,,,,,,64,102,-8,-8,,,,,,,,,,,,,,,726.1880752,726.6900776,726.1880752,726.6900776,89.11564626,1575560082,1575560084,1.834399939,1575560079,1575560082,,,s12,1,59,f,expert radiologist,2019_Dec_05_0923,AdjustEyeTrack,3.1.5,60.2276238
70,Stimuli/Morph70.JPG,Stimuli/Morph70.png,Stimuli/BlurLevel5/BlurEditedMorph70,Stimuli/BlurLevel5/BlurEditedMorph70.png,Stimuli/BlurLevel5/NumberedMorphs/BlurEditedMorph70.png,Stimuli/BlurLevel5/OriginalBlur/BlurEditedMorph70.png,Stimuli/BlurMorphTrio/EditedMorph70.png,020221right.gif,Stimuli/normal_thumbnails/70right.gif,,,,,0,0,0,0,0,70,70,69,,,,,,,,,,,,,,,,,,,,,,,16,71,1,356,2.493910126,-0.174391184,70,Experiment,,,,,,,,,15,70,0,0,,,,,,,,,,,,,,,730.8385279,731.3364466,730.8385279,731.3364466,100,1575560087,1575560092,5.600636959,1575560084,1575560087,,,s12,1,59,f,expert radiologist,2019_Dec_05_0923,AdjustEyeTrack,3.1.5,60.2276238
58,Stimuli/Morph58.JPG,Stimuli/Morph58.png,Stimuli/BlurLevel5/BlurEditedMorph58,Stimuli/BlurLevel5/BlurEditedMorph58.png,Stimuli/BlurLevel5/NumberedMorphs/BlurEditedMorph58.png,Stimuli/BlurLevel5/OriginalBlur/BlurEditedMorph58.png,Stimuli/BlurMorphTrio/EditedMorph58.png,010159right.gif,Stimuli/normal_thumbnails/58right.gif,,,,,0,0,0,0,0,71,71,57,,,,,,,,,,,,,,,,,,,,,,,23,72,1,172,-2.475670172,0.347932752,58,Experiment,,,,,,,,,7,44,14,14,,,,,,,,,,,,,,,739.4042069,739.9030019,739.4042069,739.9030019,80.95238095,1575560095,1575560101,6.274173975,1575560092,1575560095,,,s12,1,59,f,expert radiologist,2019_Dec_05_0923,AdjustEyeTrack,3.1.5,60.2276238
7,Stimuli/Morph7.JPG,Stimuli/Morph7.png,Stimuli/BlurLevel5/BlurEditedMorph7,Stimuli/BlurLevel5/BlurEditedMorph7.png,Stimuli/BlurLevel5/NumberedMorphs/BlurEditedMorph7.png,Stimuli/BlurLevel5/OriginalBlur/BlurEditedMorph7.png,Stimuli/BlurMorphTrio/EditedMorph7.png,010013right.gif,Stimuli/normal_thumbnails/7right.gif,,,,,0,0,0,0,0,72,72,6,,,,,,,,,,,,,,,,,,,,,,,33,73,1,279,0.391086163,-2.469220851,7,Experiment,,,,,,,,,84,2,5,5,,,,,,,,,,,,,,,748.436133,748.9358908,748.436133,748.9358908,93.19727891,1575560104,1575560108,3.433754921,1575560102,1575560104,,,s12,1,59,f,expert radiologist,2019_Dec_05_0923,AdjustEyeTrack,3.1.5,60.2276238
104,Stimuli/Morph104.JPG,Stimuli/Morph104.png,Stimuli/BlurLevel5/BlurEditedMorph104,Stimuli/BlurLevel5/BlurEditedMorph104.png,Stimuli/BlurLevel5/NumberedMorphs/BlurEditedMorph104.png,Stimuli/BlurLevel5/OriginalBlur/BlurEditedMorph104.png,Stimuli/BlurMorphTrio/EditedMorph104.png,None,None,,,,,0,0,0,0,0,73,73,103,,,,,,,,,,,,,,,,,,,,,,,52,74,1,204,-2.283863644,-1.016841608,104,Experiment,,,,,,,,,54,101,3,3,,,,,,,,,,,,,,,754.419298,754.9210371,754.419298,754.9210371,95.91836735,1575560110,1575560113,3.349685192,1575560108,1575560110,,,s12,1,59,f,expert radiologist,2019_Dec_05_0923,AdjustEyeTrack,3.1.5,60.2276238
14,Stimuli/Morph14.JPG,Stimuli/Morph14.png,Stimuli/BlurLevel5/BlurEditedMorph14,Stimuli/BlurLevel5/BlurEditedMorph14.png,Stimuli/BlurLevel5/NumberedMorphs/BlurEditedMorph14.png,Stimuli/BlurLevel5/OriginalBlur/BlurEditedMorph14.png,Stimuli/BlurMorphTrio/EditedMorph14.png,010030right.gif,Stimuli/normal_thumbnails/14right.gif,,,,,0,0,0,0,0,74,74,13,,,,,,,,,,,,,,,,,,,,,,,95,75,1,40,1.915111108,1.606969024,14,Experiment,,,,,,,,,124,5,9,9,,,,,,,,,,,,,,,760.5870176,761.0855843,760.5870176,761.0855843,87.75510204,1575560116,1575560121,4.434097052,1575560114,1575560116,,,s12,1,59,f,expert radiologist,2019_Dec_05_0923,AdjustEyeTrack,3.1.5,60.2276238
122,Stimuli/Morph122.JPG,Stimuli/Morph122.png,Stimuli/BlurLevel5/BlurEditedMorph122,Stimuli/BlurLevel5/BlurEditedMorph122.png,Stimuli/BlurLevel5/NumberedMorphs/BlurEditedMorph122.png,Stimuli/BlurLevel5/OriginalBlur/BlurEditedMorph122.png,Stimuli/BlurMorphTrio/EditedMorph122.png,None,None,,,,,0,0,0,0,0,75,75,121,,,,,,,,,,,,,,,,,,,,,,,66,76,1,359,2.499619238,-0.043631016,122,Experiment,,,,,,,,,73,93,29,29,,,,,,,,,,,,,,,767.4041121,767.9052679,767.4041121,767.9052679,60.54421769,1575560123,1575560126,3.300024748,1575560121,1575560123,,,s12,1,59,f,expert radiologist,2019_Dec_05_0923,AdjustEyeTrack,3.1.5,60.2276238
79,Stimuli/Morph79.JPG,Stimuli/Morph79.png,Stimuli/BlurLevel5/BlurEditedMorph79,Stimuli/BlurLevel5/BlurEditedMorph79.png,Stimuli/BlurLevel5/NumberedMorphs/BlurEditedMorph79.png,Stimuli/BlurLevel5/OriginalBlur/BlurEditedMorph79.png,Stimuli/BlurMorphTrio/EditedMorph79.png,020239right.gif,Stimuli/normal_thumbnails/79right.gif,,,,,0,0,0,0,0,76,76,78,,,,,,,,,,,,,,,,,,,,,,,50,77,1,197,-2.39076189,-0.730929262,79,Experiment,,,,,,,,,89,61,18,18,,,,,,,,,,,,,,,773.4529345,773.9525455,773.4529345,773.9525455,75.51020408,1575560129,1575560131,2.033743143,1575560127,1575560129,,,s12,1,59,f,expert radiologist,2019_Dec_05_0923,AdjustEyeTrack,3.1.5,60.2276238
32,Stimuli/Morph32.JPG,Stimuli/Morph32.png,Stimuli/BlurLevel5/BlurEditedMorph32,Stimuli/BlurLevel5/BlurEditedMorph32.png,Stimuli/BlurLevel5/NumberedMorphs/BlurEditedMorph32.png,Stimuli/BlurLevel5/OriginalBlur/BlurEditedMorph32.png,Stimuli/BlurMorphTrio/EditedMorph32.png,010080right.gif,Stimuli/normal_thumbnails/32right.gif,,,,,0,0,0,0,0,77,77,31,,,,,,,,,,,,,,,,,,,,,,,16,78,1,98,-0.347932752,2.475670172,32,Experiment,,,,,,,,,113,38,-6,-6,,,,,,,,,,,,,,,778.4102304,778.9024686,778.4102304,778.9024686,91.83673469,1575560134,1575560140,6.25269413,1575560131,1575560134,,,s12,1,59,f,expert radiologist,2019_Dec_05_0923,AdjustEyeTrack,3.1.5,60.2276238
39,Stimuli/Morph39.JPG,Stimuli/Morph39.png,Stimuli/BlurLevel5/BlurEditedMorph39,Stimuli/BlurLevel5/BlurEditedMorph39.png,Stimuli/BlurLevel5/NumberedMorphs/BlurEditedMorph39.png,Stimuli/BlurLevel5/OriginalBlur/BlurEditedMorph39.png,Stimuli/BlurMorphTrio/EditedMorph39.png,010109right.gif,Stimuli/normal_thumbnails/39right.gif,,,,,0,0,0,0,0,78,78,38,,,,,,,,,,,,,,,,,,,,,,,70,79,1,1,2.499619238,0.043631016,39,Experiment,,,,,,,,,134,33,6,6,,,,,,,,,,,,,,,787.2359512,787.7351113,787.2359512,787.7351113,91.83673469,1575560143,1575560148,5.283851624,1575560141,1575560143,,,s12,1,59,f,expert radiologist,2019_Dec_05_0923,AdjustEyeTrack,3.1.5,60.2276238
146,Stimuli/Morph146.JPG,Stimuli/Morph146.png,Stimuli/BlurLevel5/BlurEditedMorph146,Stimuli/BlurLevel5/BlurEditedMorph146.png,Stimuli/BlurLevel5/NumberedMorphs/BlurEditedMorph146.png,Stimuli/BlurLevel5/OriginalBlur/BlurEditedMorph146.png,Stimuli/BlurMorphTrio/EditedMorph146.png,None,None,,,,,0,0,0,0,0,79,79,145,,,,,,,,,,,,,,,,,,,,,,,4,80,1,243,-1.134976249,-2.22751631,146,Experiment,,,,,,,,,65,138,8,8,,,,,,,,,,,,,,,795.4910399,795.9853195,795.4910399,795.9853195,89.11564626,1575560151,1575560163,11.88331795,1575560149,1575560151,,,s12,1,59,f,expert radiologist,2019_Dec_05_0923,AdjustEyeTrack,3.1.5,60.2276238
113,Stimuli/Morph113.JPG,Stimuli/Morph113.png,Stimuli/BlurLevel5/BlurEditedMorph113,Stimuli/BlurLevel5/BlurEditedMorph113.png,Stimuli/BlurLevel5/NumberedMorphs/BlurEditedMorph113.png,Stimuli/BlurLevel5/OriginalBlur/BlurEditedMorph113.png,Stimuli/BlurMorphTrio/EditedMorph113.png,None,None,,,,,0,0,0,0,0,80,80,112,,,,,,,,,,,,,,,,,,,,,,,98,81,1,39,1.942864904,1.573300978,113,Experiment,,,,,,,,,90,90,23,23,,,,,,,,,,,,,,,810.5522497,811.0529841,810.5522497,811.0529841,68.70748299,1575560166,1575560167,1.033530951,1575560163,1575560166,,,s12,1,59,f,expert radiologist,2019_Dec_05_0923,AdjustEyeTrack,3.1.5,60.2276238
85,Stimuli/Morph85.JPG,Stimuli/Morph85.png,Stimuli/BlurLevel5/BlurEditedMorph85,Stimuli/BlurLevel5/BlurEditedMorph85.png,Stimuli/BlurLevel5/NumberedMorphs/BlurEditedMorph85.png,Stimuli/BlurLevel5/OriginalBlur/BlurEditedMorph85.png,Stimuli/BlurMorphTrio/EditedMorph85.png,020264right.gif,Stimuli/normal_thumbnails/85right.gif,,,,,0,0,0,0,0,81,81,84,,,,,,,,,,,,,,,,,,,,,,,25,82,1,89,0.043631016,2.499619238,85,Experiment,,,,,,,,,21,104,-19,-19,,,,,,,,,,,,,,,814.1183504,814.6184796,814.1183504,814.6184796,74.14965986,1575560170,1575560172,2.416704893,1575560168,1575560170,,,s12,1,59,f,expert radiologist,2019_Dec_05_0923,AdjustEyeTrack,3.1.5,60.2276238
66,Stimuli/Morph66.JPG,Stimuli/Morph66.png,Stimuli/BlurLevel5/BlurEditedMorph66,Stimuli/BlurLevel5/BlurEditedMorph66.png,Stimuli/BlurLevel5/NumberedMorphs/BlurEditedMorph66.png,Stimuli/BlurLevel5/OriginalBlur/BlurEditedMorph66.png,Stimuli/BlurMorphTrio/EditedMorph66.png,020212right.gif,Stimuli/normal_thumbnails/66right.gif,,,,,0,0,0,0,0,82,82,65,,,,,,,,,,,,,,,,,,,,,,,31,83,1,259,-0.477022488,-2.454067959,66,Experiment,,,,,,,,,141,52,14,14,,,,,,,,,,,,,,,819.1521592,819.8354658,819.1521592,819.8354658,80.95238095,1575560175,1575560177,2.452211857,1575560173,1575560175,,,s12,1,59,f,expert radiologist,2019_Dec_05_0923,AdjustEyeTrack,3.1.5,60.2276238
31,Stimuli/Morph31.JPG,Stimuli/Morph31.png,Stimuli/BlurLevel5/BlurEditedMorph31,Stimuli/BlurLevel5/BlurEditedMorph31.png,Stimuli/BlurLevel5/NumberedMorphs/BlurEditedMorph31.png,Stimuli/BlurLevel5/OriginalBlur/BlurEditedMorph31.png,Stimuli/BlurMorphTrio/EditedMorph31.png,010079right.gif,Stimuli/normal_thumbnails/31right.gif,,,,,0,0,0,0,0,83,83,30,,,,,,,,,,,,,,,,,,,,,,,84,84,1,84,0.261321158,2.486304738,31,Experiment,,,,,,,,,95,30,1,1,,,,,,,,,,,,,,,824.1523485,824.6511098,824.1523485,824.6511098,98.63945578,1575560180,1575560183,3.200197935,1575560178,1575560180,,,s12,1,59,f,expert radiologist,2019_Dec_05_0923,AdjustEyeTrack,3.1.5,60.2276238
72,Stimuli/Morph72.JPG,Stimuli/Morph72.png,Stimuli/BlurLevel5/BlurEditedMorph72,Stimuli/BlurLevel5/BlurEditedMorph72.png,Stimuli/BlurLevel5/NumberedMorphs/BlurEditedMorph72.png,Stimuli/BlurLevel5/OriginalBlur/BlurEditedMorph72.png,Stimuli/BlurMorphTrio/EditedMorph72.png,020227right.gif,Stimuli/normal_thumbnails/72right.gif,,,,,0,0,0,0,0,84,84,71,,,,,,,,,,,,,,,,,,,,,,,99,85,1,271,0.043631016,-2.499619238,72,Experiment,,,,,,,,,122,55,17,17,,,,,,,,,,,,,,,829.6547649,830.1507845,829.6547649,830.1507845,76.8707483,1575560185,1575560188,2.782927752,1575560183,1575560185,,,s12,1,59,f,expert radiologist,2019_Dec_05_0923,AdjustEyeTrack,3.1.5,60.2276238
107,Stimuli/Morph107.JPG,Stimuli/Morph107.png,Stimuli/BlurLevel5/BlurEditedMorph107,Stimuli/BlurLevel5/BlurEditedMorph107.png,Stimuli/BlurLevel5/NumberedMorphs/BlurEditedMorph107.png,Stimuli/BlurLevel5/OriginalBlur/BlurEditedMorph107.png,Stimuli/BlurMorphTrio/EditedMorph107.png,None,None,,,,,1,0,1,0,0,0,0,106,,,,,,,,,,,,,,,,,,,,,,,85,1,2,138,-1.857862064,1.672826516,107,Experiment,,,,,,,,,22,2,105,-42,,,,,,,,,,,,,,,873.4885139,873.98497,873.4885139,873.98497,42.85714286,1575560229,1575560235,5.951186895,1575560227,1575560229,space,38.32748828,s12,1,59,f,expert radiologist,2019_Dec_05_0923,AdjustEyeTrack,3.1.5,60.2276238
121,Stimuli/Morph121.JPG,Stimuli/Morph121.png,Stimuli/BlurLevel5/BlurEditedMorph121,Stimuli/BlurLevel5/BlurEditedMorph121.png,Stimuli/BlurLevel5/NumberedMorphs/BlurEditedMorph121.png,Stimuli/BlurLevel5/OriginalBlur/BlurEditedMorph121.png,Stimuli/BlurMorphTrio/EditedMorph121.png,None,None,,,,,1,0,1,0,0,1,1,120,,,,,,,,,,,,,,,,,,,,,,,95,2,2,286,0.68909339,-2.40315424,121,Experiment,,,,,,,,,63,145,-24,-24,,,,,,,,,,,,,,,882.1202176,882.6174787,882.1202176,882.6174787,67.34693878,1575560238,1575560244,6.150536776,1575560235,1575560238,,,s12,1,59,f,expert radiologist,2019_Dec_05_0923,AdjustEyeTrack,3.1.5,60.2276238
100,Stimuli/Morph100.JPG,Stimuli/Morph100.png,Stimuli/BlurLevel5/BlurEditedMorph100,Stimuli/BlurLevel5/BlurEditedMorph100.png,Stimuli/BlurLevel5/NumberedMorphs/BlurEditedMorph100.png,Stimuli/BlurLevel5/OriginalBlur/BlurEditedMorph100.png,Stimuli/BlurMorphTrio/EditedMorph100.png,020297right.gif,Stimuli/normal_thumbnails/100right.gif,,,,,1,0,1,0,0,2,2,99,,,,,,,,,,,,,,,,,,,,,,,6,3,2,58,1.324798161,2.12012024,100,Experiment,,,,,,,,,112,112,-12,-12,,,,,,,,,,,,,,,891.326546,891.8346267,891.326546,891.8346267,83.67346939,1575560247,1575560248,1.049084902,1575560244,1575560247,,,s12,1,59,f,expert radiologist,2019_Dec_05_0923,AdjustEyeTrack,3.1.5,60.2276238
9,Stimuli/Morph9.JPG,Stimuli/Morph9.png,Stimuli/BlurLevel5/BlurEditedMorph9,Stimuli/BlurLevel5/BlurEditedMorph9.png,Stimuli/BlurLevel5/NumberedMorphs/BlurEditedMorph9.png,Stimuli/BlurLevel5/OriginalBlur/BlurEditedMorph9.png,Stimuli/BlurMorphTrio/EditedMorph9.png,010015right.gif,Stimuli/normal_thumbnails/9right.gif,,,,,1,0,1,0,0,3,3,8,,,,,,,,,,,,,,,,,,,,,,,55,4,2,220,-1.915111108,-1.606969024,9,Experiment,,,,,,,,,102,9,0,0,,,,,,,,,,,,,,,895.0545283,895.5502442,895.0545283,895.5502442,100,1575560251,1575560253,2.583842993,1575560248,1575560251,,,s12,1,59,f,expert radiologist,2019_Dec_05_0923,AdjustEyeTrack,3.1.5,60.2276238
33,Stimuli/Morph33.JPG,Stimuli/Morph33.png,Stimuli/BlurLevel5/BlurEditedMorph33,Stimuli/BlurLevel5/BlurEditedMorph33.png,Stimuli/BlurLevel5/NumberedMorphs/BlurEditedMorph33.png,Stimuli/BlurLevel5/OriginalBlur/BlurEditedMorph33.png,Stimuli/BlurMorphTrio/EditedMorph33.png,010089right.gif,Stimuli/normal_thumbnails/33right.gif,,,,,1,0,1,0,0,4,4,32,,,,,,,,,,,,,,,,,,,,,,,98,5,2,24,2.283863644,1.016841608,33,Experiment,,,,,,,,,6,5,28,28,,,,,,,,,,,,,,,900.2518532,900.7498374,900.2518532,900.7498374,61.9047619,1575560256,1575560260,3.568344116,1575560254,1575560256,,,s12,1,59,f,expert radiologist,2019_Dec_05_0923,AdjustEyeTrack,3.1.5,60.2276238
99,Stimuli/Morph99.JPG,Stimuli/Morph99.png,Stimuli/BlurLevel5/BlurEditedMorph99,Stimuli/BlurLevel5/BlurEditedMorph99.png,Stimuli/BlurLevel5/NumberedMorphs/BlurEditedMorph99.png,Stimuli/BlurLevel5/OriginalBlur/BlurEditedMorph99.png,Stimuli/BlurMorphTrio/EditedMorph99.png,020299right.gif,Stimuli/normal_thumbnails/99right.gif,,,,,1,0,1,0,0,5,5,98,,,,,,,,,,,,,,,,,,,,,,,11,6,2,33,2.09667642,1.361597588,99,Experiment,,,,,,,,,64,102,-3,-3,,,,,,,,,,,,,,,907.0509862,907.5503807,907.0509862,907.5503807,95.91836735,1575560263,1575560265,2.717402935,1575560260,1575560263,,,s12,1,59,f,expert radiologist,2019_Dec_05_0923,AdjustEyeTrack,3.1.5,60.2276238
53,Stimuli/Morph53.JPG,Stimuli/Morph53.png,Stimuli/BlurLevel5/BlurEditedMorph53,Stimuli/BlurLevel5/BlurEditedMorph53.png,Stimuli/BlurLevel5/NumberedMorphs/BlurEditedMorph53.png,Stimuli/BlurLevel5/OriginalBlur/BlurEditedMorph53.png,Stimuli/BlurMorphTrio/EditedMorph53.png,010149right.gif,Stimuli/normal_thumbnails/53right.gif,,,,,1,0,1,0,0,6,6,52,,,,,,,,,,,,,,,,,,,,,,,65,7,2,154,-2.246985116,1.095927867,53,Experiment,,,,,,,,,143,58,-5,-5,,,,,,,,,,,,,,,912.6251689,913.1170224,912.6251689,913.1170224,93.19727891,1575560268,1575560275,6.849720001,1575560266,1575560268,,,s12,1,59,f,expert radiologist,2019_Dec_05_0923,AdjustEyeTrack,3.1.5,60.2276238
60,Stimuli/Morph60.JPG,Stimuli/Morph60.png,Stimuli/BlurLevel5/BlurEditedMorph60,Stimuli/BlurLevel5/BlurEditedMorph60.png,Stimuli/BlurLevel5/NumberedMorphs/BlurEditedMorph60.png,Stimuli/BlurLevel5/OriginalBlur/BlurEditedMorph60.png,Stimuli/BlurMorphTrio/EditedMorph60.png,020200right.gif,Stimuli/normal_thumbnails/60right.gif,,,,,1,0,1,0,0,7,7,59,,,,,,,,,,,,,,,,,,,,,,,79,8,2,335,2.265769468,-1.056545654,60,Experiment,,,,,,,,,79,58,2,2,,,,,,,,,,,,,,,922.1509593,922.6507026,922.1509593,922.6507026,97.27891156,1575560278,1575560283,4.966324329,1575560276,1575560278,,,s12,1,59,f,expert radiologist,2019_Dec_05_0923,AdjustEyeTrack,3.1.5,60.2276238
89,Stimuli/Morph89.JPG,Stimuli/Morph89.png,Stimuli/BlurLevel5/BlurEditedMorph89,Stimuli/BlurLevel5/BlurEditedMorph89.png,Stimuli/BlurLevel5/NumberedMorphs/BlurEditedMorph89.png,Stimuli/BlurLevel5/OriginalBlur/BlurEditedMorph89.png,Stimuli/BlurMorphTrio/EditedMorph89.png,020273right.gif,Stimuli/normal_thumbnails/89right.gif,,,,,1,0,1,0,0,8,8,88,,,,,,,,,,,,,,,,,,,,,,,13,9,2,43,1.828384254,1.7049959,89,Experiment,,,,,,,,,64,101,-12,-12,,,,,,,,,,,,,,,930.1846235,930.6837674,930.1846235,930.6837674,83.67346939,1575560286,1575560289,2.801623106,1575560283,1575560286,,,s12,1,59,f,expert radiologist,2019_Dec_05_0923,AdjustEyeTrack,3.1.5,60.2276238
131,Stimuli/Morph131.JPG,Stimuli/Morph131.png,Stimuli/BlurLevel5/BlurEditedMorph131,Stimuli/BlurLevel5/BlurEditedMorph131.png,Stimuli/BlurLevel5/NumberedMorphs/BlurEditedMorph131.png,Stimuli/BlurLevel5/OriginalBlur/BlurEditedMorph131.png,Stimuli/BlurMorphTrio/EditedMorph131.png,None,None,,,,,1,0,1,0,0,9,9,130,,,,,,,,,,,,,,,,,,,,,,,9,10,2,68,0.936516484,2.317959636,131,Experiment,,,,,,,,,57,145,-14,-14,,,,,,,,,,,,,,,935.4169996,935.9170645,935.4169996,935.9170645,80.95238095,1575560291,1575560295,3.59823513,1575560289,1575560291,,,s12,1,59,f,expert radiologist,2019_Dec_05_0923,AdjustEyeTrack,3.1.5,60.2276238
94,Stimuli/Morph94.JPG,Stimuli/Morph94.png,Stimuli/BlurLevel5/BlurEditedMorph94,Stimuli/BlurLevel5/BlurEditedMorph94.png,Stimuli/BlurLevel5/NumberedMorphs/BlurEditedMorph94.png,Stimuli/BlurLevel5/OriginalBlur/BlurEditedMorph94.png,Stimuli/BlurMorphTrio/EditedMorph94.png,020286right.gif,Stimuli/normal_thumbnails/94right.gif,,,,,1,0,1,0,0,10,10,93,,,,,,,,,,,,,,,,,,,,,,,69,11,2,224,-1.798349501,-1.736645926,94,Experiment,,,,,,,,,142,106,-12,-12,,,,,,,,,,,,,,,941.601833,942.2846781,941.601833,942.2846781,83.67346939,1575560298,1575560303,5.581699133,1575560295,1575560298,,,s12,1,59,f,expert radiologist,2019_Dec_05_0923,AdjustEyeTrack,3.1.5,60.2276238
66,Stimuli/Morph66.JPG,Stimuli/Morph66.png,Stimuli/BlurLevel5/BlurEditedMorph66,Stimuli/BlurLevel5/BlurEditedMorph66.png,Stimuli/BlurLevel5/NumberedMorphs/BlurEditedMorph66.png,Stimuli/BlurLevel5/OriginalBlur/BlurEditedMorph66.png,Stimuli/BlurMorphTrio/EditedMorph66.png,020212right.gif,Stimuli/normal_thumbnails/66right.gif,,,,,1,0,1,0,0,11,11,65,,,,,,,,,,,,,,,,,,,,,,,10,12,2,335,2.265769468,-1.056545654,66,Experiment,,,,,,,,,121,53,13,13,,,,,,,,,,,,,,,949.8829293,950.3828837,949.8829293,950.3828837,82.31292517,1575560306,1575560308,2.784246922,1575560303,1575560306,,,s12,1,59,f,expert radiologist,2019_Dec_05_0923,AdjustEyeTrack,3.1.5,60.2276238
65,Stimuli/Morph65.JPG,Stimuli/Morph65.png,Stimuli/BlurLevel5/BlurEditedMorph65,Stimuli/BlurLevel5/BlurEditedMorph65.png,Stimuli/BlurLevel5/NumberedMorphs/BlurEditedMorph65.png,Stimuli/BlurLevel5/OriginalBlur/BlurEditedMorph65.png,Stimuli/BlurMorphTrio/EditedMorph65.png,020209right.gif,Stimuli/normal_thumbnails/65right.gif,,,,,1,0,1,0,0,12,12,64,,,,,,,,,,,,,,,,,,,,,,,60,13,2,210,-2.165063509,-1.25,65,Experiment,,,,,,,,,28,67,-2,-2,,,,,,,,,,,,,,,955.7998141,956.3677452,955.7998141,956.3677452,97.27891156,1575560312,1575560314,2.200330973,1575560309,1575560312,,,s12,1,59,f,expert radiologist,2019_Dec_05_0923,AdjustEyeTrack,3.1.5,60.2276238
64,Stimuli/Morph64.JPG,Stimuli/Morph64.png,Stimuli/BlurLevel5/BlurEditedMorph64,Stimuli/BlurLevel5/BlurEditedMorph64.png,Stimuli/BlurLevel5/NumberedMorphs/BlurEditedMorph64.png,Stimuli/BlurLevel5/OriginalBlur/BlurEditedMorph64.png,Stimuli/BlurMorphTrio/EditedMorph64.png,020208right.gif,Stimuli/normal_thumbnails/64right.gif,,,,,1,0,1,0,0,13,13,63,,,,,,,,,,,,,,,,,,,,,,,9,14,2,341,2.363796439,-0.813920386,64,Experiment,,,,,,,,,130,47,17,17,,,,,,,,,,,,,,,960.3012173,960.7997338,960.3012173,960.7997338,76.8707483,1575560316,1575560319,2.716323853,1575560314,1575560316,,,s12,1,59,f,expert radiologist,2019_Dec_05_0923,AdjustEyeTrack,3.1.5,60.2276238
133,Stimuli/Morph133.JPG,Stimuli/Morph133.png,Stimuli/BlurLevel5/BlurEditedMorph133,Stimuli/BlurLevel5/BlurEditedMorph133.png,Stimuli/BlurLevel5/NumberedMorphs/BlurEditedMorph133.png,Stimuli/BlurLevel5/OriginalBlur/BlurEditedMorph133.png,Stimuli/BlurMorphTrio/EditedMorph133.png,None,None,,,,,1,0,1,0,0,14,14,132,,,,,,,,,,,,,,,,,,,,,,,39,15,2,59,1.287595187,2.142918252,133,Experiment,,,,,,,,,118,2,131,-16,,,,,,,,,,,,,,,965.7573525,966.3828855,965.7573525,966.3828855,78.23129252,1575560322,1575560324,2.470690012,1575560319,1575560322,,,s12,1,59,f,expert radiologist,2019_Dec_05_0923,AdjustEyeTrack,3.1.5,60.2276238
74,Stimuli/Morph74.JPG,Stimuli/Morph74.png,Stimuli/BlurLevel5/BlurEditedMorph74,Stimuli/BlurLevel5/BlurEditedMorph74.png,Stimuli/BlurLevel5/NumberedMorphs/BlurEditedMorph74.png,Stimuli/BlurLevel5/OriginalBlur/BlurEditedMorph74.png,Stimuli/BlurMorphTrio/EditedMorph74.png,020232right.gif,Stimuli/normal_thumbnails/74right.gif,,,,,1,0,1,0,0,15,15,73,,,,,,,,,,,,,,,,,,,,,,,19,16,2,115,-1.056545654,2.265769468,74,Experiment,,,,,,,,,139,105,-31,-31,,,,,,,,,,,,,,,971.5334431,972.0337323,971.5334431,972.0337323,57.82312925,1575560327,1575560331,3.516918898,1575560324,1575560327,,,s12,1,59,f,expert radiologist,2019_Dec_05_0923,AdjustEyeTrack,3.1.5,60.2276238
31,Stimuli/Morph31.JPG,Stimuli/Morph31.png,Stimuli/BlurLevel5/BlurEditedMorph31,Stimuli/BlurLevel5/BlurEditedMorph31.png,Stimuli/BlurLevel5/NumberedMorphs/BlurEditedMorph31.png,Stimuli/BlurLevel5/OriginalBlur/BlurEditedMorph31.png,Stimuli/BlurMorphTrio/EditedMorph31.png,010079right.gif,Stimuli/normal_thumbnails/31right.gif,,,,,1,0,1,0,0,16,16,30,,,,,,,,,,,,,,,,,,,,,,,40,17,2,125,-1.433941091,2.047880111,31,Experiment,,,,,,,,,83,31,0,0,,,,,,,,,,,,,,,978.1693865,978.6683171,978.1693865,978.6683171,100,1575560334,1575560337,2.915807009,1575560331,1575560334,,,s12,1,59,f,expert radiologist,2019_Dec_05_0923,AdjustEyeTrack,3.1.5,60.2276238
36,Stimuli/Morph36.JPG,Stimuli/Morph36.png,Stimuli/BlurLevel5/BlurEditedMorph36,Stimuli/BlurLevel5/BlurEditedMorph36.png,Stimuli/BlurLevel5/NumberedMorphs/BlurEditedMorph36.png,Stimuli/BlurLevel5/OriginalBlur/BlurEditedMorph36.png,Stimuli/BlurMorphTrio/EditedMorph36.png,010095right.gif,Stimuli/normal_thumbnails/36right.gif,,,,,1,0,1,0,0,17,17,35,,,,,,,,,,,,,,,,,,,,,,,19,18,2,284,0.604804739,-2.425739316,36,Experiment,,,,,,,,,50,39,-3,-3,,,,,,,,,,,,,,,983.7328523,984.232569,983.7328523,984.232569,95.91836735,1575560339,1575560343,3.516429663,1575560337,1575560339,,,s12,1,59,f,expert radiologist,2019_Dec_05_0923,AdjustEyeTrack,3.1.5,60.2276238
25,Stimuli/Morph25.JPG,Stimuli/Morph25.png,Stimuli/BlurLevel5/BlurEditedMorph25,Stimuli/BlurLevel5/BlurEditedMorph25.png,Stimuli/BlurLevel5/NumberedMorphs/BlurEditedMorph25.png,Stimuli/BlurLevel5/OriginalBlur/BlurEditedMorph25.png,Stimuli/BlurMorphTrio/EditedMorph25.png,010069right.gif,Stimuli/normal_thumbnails/25right.gif,,,,,1,0,1,0,0,18,18,24,,,,,,,,,,,,,,,,,,,,,,,29,19,2,77,0.562377636,2.435925162,25,Experiment,,,,,,,,,134,140,-115,32,,,,,,,,,,,,,,,990.4859467,990.9831247,990.4859467,990.9831247,56.46258503,1575560346,1575560352,6.10078907,1575560343,1575560346,,,s12,1,59,f,expert radiologist,2019_Dec_05_0923,AdjustEyeTrack,3.1.5,60.2276238
145,Stimuli/Morph145.JPG,Stimuli/Morph145.png,Stimuli/BlurLevel5/BlurEditedMorph145,Stimuli/BlurLevel5/BlurEditedMorph145.png,Stimuli/BlurLevel5/NumberedMorphs/BlurEditedMorph145.png,Stimuli/BlurLevel5/OriginalBlur/BlurEditedMorph145.png,Stimuli/BlurMorphTrio/EditedMorph145.png,None,None,,,,,1,0,1,0,0,19,19,144,,,,,,,,,,,,,,,,,,,,,,,57,20,2,87,0.130839891,2.496573837,145,Experiment,,,,,,,,,87,5,140,-7,,,,,,,,,,,,,,,999.4685211,1000.249689,999.4685211,1000.249689,90.47619048,1575560355,1575560362,6.799562931,1575560353,1575560355,,,s12,1,59,f,expert radiologist,2019_Dec_05_0923,AdjustEyeTrack,3.1.5,60.2276238
27,Stimuli/Morph27.JPG,Stimuli/Morph27.png,Stimuli/BlurLevel5/BlurEditedMorph27,Stimuli/BlurLevel5/BlurEditedMorph27.png,Stimuli/BlurLevel5/NumberedMorphs/BlurEditedMorph27.png,Stimuli/BlurLevel5/OriginalBlur/BlurEditedMorph27.png,Stimuli/BlurMorphTrio/EditedMorph27.png,010072right.gif,Stimuli/normal_thumbnails/27right.gif,,,,,1,0,1,0,0,20,20,26,,,,,,,,,,,,,,,,,,,,,,,75,21,2,12,2.445369002,0.519779227,27,Experiment,,,,,,,,,141,27,0,0,,,,,,,,,,,,,,,1008.832904,1009.331978,1008.832904,1009.331978,100,1575560365,1575560367,2.034362078,1575560363,1575560365,,,s12,1,59,f,expert radiologist,2019_Dec_05_0923,AdjustEyeTrack,3.1.5,60.2276238
38,Stimuli/Morph38.JPG,Stimuli/Morph38.png,Stimuli/BlurLevel5/BlurEditedMorph38,Stimuli/BlurLevel5/BlurEditedMorph38.png,Stimuli/BlurLevel5/NumberedMorphs/BlurEditedMorph38.png,Stimuli/BlurLevel5/OriginalBlur/BlurEditedMorph38.png,Stimuli/BlurMorphTrio/EditedMorph38.png,010108right.gif,Stimuli/normal_thumbnails/38right.gif,,,,,1,0,1,0,0,21,21,37,,,,,,,,,,,,,,,,,,,,,,,54,22,2,354,2.486304738,-0.261321158,38,Experiment,,,,,,,,,6,29,9,9,,,,,,,,,,,,,,,1013.287021,1013.781949,1013.287021,1013.781949,87.75510204,1575560369,1575560371,2.458425045,1575560367,1575560369,,,s12,1,59,f,expert radiologist,2019_Dec_05_0923,AdjustEyeTrack,3.1.5,60.2276238
2,Stimuli/Morph2.JPG,Stimuli/Morph2.png,Stimuli/BlurLevel5/BlurEditedMorph2,Stimuli/BlurLevel5/BlurEditedMorph2.png,Stimuli/BlurLevel5/NumberedMorphs/BlurEditedMorph2.png,Stimuli/BlurLevel5/OriginalBlur/BlurEditedMorph2.png,Stimuli/BlurMorphTrio/EditedMorph2.png,010006right.gif,Stimuli/normal_thumbnails/2right.gif,,,,,1,0,1,0,0,22,22,1,,,,,,,,,,,,,,,,,,,,,,,26,23,2,357,2.496573837,-0.130839891,2,Experiment,,,,,,,,,5,5,-3,-3,,,,,,,,,,,,,,,1018.320358,1018.832013,1018.320358,1018.832013,95.91836735,1575560374,1575560375,0.898756027,1575560372,1575560374,,,s12,1,59,f,expert radiologist,2019_Dec_05_0923,AdjustEyeTrack,3.1.5,60.2276238
44,Stimuli/Morph44.JPG,Stimuli/Morph44.png,Stimuli/BlurLevel5/BlurEditedMorph44,Stimuli/BlurLevel5/BlurEditedMorph44.png,Stimuli/BlurLevel5/NumberedMorphs/BlurEditedMorph44.png,Stimuli/BlurLevel5/OriginalBlur/BlurEditedMorph44.png,Stimuli/BlurMorphTrio/EditedMorph44.png,010126right.gif,Stimuli/normal_thumbnails/44right.gif,,,,,1,0,1,0,0,23,23,43,,,,,,,,,,,,,,,,,,,,,,,60,24,2,153,-2.22751631,1.134976249,44,Experiment,,,,,,,,,143,41,3,3,,,,,,,,,,,,,,,1022.422155,1022.915613,1022.422155,1022.915613,95.91836735,1575560378,1575560383,4.765758991,1575560375,1575560378,,,s12,1,59,f,expert radiologist,2019_Dec_05_0923,AdjustEyeTrack,3.1.5,60.2276238
42,Stimuli/Morph42.JPG,Stimuli/Morph42.png,Stimuli/BlurLevel5/BlurEditedMorph42,Stimuli/BlurLevel5/BlurEditedMorph42.png,Stimuli/BlurLevel5/NumberedMorphs/BlurEditedMorph42.png,Stimuli/BlurLevel5/OriginalBlur/BlurEditedMorph42.png,Stimuli/BlurMorphTrio/EditedMorph42.png,010121right.gif,Stimuli/normal_thumbnails/42right.gif,,,,,1,0,1,0,0,24,24,41,,,,,,,,,,,,,,,,,,,,,,,1,25,2,223,-1.828384254,-1.7049959,42,Experiment,,,,,,,,,86,62,-20,-20,,,,,,,,,,,,,,,1029.166325,1029.665604,1029.166325,1029.665604,72.78911565,1575560385,1575560387,2.234226942,1575560383,1575560385,,,s12,1,59,f,expert radiologist,2019_Dec_05_0923,AdjustEyeTrack,3.1.5,60.2276238
56,Stimuli/Morph56.JPG,Stimuli/Morph56.png,Stimuli/BlurLevel5/BlurEditedMorph56,Stimuli/BlurLevel5/BlurEditedMorph56.png,Stimuli/BlurLevel5/NumberedMorphs/BlurEditedMorph56.png,Stimuli/BlurLevel5/OriginalBlur/BlurEditedMorph56.png,Stimuli/BlurMorphTrio/EditedMorph56.png,010157right.gif,Stimuli/normal_thumbnails/56right.gif,,,,,1,0,1,0,0,25,25,55,,,,,,,,,,,,,,,,,,,,,,,93,26,2,17,2.39076189,0.730929262,56,Experiment,,,,,,,,,120,40,16,16,,,,,,,,,,,,,,,1035.099116,1035.598628,1035.099116,1035.598628,78.23129252,1575560391,1575560396,5.132915974,1575560387,1575560391,,,s12,1,59,f,expert radiologist,2019_Dec_05_0923,AdjustEyeTrack,3.1.5,60.2276238
110,Stimuli/Morph110.JPG,Stimuli/Morph110.png,Stimuli/BlurLevel5/BlurEditedMorph110,Stimuli/BlurLevel5/BlurEditedMorph110.png,Stimuli/BlurLevel5/NumberedMorphs/BlurEditedMorph110.png,Stimuli/BlurLevel5/OriginalBlur/BlurEditedMorph110.png,Stimuli/BlurMorphTrio/EditedMorph110.png,None,None,,,,,1,0,1,0,0,26,26,109,,,,,,,,,,,,,,,,,,,,,,,42,27,2,149,-2.142918252,1.287595187,110,Experiment,,,,,,,,,35,100,10,10,,,,,,,,,,,,,,,1043.390038,1043.885238,1043.390038,1043.885238,86.39455782,1575560399,1575560404,4.529290915,1575560396,1575560399,,,s12,1,59,f,expert radiologist,2019_Dec_05_0923,AdjustEyeTrack,3.1.5,60.2276238
5,Stimuli/Morph5.JPG,Stimuli/Morph5.png,Stimuli/BlurLevel5/BlurEditedMorph5,Stimuli/BlurLevel5/BlurEditedMorph5.png,Stimuli/BlurLevel5/NumberedMorphs/BlurEditedMorph5.png,Stimuli/BlurLevel5/OriginalBlur/BlurEditedMorph5.png,Stimuli/BlurMorphTrio/EditedMorph5.png,010011right.gif,Stimuli/normal_thumbnails/5right.gif,,,,,1,0,1,0,0,27,27,4,,,,,,,,,,,,,,,,,,,,,,,65,28,2,30,2.165063509,1.25,5,Experiment,,,,,,,,,101,3,2,2,,,,,,,,,,,,,,,1051.005255,1051.498492,1051.005255,1051.498492,97.27891156,1575560407,1575560411,4.333219051,1575560404,1575560407,,,s12,1,59,f,expert radiologist,2019_Dec_05_0923,AdjustEyeTrack,3.1.5,60.2276238
142,Stimuli/Morph142.JPG,Stimuli/Morph142.png,Stimuli/BlurLevel5/BlurEditedMorph142,Stimuli/BlurLevel5/BlurEditedMorph142.png,Stimuli/BlurLevel5/NumberedMorphs/BlurEditedMorph142.png,Stimuli/BlurLevel5/OriginalBlur/BlurEditedMorph142.png,Stimuli/BlurMorphTrio/EditedMorph142.png,None,None,,,,,1,0,1,0,0,28,28,141,,,,,,,,,,,,,,,,,,,,,,,55,29,2,36,2.022542486,1.469463131,142,Experiment,,,,,,,,,126,143,-1,-1,,,,,,,,,,,,,,,1058.070757,1058.632035,1058.070757,1058.632035,98.63945578,1575560414,1575560416,2.617241859,1575560411,1575560414,,,s12,1,59,f,expert radiologist,2019_Dec_05_0923,AdjustEyeTrack,3.1.5,60.2276238
98,Stimuli/Morph98.JPG,Stimuli/Morph98.png,Stimuli/BlurLevel5/BlurEditedMorph98,Stimuli/BlurLevel5/BlurEditedMorph98.png,Stimuli/BlurLevel5/NumberedMorphs/BlurEditedMorph98.png,Stimuli/BlurLevel5/OriginalBlur/BlurEditedMorph98.png,Stimuli/BlurMorphTrio/EditedMorph98.png,020298right.gif,Stimuli/normal_thumbnails/98right.gif,,,,,1,0,1,0,0,29,29,97,,,,,,,,,,,,,,,,,,,,,,,68,30,2,12,2.445369002,0.519779227,98,Experiment,,,,,,,,,42,105,-7,-7,,,,,,,,,,,,,,,1063.19958,1063.697882,1063.19958,1063.697882,90.47619048,1575560419,1575560421,2.496923208,1575560417,1575560419,,,s12,1,59,f,expert radiologist,2019_Dec_05_0923,AdjustEyeTrack,3.1.5,60.2276238
115,Stimuli/Morph115.JPG,Stimuli/Morph115.png,Stimuli/BlurLevel5/BlurEditedMorph115,Stimuli/BlurLevel5/BlurEditedMorph115.png,Stimuli/BlurLevel5/NumberedMorphs/BlurEditedMorph115.png,Stimuli/BlurLevel5/OriginalBlur/BlurEditedMorph115.png,Stimuli/BlurMorphTrio/EditedMorph115.png,None,None,,,,,1,0,1,0,0,30,30,114,,,,,,,,,,,,,,,,,,,,,,,2,31,2,2,2.498477068,0.087248742,115,Experiment,,,,,,,,,142,108,7,7,,,,,,,,,,,,,,,1068.065892,1068.564569,1068.065892,1068.564569,90.47619048,1575560424,1575560428,3.883226156,1575560422,1575560424,,,s12,1,59,f,expert radiologist,2019_Dec_05_0923,AdjustEyeTrack,3.1.5,60.2276238
90,Stimuli/Morph90.JPG,Stimuli/Morph90.png,Stimuli/BlurLevel5/BlurEditedMorph90,Stimuli/BlurLevel5/BlurEditedMorph90.png,Stimuli/BlurLevel5/NumberedMorphs/BlurEditedMorph90.png,Stimuli/BlurLevel5/OriginalBlur/BlurEditedMorph90.png,Stimuli/BlurMorphTrio/EditedMorph90.png,020275right.gif,Stimuli/normal_thumbnails/90right.gif,,,,,1,0,1,0,0,31,31,89,,,,,,,,,,,,,,,,,,,,,,,5,32,2,19,2.363796439,0.813920386,90,Experiment,,,,,,,,,129,100,-10,-10,,,,,,,,,,,,,,,1074.383524,1074.881993,1074.383524,1074.881993,86.39455782,1575560430,1575560435,4.649688959,1575560428,1575560430,,,s12,1,59,f,expert radiologist,2019_Dec_05_0923,AdjustEyeTrack,3.1.5,60.2276238
147,Stimuli/Morph147.JPG,Stimuli/Morph147.png,Stimuli/BlurLevel5/BlurEditedMorph147,Stimuli/BlurLevel5/BlurEditedMorph147.png,Stimuli/BlurLevel5/NumberedMorphs/BlurEditedMorph147.png,Stimuli/BlurLevel5/OriginalBlur/BlurEditedMorph147.png,Stimuli/BlurMorphTrio/EditedMorph147.png,None,None,,,,,1,0,1,0,0,32,32,146,,,,,,,,,,,,,,,,,,,,,,,31,33,2,45,1.767766953,1.767766953,147,Experiment,,,,,,,,,139,147,0,0,,,,,,,,,,,,,,,1082.018164,1082.533626,1082.018164,1082.533626,100,1575560438,1575560442,3.7964499,1575560435,1575560438,,,s12,1,59,f,expert radiologist,2019_Dec_05_0923,AdjustEyeTrack,3.1.5,60.2276238
118,Stimuli/Morph118.JPG,Stimuli/Morph118.png,Stimuli/BlurLevel5/BlurEditedMorph118,Stimuli/BlurLevel5/BlurEditedMorph118.png,Stimuli/BlurLevel5/NumberedMorphs/BlurEditedMorph118.png,Stimuli/BlurLevel5/OriginalBlur/BlurEditedMorph118.png,Stimuli/BlurMorphTrio/EditedMorph118.png,None,None,,,,,1,0,1,0,0,33,33,117,,,,,,,,,,,,,,,,,,,,,,,45,34,2,141,-1.942864904,1.573300978,118,Experiment,,,,,,,,,141,100,18,18,,,,,,,,,,,,,,,1088.418368,1088.915169,1088.418368,1088.915169,75.51020408,1575560444,1575560449,4.633195877,1575560442,1575560444,,,s12,1,59,f,expert radiologist,2019_Dec_05_0923,AdjustEyeTrack,3.1.5,60.2276238
50,Stimuli/Morph50.JPG,Stimuli/Morph50.png,Stimuli/BlurLevel5/BlurEditedMorph50,Stimuli/BlurLevel5/BlurEditedMorph50.png,Stimuli/BlurLevel5/NumberedMorphs/BlurEditedMorph50.png,Stimuli/BlurLevel5/OriginalBlur/BlurEditedMorph50.png,Stimuli/BlurMorphTrio/EditedMorph50.png,010142right.gif,Stimuli/normal_thumbnails/50right.gif,,,,,1,0,1,0,0,34,34,49,,,,,,,,,,,,,,,,,,,,,,,24,35,2,29,2.186549268,1.212024051,50,Experiment,,,,,,,,,143,54,-4,-4,,,,,,,,,,,,,,,1095.865145,1096.381089,1095.865145,1096.381089,94.55782313,1575560452,1575560454,2.266699791,1575560449,1575560452,,,s12,1,59,f,expert radiologist,2019_Dec_05_0923,AdjustEyeTrack,3.1.5,60.2276238
136,Stimuli/Morph136.JPG,Stimuli/Morph136.png,Stimuli/BlurLevel5/BlurEditedMorph136,Stimuli/BlurLevel5/BlurEditedMorph136.png,Stimuli/BlurLevel5/NumberedMorphs/BlurEditedMorph136.png,Stimuli/BlurLevel5/OriginalBlur/BlurEditedMorph136.png,Stimuli/BlurMorphTrio/EditedMorph136.png,None,None,,,,,1,0,1,0,0,35,35,135,,,,,,,,,,,,,,,,,,,,,,,31,36,2,323,1.996588775,-1.504537558,136,Experiment,,,,,,,,,89,145,-9,-9,,,,,,,,,,,,,,,1100.666005,1101.164064,1100.666005,1101.164064,87.75510204,1575560456,1575560460,3.817368984,1575560454,1575560456,,,s12,1,59,f,expert radiologist,2019_Dec_05_0923,AdjustEyeTrack,3.1.5,60.2276238
35,Stimuli/Morph35.JPG,Stimuli/Morph35.png,Stimuli/BlurLevel5/BlurEditedMorph35,Stimuli/BlurLevel5/BlurEditedMorph35.png,Stimuli/BlurLevel5/NumberedMorphs/BlurEditedMorph35.png,Stimuli/BlurLevel5/OriginalBlur/BlurEditedMorph35.png,Stimuli/BlurMorphTrio/EditedMorph35.png,010094right.gif,Stimuli/normal_thumbnails/35right.gif,,,,,1,0,1,0,0,36,36,34,,,,,,,,,,,,,,,,,,,,,,,28,37,2,303,1.361597588,-2.09667642,35,Experiment,,,,,,,,,146,17,18,18,,,,,,,,,,,,,,,1107.497293,1107.997617,1107.497293,1107.997617,75.51020408,1575560463,1575560465,1.587007999,1575560460,1575560463,,,s12,1,59,f,expert radiologist,2019_Dec_05_0923,AdjustEyeTrack,3.1.5,60.2276238
47,Stimuli/Morph47.JPG,Stimuli/Morph47.png,Stimuli/BlurLevel5/BlurEditedMorph47,Stimuli/BlurLevel5/BlurEditedMorph47.png,Stimuli/BlurLevel5/NumberedMorphs/BlurEditedMorph47.png,Stimuli/BlurLevel5/OriginalBlur/BlurEditedMorph47.png,Stimuli/BlurMorphTrio/EditedMorph47.png,010130right.gif,Stimuli/normal_thumbnails/47right.gif,,,,,1,0,1,0,0,37,37,46,,,,,,,,,,,,,,,,,,,,,,,93,38,2,154,-2.246985116,1.095927867,47,Experiment,,,,,,,,,45,45,2,2,,,,,,,,,,,,,,,1112.785777,1113.280777,1112.785777,1113.280777,97.27891156,1575560468,1575560469,0.834152937,1575560465,1575560468,,,s12,1,59,f,expert radiologist,2019_Dec_05_0923,AdjustEyeTrack,3.1.5,60.2276238
34,Stimuli/Morph34.JPG,Stimuli/Morph34.png,Stimuli/BlurLevel5/BlurEditedMorph34,Stimuli/BlurLevel5/BlurEditedMorph34.png,Stimuli/BlurLevel5/NumberedMorphs/BlurEditedMorph34.png,Stimuli/BlurLevel5/OriginalBlur/BlurEditedMorph34.png,Stimuli/BlurMorphTrio/EditedMorph34.png,010090right.gif,Stimuli/normal_thumbnails/34right.gif,,,,,1,0,1,0,0,38,38,33,,,,,,,,,,,,,,,,,,,,,,,3,39,2,97,-0.304673359,2.481365379,34,Experiment,,,,,,,,,144,8,26,26,,,,,,,,,,,,,,,1116.572503,1117.248667,1116.572503,1117.248667,64.62585034,1575560472,1575560477,4.632972002,1575560470,1575560472,,,s12,1,59,f,expert radiologist,2019_Dec_05_0923,AdjustEyeTrack,3.1.5,60.2276238
123,Stimuli/Morph123.JPG,Stimuli/Morph123.png,Stimuli/BlurLevel5/BlurEditedMorph123,Stimuli/BlurLevel5/BlurEditedMorph123.png,Stimuli/BlurLevel5/NumberedMorphs/BlurEditedMorph123.png,Stimuli/BlurLevel5/OriginalBlur/BlurEditedMorph123.png,Stimuli/BlurMorphTrio/EditedMorph123.png,None,None,,,,,1,0,1,0,0,39,39,122,,,,,,,,,,,,,,,,,,,,,,,61,40,2,322,1.970026884,-1.539153688,123,Experiment,,,,,,,,,41,113,10,10,,,,,,,,,,,,,,,1123.997423,1124.497994,1123.997423,1124.497994,86.39455782,1575560480,1575560482,2.449953079,1575560477,1575560480,,,s12,1,59,f,expert radiologist,2019_Dec_05_0923,AdjustEyeTrack,3.1.5,60.2276238
122,Stimuli/Morph122.JPG,Stimuli/Morph122.png,Stimuli/BlurLevel5/BlurEditedMorph122,Stimuli/BlurLevel5/BlurEditedMorph122.png,Stimuli/BlurLevel5/NumberedMorphs/BlurEditedMorph122.png,Stimuli/BlurLevel5/OriginalBlur/BlurEditedMorph122.png,Stimuli/BlurMorphTrio/EditedMorph122.png,None,None,,,,,1,0,1,0,0,40,40,121,,,,,,,,,,,,,,,,,,,,,,,65,41,2,209,-2.186549268,-1.212024051,122,Experiment,,,,,,,,,72,109,13,13,,,,,,,,,,,,,,,1129.015502,1129.514229,1129.015502,1129.514229,82.31292517,1575560485,1575560487,1.901100636,1575560482,1575560485,,,s12,1,59,f,expert radiologist,2019_Dec_05_0923,AdjustEyeTrack,3.1.5,60.2276238
146,Stimuli/Morph146.JPG,Stimuli/Morph146.png,Stimuli/BlurLevel5/BlurEditedMorph146,Stimuli/BlurLevel5/BlurEditedMorph146.png,Stimuli/BlurLevel5/NumberedMorphs/BlurEditedMorph146.png,Stimuli/BlurLevel5/OriginalBlur/BlurEditedMorph146.png,Stimuli/BlurMorphTrio/EditedMorph146.png,None,None,,,,,1,0,1,0,0,41,41,145,,,,,,,,,,,,,,,,,,,,,,,8,42,2,105,-0.647047613,2.414814566,146,Experiment,,,,,,,,,77,147,-1,-1,,,,,,,,,,,,,,,1133.865802,1134.397782,1133.865802,1134.397782,98.63945578,1575560490,1575560493,3.549242973,1575560487,1575560490,,,s12,1,59,f,expert radiologist,2019_Dec_05_0923,AdjustEyeTrack,3.1.5,60.2276238
21,Stimuli/Morph21.JPG,Stimuli/Morph21.png,Stimuli/BlurLevel5/BlurEditedMorph21,Stimuli/BlurLevel5/BlurEditedMorph21.png,Stimuli/BlurLevel5/NumberedMorphs/BlurEditedMorph21.png,Stimuli/BlurLevel5/OriginalBlur/BlurEditedMorph21.png,Stimuli/BlurMorphTrio/EditedMorph21.png,010049right.gif,Stimuli/normal_thumbnails/21right.gif,,,,,1,0,1,0,0,42,42,20,,,,,,,,,,,,,,,,,,,,,,,56,43,2,195,-2.414814566,-0.647047613,21,Experiment,,,,,,,,,131,142,-121,26,,,,,,,,,,,,,,,1140.497209,1140.997511,1140.497209,1140.997511,64.62585034,1575560496,1575560502,5.848988056,1575560493,1575560496,,,s12,1,59,f,expert radiologist,2019_Dec_05_0923,AdjustEyeTrack,3.1.5,60.2276238
102,Stimuli/Morph102.JPG,Stimuli/Morph102.png,Stimuli/BlurLevel5/BlurEditedMorph102,Stimuli/BlurLevel5/BlurEditedMorph102.png,Stimuli/BlurLevel5/NumberedMorphs/BlurEditedMorph102.png,Stimuli/BlurLevel5/OriginalBlur/BlurEditedMorph102.png,Stimuli/BlurMorphTrio/EditedMorph102.png,None,None,,,,,1,0,1,0,0,43,43,101,,,,,,,,,,,,,,,,,,,,,,,19,44,2,129,-1.573300978,1.942864904,102,Experiment,,,,,,,,,58,92,10,10,,,,,,,,,,,,,,,1149.468875,1149.966603,1149.468875,1149.966603,86.39455782,1575560505,1575560507,1.866493225,1575560502,1575560505,,,s12,1,59,f,expert radiologist,2019_Dec_05_0923,AdjustEyeTrack,3.1.5,60.2276238
3,Stimuli/Morph3.JPG,Stimuli/Morph3.png,Stimuli/BlurLevel5/BlurEditedMorph3,Stimuli/BlurLevel5/BlurEditedMorph3.png,Stimuli/BlurLevel5/NumberedMorphs/BlurEditedMorph3.png,Stimuli/BlurLevel5/OriginalBlur/BlurEditedMorph3.png,Stimuli/BlurMorphTrio/EditedMorph3.png,010009right.gif,Stimuli/normal_thumbnails/3right.gif,,,,,1,0,1,0,0,44,44,2,,,,,,,,,,,,,,,,,,,,,,,23,45,2,315,1.767766953,-1.767766953,3,Experiment,,,,,,,,,137,137,-134,13,,,,,,,,,,,,,,,1154.198105,1154.696876,1154.198105,1154.696876,82.31292517,1575560510,1575560511,0.950259924,1575560507,1575560510,,,s12,1,59,f,expert radiologist,2019_Dec_05_0923,AdjustEyeTrack,3.1.5,60.2276238
8,Stimuli/Morph8.JPG,Stimuli/Morph8.png,Stimuli/BlurLevel5/BlurEditedMorph8,Stimuli/BlurLevel5/BlurEditedMorph8.png,Stimuli/BlurLevel5/NumberedMorphs/BlurEditedMorph8.png,Stimuli/BlurLevel5/OriginalBlur/BlurEditedMorph8.png,Stimuli/BlurMorphTrio/EditedMorph8.png,010014right.gif,Stimuli/normal_thumbnails/8right.gif,,,,,1,0,1,0,0,45,45,7,,,,,,,,,,,,,,,,,,,,,,,90,46,2,275,0.217889357,-2.490486745,8,Experiment,,,,,,,,,73,7,1,1,,,,,,,,,,,,,,,1158.014388,1158.530119,1158.014388,1158.530119,98.63945578,1575560514,1575560517,3.415216923,1575560511,1575560514,,,s12,1,59,f,expert radiologist,2019_Dec_05_0923,AdjustEyeTrack,3.1.5,60.2276238
49,Stimuli/Morph49.JPG,Stimuli/Morph49.png,Stimuli/BlurLevel5/BlurEditedMorph49,Stimuli/BlurLevel5/BlurEditedMorph49.png,Stimuli/BlurLevel5/NumberedMorphs/BlurEditedMorph49.png,Stimuli/BlurLevel5/OriginalBlur/BlurEditedMorph49.png,Stimuli/BlurMorphTrio/EditedMorph49.png,010135right.gif,Stimuli/normal_thumbnails/49right.gif,,,,,1,0,1,0,0,46,46,48,,,,,,,,,,,,,,,,,,,,,,,50,47,2,253,-0.730929262,-2.39076189,49,Experiment,,,,,,,,,23,51,-2,-2,,,,,,,,,,,,,,,1164.063958,1164.563457,1164.063958,1164.563457,97.27891156,1575560520,1575560521,1.583292007,1575560517,1575560520,,,s12,1,59,f,expert radiologist,2019_Dec_05_0923,AdjustEyeTrack,3.1.5,60.2276238
51,Stimuli/Morph51.JPG,Stimuli/Morph51.png,Stimuli/BlurLevel5/BlurEditedMorph51,Stimuli/BlurLevel5/BlurEditedMorph51.png,Stimuli/BlurLevel5/NumberedMorphs/BlurEditedMorph51.png,Stimuli/BlurLevel5/OriginalBlur/BlurEditedMorph51.png,Stimuli/BlurMorphTrio/EditedMorph51.png,010146right.gif,Stimuli/normal_thumbnails/51right.gif,,,,,1,0,1,0,0,47,47,50,,,,,,,,,,,,,,,,,,,,,,,70,48,2,109,-0.813920386,2.363796439,51,Experiment,,,,,,,,,40,47,4,4,,,,,,,,,,,,,,,1168.28561,1168.780383,1168.28561,1168.780383,94.55782313,1575560524,1575560526,1.715101242,1575560522,1575560524,,,s12,1,59,f,expert radiologist,2019_Dec_05_0923,AdjustEyeTrack,3.1.5,60.2276238
79,Stimuli/Morph79.JPG,Stimuli/Morph79.png,Stimuli/BlurLevel5/BlurEditedMorph79,Stimuli/BlurLevel5/BlurEditedMorph79.png,Stimuli/BlurLevel5/NumberedMorphs/BlurEditedMorph79.png,Stimuli/BlurLevel5/OriginalBlur/BlurEditedMorph79.png,Stimuli/BlurMorphTrio/EditedMorph79.png,020239right.gif,Stimuli/normal_thumbnails/79right.gif,,,,,1,0,1,0,0,48,48,78,,,,,,,,,,,,,,,,,,,,,,,30,49,2,205,-2.265769468,-1.056545654,79,Experiment,,,,,,,,,114,64,15,15,,,,,,,,,,,,,,,1172.880825,1173.380771,1172.880825,1173.380771,79.59183673,1575560529,1575560533,4.233551025,1575560526,1575560529,,,s12,1,59,f,expert radiologist,2019_Dec_05_0923,AdjustEyeTrack,3.1.5,60.2276238
24,Stimuli/Morph24.JPG,Stimuli/Morph24.png,Stimuli/BlurLevel5/BlurEditedMorph24,Stimuli/BlurLevel5/BlurEditedMorph24.png,Stimuli/BlurLevel5/NumberedMorphs/BlurEditedMorph24.png,Stimuli/BlurLevel5/OriginalBlur/BlurEditedMorph24.png,Stimuli/BlurMorphTrio/EditedMorph24.png,010068right.gif,Stimuli/normal_thumbnails/24right.gif,,,,,1,0,1,0,0,49,49,23,,,,,,,,,,,,,,,,,,,,,,,55,50,2,292,0.936516484,-2.317959636,24,Experiment,,,,,,,,,73,16,8,8,,,,,,,,,,,,,,,1179.888438,1180.379588,1179.888438,1180.379588,89.11564626,1575560536,1575560541,4.733262062,1575560533,1575560536,,,s12,1,59,f,expert radiologist,2019_Dec_05_0923,AdjustEyeTrack,3.1.5,60.2276238
14,Stimuli/Morph14.JPG,Stimuli/Morph14.png,Stimuli/BlurLevel5/BlurEditedMorph14,Stimuli/BlurLevel5/BlurEditedMorph14.png,Stimuli/BlurLevel5/NumberedMorphs/BlurEditedMorph14.png,Stimuli/BlurLevel5/OriginalBlur/BlurEditedMorph14.png,Stimuli/BlurMorphTrio/EditedMorph14.png,010030right.gif,Stimuli/normal_thumbnails/14right.gif,,,,,1,0,1,0,0,50,50,13,,,,,,,,,,,,,,,,,,,,,,,22,51,2,48,1.672826516,1.857862064,14,Experiment,,,,,,,,,97,30,-16,-16,,,,,,,,,,,,,,,1187.347253,1187.846342,1187.347253,1187.846342,78.23129252,1575560543,1575560548,5.383379221,1575560541,1575560543,,,s12,1,59,f,expert radiologist,2019_Dec_05_0923,AdjustEyeTrack,3.1.5,60.2276238
61,Stimuli/Morph61.JPG,Stimuli/Morph61.png,Stimuli/BlurLevel5/BlurEditedMorph61,Stimuli/BlurLevel5/BlurEditedMorph61.png,Stimuli/BlurLevel5/NumberedMorphs/BlurEditedMorph61.png,Stimuli/BlurLevel5/OriginalBlur/BlurEditedMorph61.png,Stimuli/BlurMorphTrio/EditedMorph61.png,020201right.gif,Stimuli/normal_thumbnails/61right.gif,,,,,1,0,1,0,0,51,51,60,,,,,,,,,,,,,,,,,,,,,,,23,52,2,177,-2.496573837,0.130839891,61,Experiment,,,,,,,,,64,64,-3,-3,,,,,,,,,,,,,,,1195.16682,1195.66342,1195.16682,1195.66342,95.91836735,1575560551,1575560553,1.821686983,1575560549,1575560551,,,s12,1,59,f,expert radiologist,2019_Dec_05_0923,AdjustEyeTrack,3.1.5,60.2276238
15,Stimuli/Morph15.JPG,Stimuli/Morph15.png,Stimuli/BlurLevel5/BlurEditedMorph15,Stimuli/BlurLevel5/BlurEditedMorph15.png,Stimuli/BlurLevel5/NumberedMorphs/BlurEditedMorph15.png,Stimuli/BlurLevel5/OriginalBlur/BlurEditedMorph15.png,Stimuli/BlurMorphTrio/EditedMorph15.png,010031right.gif,Stimuli/normal_thumbnails/15right.gif,,,,,1,0,1,0,0,52,52,14,,,,,,,,,,,,,,,,,,,,,,,47,53,2,328,2.12012024,-1.324798161,15,Experiment,,,,,,,,,96,30,-15,-15,,,,,,,,,,,,,,,1199.813081,1200.313051,1199.813081,1200.313051,79.59183673,1575560556,1575560560,4.365579128,1575560553,1575560555,,,s12,1,59,f,expert radiologist,2019_Dec_05_0923,AdjustEyeTrack,3.1.5,60.2276238
83,Stimuli/Morph83.JPG,Stimuli/Morph83.png,Stimuli/BlurLevel5/BlurEditedMorph83,Stimuli/BlurLevel5/BlurEditedMorph83.png,Stimuli/BlurLevel5/NumberedMorphs/BlurEditedMorph83.png,Stimuli/BlurLevel5/OriginalBlur/BlurEditedMorph83.png,Stimuli/BlurMorphTrio/EditedMorph83.png,020259right.gif,Stimuli/normal_thumbnails/83right.gif,,,,,1,0,1,0,0,53,53,82,,,,,,,,,,,,,,,,,,,,,,,25,54,2,344,2.40315424,-0.68909339,83,Experiment,,,,,,,,,120,76,7,7,,,,,,,,,,,,,,,1206.884012,1207.385451,1206.884012,1207.385451,90.47619048,1575560563,1575560566,3.267426968,1575560560,1575560563,,,s12,1,59,f,expert radiologist,2019_Dec_05_0923,AdjustEyeTrack,3.1.5,60.2276238
30,Stimuli/Morph30.JPG,Stimuli/Morph30.png,Stimuli/BlurLevel5/BlurEditedMorph30,Stimuli/BlurLevel5/BlurEditedMorph30.png,Stimuli/BlurLevel5/NumberedMorphs/BlurEditedMorph30.png,Stimuli/BlurLevel5/OriginalBlur/BlurEditedMorph30.png,Stimuli/BlurMorphTrio/EditedMorph30.png,010076right.gif,Stimuli/normal_thumbnails/30right.gif,,,,,1,0,1,0,0,54,54,29,,,,,,,,,,,,,,,,,,,,,,,91,55,2,22,2.317959636,0.936516484,30,Experiment,,,,,,,,,140,34,-4,-4,,,,,,,,,,,,,,,1213.113327,1213.61283,1213.113327,1213.61283,94.55782313,1575560569,1575560575,6.483824015,1575560566,1575560569,,,s12,1,59,f,expert radiologist,2019_Dec_05_0923,AdjustEyeTrack,3.1.5,60.2276238
71,Stimuli/Morph71.JPG,Stimuli/Morph71.png,Stimuli/BlurLevel5/BlurEditedMorph71,Stimuli/BlurLevel5/BlurEditedMorph71.png,Stimuli/BlurLevel5/NumberedMorphs/BlurEditedMorph71.png,Stimuli/BlurLevel5/OriginalBlur/BlurEditedMorph71.png,Stimuli/BlurMorphTrio/EditedMorph71.png,020225right.gif,Stimuli/normal_thumbnails/71right.gif,,,,,1,0,1,0,0,55,55,70,,,,,,,,,,,,,,,,,,,,,,,3,56,2,317,1.828384254,-1.7049959,71,Experiment,,,,,,,,,5,75,-4,-4,,,,,,,,,,,,,,,1222.3313,1222.82929,1222.3313,1222.82929,94.55782313,1575560578,1575560582,4.365295887,1575560576,1575560578,,,s12,1,59,f,expert radiologist,2019_Dec_05_0923,AdjustEyeTrack,3.1.5,60.2276238
12,Stimuli/Morph12.JPG,Stimuli/Morph12.png,Stimuli/BlurLevel5/BlurEditedMorph12,Stimuli/BlurLevel5/BlurEditedMorph12.png,Stimuli/BlurLevel5/NumberedMorphs/BlurEditedMorph12.png,Stimuli/BlurLevel5/OriginalBlur/BlurEditedMorph12.png,Stimuli/BlurMorphTrio/EditedMorph12.png,010026right.gif,Stimuli/normal_thumbnails/12right.gif,,,,,1,0,1,0,0,56,56,11,,,,,,,,,,,,,,,,,,,,,,,47,57,2,179,-2.499619238,0.043631016,12,Experiment,,,,,,,,,60,7,5,5,,,,,,,,,,,,,,,1229.481714,1229.981406,1229.481714,1229.981406,93.19727891,1575560585,1575560588,3.170771122,1575560583,1575560585,,,s12,1,59,f,expert radiologist,2019_Dec_05_0923,AdjustEyeTrack,3.1.5,60.2276238
124,Stimuli/Morph124.JPG,Stimuli/Morph124.png,Stimuli/BlurLevel5/BlurEditedMorph124,Stimuli/BlurLevel5/BlurEditedMorph124.png,Stimuli/BlurLevel5/NumberedMorphs/BlurEditedMorph124.png,Stimuli/BlurLevel5/OriginalBlur/BlurEditedMorph124.png,Stimuli/BlurMorphTrio/EditedMorph124.png,None,None,,,,,1,0,1,0,0,57,57,123,,,,,,,,,,,,,,,,,,,,,,,31,58,2,78,0.519779227,2.445369002,124,Experiment,,,,,,,,,103,141,-17,-17,,,,,,,,,,,,,,,1235.446322,1235.946861,1235.446322,1235.946861,76.8707483,1575560591,1575560596,4.432833672,1575560589,1575560591,,,s12,1,59,f,expert radiologist,2019_Dec_05_0923,AdjustEyeTrack,3.1.5,60.2276238
