stimulusID,stimulus_JPG,stimulusPath,stimulusPath2,stimulusPath3,stimulusPath4,stimulusPath5,stimulusPath6,xRayOriginal,xRayPath,Training.thisRepN,Training.thisTrialN,Training.thisN,Training.thisIndex,Blocks.thisRepN,Blocks.thisTrialN,Blocks.thisN,Blocks.thisIndex,Trials.thisRepN,Trials.thisTrialN,Trials.thisN,Trials.thisIndex,text_2.started,text_2.stopped,image.started,image.stopped,image_2.started,image_2.stopped,image_3.started,image_3.stopped,image_4.started,image_4.stopped,image_6.started,image_6.stopped,image_7.started,image_7.stopped,image_8.started,image_8.stopped,image_9.started,image_9.stopped,image_10.started,image_10.stopped,image_12.started,image_12.stopped,xrayID,trialNumber,blockNumber,stimLocationDeg,stimXCoord,stimYCoord,stimulusID,blockType,trainingXray.started,trainingXray.stopped,trainingTumors.started,trainingTumors.stopped,trainingScore%,startTrainingRespTime,endTrainingRespTime,trainingRT,morphTrack,morphID,errorRaw,errorCorrected,startTrainingStimTime,endTrainingStimTime,key_resp_3.keys,key_resp_3.rt,text.started,text.stopped,text_3.started,text_3.stopped,text_4.started,text_4.stopped,key_resp_5.keys,key_resp_5.rt,key_resp_5.started,key_resp_5.stopped,xray1.started,xray1.stopped,tumors.started,tumors.stopped,trialCorrect%,startRespTime,endRespTime,RT,startStimTime,endStimTime,key_resp.keys,key_resp.rt,participant,session,age,gender,status,date,expName,psychopyVersion,frameRate
11,Stimuli/Morph11.JPG,Stimuli/Morph11.png,Stimuli/BlurLevel5/BlurEditedMorph11,Stimuli/BlurLevel5/BlurEditedMorph11.png,Stimuli/BlurLevel5/NumberedMorphs/BlurEditedMorph11.png,Stimuli/BlurLevel5/OriginalBlur/BlurEditedMorph11.png,Stimuli/BlurMorphTrio/EditedMorph11.png,010024right.gif,Stimuli/normal_thumbnails/11right.gif,0,0,0,10,,,,,,,,,49.89596115,None,49.89596115,None,49.89596115,None,49.89596115,None,49.89596115,None,49.89596115,None,49.89596115,None,49.89596115,None,49.89596115,None,49.89596115,None,49.89596115,None,74,-100,-100,66,1.016841608,2.283863644,11,training,99.23308847,99.73031725,99.23308847,99.73031725,18.36734694,1575575745,1575575750,5.250249863,35,98,-87,60,1575575743,1575575745,space,1.745975991,,,,,,,,,,,,,,,,,,,,,,,s15,1,43,male,expert radiologist,2019_Dec_05_1354,AdjustEyeTrack,3.1.5,59.87381545
69,Stimuli/Morph69.JPG,Stimuli/Morph69.png,Stimuli/BlurLevel5/BlurEditedMorph69,Stimuli/BlurLevel5/BlurEditedMorph69.png,Stimuli/BlurLevel5/NumberedMorphs/BlurEditedMorph69.png,Stimuli/BlurLevel5/OriginalBlur/BlurEditedMorph69.png,Stimuli/BlurMorphTrio/EditedMorph69.png,020220right.gif,Stimuli/normal_thumbnails/69right.gif,0,1,1,68,,,,,,,,,,,,,,,,,,,,,,,,,,,,,,,34,-100,-100,161,-2.363796439,0.813920386,69,training,108.7111742,109.2117387,108.7111742,109.2117387,95.91836735,1575575754,1575575756,1.999631166,33,72,-3,-3,1575575752,1575575754,space,7.028315511,,,,,,,,,,,,,,,,,,,,,,,s15,1,43,male,expert radiologist,2019_Dec_05_1354,AdjustEyeTrack,3.1.5,59.87381545
14,Stimuli/Morph14.JPG,Stimuli/Morph14.png,Stimuli/BlurLevel5/BlurEditedMorph14,Stimuli/BlurLevel5/BlurEditedMorph14.png,Stimuli/BlurLevel5/NumberedMorphs/BlurEditedMorph14.png,Stimuli/BlurLevel5/OriginalBlur/BlurEditedMorph14.png,Stimuli/BlurMorphTrio/EditedMorph14.png,010030right.gif,Stimuli/normal_thumbnails/14right.gif,0,2,2,13,,,,,,,,,,,,,,,,,,,,,,,,,,,,,,,35,-100,-100,119,-1.212024051,2.186549268,14,training,120.0819619,120.5776251,120.0819619,120.5776251,90.47619048,1575575766,1575575768,1.817517996,3,21,-7,-7,1575575764,1575575766,space,8.947626364,,,,,,,,,,,,,,,,,,,,,,,s15,1,43,male,expert radiologist,2019_Dec_05_1354,AdjustEyeTrack,3.1.5,59.87381545
122,Stimuli/Morph122.JPG,Stimuli/Morph122.png,Stimuli/BlurLevel5/BlurEditedMorph122,Stimuli/BlurLevel5/BlurEditedMorph122.png,Stimuli/BlurLevel5/NumberedMorphs/BlurEditedMorph122.png,Stimuli/BlurLevel5/OriginalBlur/BlurEditedMorph122.png,Stimuli/BlurMorphTrio/EditedMorph122.png,None,None,0,3,3,121,,,,,,,,,,,,,,,,,,,,,,,,,,,,,,,6,-100,-100,71,0.813920386,2.363796439,122,training,133.7979893,134.3109721,133.7979893,134.3109721,98.63945578,1575575780,1575575784,4.331826925,38,123,-1,-1,1575575777,1575575780,space,2.419998256,,,,,,,,,,,,,,,,,,,,,,,s15,1,43,male,expert radiologist,2019_Dec_05_1354,AdjustEyeTrack,3.1.5,59.87381545
65,Stimuli/Morph65.JPG,Stimuli/Morph65.png,Stimuli/BlurLevel5/BlurEditedMorph65,Stimuli/BlurLevel5/BlurEditedMorph65.png,Stimuli/BlurLevel5/NumberedMorphs/BlurEditedMorph65.png,Stimuli/BlurLevel5/OriginalBlur/BlurEditedMorph65.png,Stimuli/BlurMorphTrio/EditedMorph65.png,020209right.gif,Stimuli/normal_thumbnails/65right.gif,0,4,4,64,,,,,,,,,,,,,,,,,,,,,,,,,,,,,,,40,-100,-100,217,-1.996588775,-1.504537558,65,training,143.3298612,143.8267328,143.3298612,143.8267328,0.680272109,1575575789,1575575794,5.082921982,121,139,-74,73,1575575786,1575575789,space,5.361833308,,,,,,,,,,,,,,,,,,,,,,,s15,1,43,male,expert radiologist,2019_Dec_05_1354,AdjustEyeTrack,3.1.5,59.87381545
114,Stimuli/Morph114.JPG,Stimuli/Morph114.png,Stimuli/BlurLevel5/BlurEditedMorph114,Stimuli/BlurLevel5/BlurEditedMorph114.png,Stimuli/BlurLevel5/NumberedMorphs/BlurEditedMorph114.png,Stimuli/BlurLevel5/OriginalBlur/BlurEditedMorph114.png,Stimuli/BlurMorphTrio/EditedMorph114.png,None,None,0,5,5,113,,,,,,,,,,,,,,,,,,,,,,,,,,,,,,,49,-100,-100,158,-2.317959636,0.936516484,114,training,156.6277904,157.1270919,156.6277904,157.1270919,87.75510204,1575575802,1575575804,1.932282209,133,105,9,9,1575575800,1575575802,space,3.578389143,,,,,,,,,,,,,,,,,,,,,,,s15,1,43,male,expert radiologist,2019_Dec_05_1354,AdjustEyeTrack,3.1.5,59.87381545
139,Stimuli/Morph139.JPG,Stimuli/Morph139.png,Stimuli/BlurLevel5/BlurEditedMorph139,Stimuli/BlurLevel5/BlurEditedMorph139.png,Stimuli/BlurLevel5/NumberedMorphs/BlurEditedMorph139.png,Stimuli/BlurLevel5/OriginalBlur/BlurEditedMorph139.png,Stimuli/BlurMorphTrio/EditedMorph139.png,None,None,0,6,6,138,,,,,,,,,,,,,,,,,,,,,,,,,,,,,,,61,-100,-100,255,-0.647047613,-2.414814566,139,training,165.3131545,165.8101231,165.3131545,165.8101231,97.27891156,1575575811,1575575816,4.9667871,102,137,2,2,1575575808,1575575811,space,3.161767422,,,,,,,,,,,,,,,,,,,,,,,s15,1,43,male,expert radiologist,2019_Dec_05_1354,AdjustEyeTrack,3.1.5,59.87381545
47,Stimuli/Morph47.JPG,Stimuli/Morph47.png,Stimuli/BlurLevel5/BlurEditedMorph47,Stimuli/BlurLevel5/BlurEditedMorph47.png,Stimuli/BlurLevel5/NumberedMorphs/BlurEditedMorph47.png,Stimuli/BlurLevel5/OriginalBlur/BlurEditedMorph47.png,Stimuli/BlurMorphTrio/EditedMorph47.png,010130right.gif,Stimuli/normal_thumbnails/47right.gif,0,7,7,46,,,,,,,,,,,,,,,,,,,,,,,,,,,,,,,90,-100,-100,96,-0.261321158,2.486304738,47,training,175.9691295,176.4764901,175.9691295,176.4764901,98.63945578,1575575822,1575575833,11.44830108,96,46,1,1,1575575819,1575575822,space,3.173220527,,,,,,,,,,,,,,,,,,,,,,,s15,1,43,male,expert radiologist,2019_Dec_05_1354,AdjustEyeTrack,3.1.5,59.87381545
50,Stimuli/Morph50.JPG,Stimuli/Morph50.png,Stimuli/BlurLevel5/BlurEditedMorph50,Stimuli/BlurLevel5/BlurEditedMorph50.png,Stimuli/BlurLevel5/NumberedMorphs/BlurEditedMorph50.png,Stimuli/BlurLevel5/OriginalBlur/BlurEditedMorph50.png,Stimuli/BlurMorphTrio/EditedMorph50.png,010142right.gif,Stimuli/normal_thumbnails/50right.gif,0,8,8,49,,,,,,,,,,,,,,,,,,,,,,,,,,,,,,,47,-100,-100,238,-1.324798161,-2.12012024,50,training,193.6032158,194.1107801,193.6032158,194.1107801,97.27891156,1575575839,1575575845,5.216641903,20,52,-2,-2,1575575836,1575575839,space,1.726709298,,,,,,,,,,,,,,,,,,,,,,,s15,1,43,male,expert radiologist,2019_Dec_05_1354,AdjustEyeTrack,3.1.5,59.87381545
60,Stimuli/Morph60.JPG,Stimuli/Morph60.png,Stimuli/BlurLevel5/BlurEditedMorph60,Stimuli/BlurLevel5/BlurEditedMorph60.png,Stimuli/BlurLevel5/NumberedMorphs/BlurEditedMorph60.png,Stimuli/BlurLevel5/OriginalBlur/BlurEditedMorph60.png,Stimuli/BlurMorphTrio/EditedMorph60.png,020200right.gif,Stimuli/normal_thumbnails/60right.gif,0,9,9,59,,,,,,,,,,,,,,,,,,,,,,,,,,,,,,,64,-100,-100,304,1.397982259,-2.072593931,60,training,202.8602404,203.3591475,202.8602404,203.3591475,83.67346939,1575575849,1575575852,2.966466188,40,48,12,12,1575575846,1575575849,space,2.094019924,,,,,,,,,,,,,,,,,,,,,,,s15,1,43,male,expert radiologist,2019_Dec_05_1354,AdjustEyeTrack,3.1.5,59.87381545
,,,,,,,,,,,,,,,,,,,,,,,,,,,,,,,,,,,,,,,,,,,,,-100,-100,,,,,training,,,,,,,,,,,,,,,,,209.5771357,None,209.5771357,None,209.5771357,None,space,52.96813389,209.5771357,None,,,,,,,,,,,,,s15,1,43,male,expert radiologist,2019_Dec_05_1354,AdjustEyeTrack,3.1.5,59.87381545
103,Stimuli/Morph103.JPG,Stimuli/Morph103.png,Stimuli/BlurLevel5/BlurEditedMorph103,Stimuli/BlurLevel5/BlurEditedMorph103.png,Stimuli/BlurLevel5/NumberedMorphs/BlurEditedMorph103.png,Stimuli/BlurLevel5/OriginalBlur/BlurEditedMorph103.png,Stimuli/BlurMorphTrio/EditedMorph103.png,None,None,,,,,0,0,0,0,0,0,0,102,,,,,,,,,,,,,,,,,,,,,,,98,1,1,178,-2.498477068,0.087248742,103,Experiment,,,,,,,,,111,117,-14,-14,,,,,,,,,,,,,,,263.8779112,264.3757626,263.8779112,264.3757626,80.95238095,1575575910,1575575913,3.618633986,1575575907,1575575910,,,s15,1,43,male,expert radiologist,2019_Dec_05_1354,AdjustEyeTrack,3.1.5,59.87381545
145,Stimuli/Morph145.JPG,Stimuli/Morph145.png,Stimuli/BlurLevel5/BlurEditedMorph145,Stimuli/BlurLevel5/BlurEditedMorph145.png,Stimuli/BlurLevel5/NumberedMorphs/BlurEditedMorph145.png,Stimuli/BlurLevel5/OriginalBlur/BlurEditedMorph145.png,Stimuli/BlurMorphTrio/EditedMorph145.png,None,None,,,,,0,0,0,0,0,1,1,144,,,,,,,,,,,,,,,,,,,,,,,71,2,1,151,-2.186549268,1.212024051,145,Experiment,,,,,,,,,83,126,19,19,,,,,,,,,,,,,,,270.1436791,270.6434015,270.1436791,270.6434015,74.14965986,1575575916,1575575920,4.100191116,1575575914,1575575916,,,s15,1,43,male,expert radiologist,2019_Dec_05_1354,AdjustEyeTrack,3.1.5,59.87381545
129,Stimuli/Morph129.JPG,Stimuli/Morph129.png,Stimuli/BlurLevel5/BlurEditedMorph129,Stimuli/BlurLevel5/BlurEditedMorph129.png,Stimuli/BlurLevel5/NumberedMorphs/BlurEditedMorph129.png,Stimuli/BlurLevel5/OriginalBlur/BlurEditedMorph129.png,Stimuli/BlurMorphTrio/EditedMorph129.png,None,None,,,,,0,0,0,0,0,2,2,128,,,,,,,,,,,,,,,,,,,,,,,19,3,1,68,0.936516484,2.317959636,129,Experiment,,,,,,,,,84,114,15,15,,,,,,,,,,,,,,,277.4269419,277.9262153,277.4269419,277.9262153,79.59183673,1575575923,1575575926,2.620591164,1575575920,1575575923,,,s15,1,43,male,expert radiologist,2019_Dec_05_1354,AdjustEyeTrack,3.1.5,59.87381545
11,Stimuli/Morph11.JPG,Stimuli/Morph11.png,Stimuli/BlurLevel5/BlurEditedMorph11,Stimuli/BlurLevel5/BlurEditedMorph11.png,Stimuli/BlurLevel5/NumberedMorphs/BlurEditedMorph11.png,Stimuli/BlurLevel5/OriginalBlur/BlurEditedMorph11.png,Stimuli/BlurMorphTrio/EditedMorph11.png,010024right.gif,Stimuli/normal_thumbnails/11right.gif,,,,,0,0,0,0,0,3,3,10,,,,,,,,,,,,,,,,,,,,,,,64,4,1,347,2.435925162,-0.562377636,11,Experiment,,,,,,,,,123,9,2,2,,,,,,,,,,,,,,,282.7268484,283.2420719,282.7268484,283.2420719,97.27891156,1575575929,1575575935,6.900277138,1575575926,1575575929,,,s15,1,43,male,expert radiologist,2019_Dec_05_1354,AdjustEyeTrack,3.1.5,59.87381545
90,Stimuli/Morph90.JPG,Stimuli/Morph90.png,Stimuli/BlurLevel5/BlurEditedMorph90,Stimuli/BlurLevel5/BlurEditedMorph90.png,Stimuli/BlurLevel5/NumberedMorphs/BlurEditedMorph90.png,Stimuli/BlurLevel5/OriginalBlur/BlurEditedMorph90.png,Stimuli/BlurMorphTrio/EditedMorph90.png,020275right.gif,Stimuli/normal_thumbnails/90right.gif,,,,,0,0,0,0,0,4,4,89,,,,,,,,,,,,,,,,,,,,,,,100,5,1,163,-2.39076189,0.730929262,90,Experiment,,,,,,,,,33,114,-24,-24,,,,,,,,,,,,,,,292.378687,292.8754159,292.378687,292.8754159,67.34693878,1575575938,1575575941,3.08212018,1575575936,1575575938,,,s15,1,43,male,expert radiologist,2019_Dec_05_1354,AdjustEyeTrack,3.1.5,59.87381545
35,Stimuli/Morph35.JPG,Stimuli/Morph35.png,Stimuli/BlurLevel5/BlurEditedMorph35,Stimuli/BlurLevel5/BlurEditedMorph35.png,Stimuli/BlurLevel5/NumberedMorphs/BlurEditedMorph35.png,Stimuli/BlurLevel5/OriginalBlur/BlurEditedMorph35.png,Stimuli/BlurMorphTrio/EditedMorph35.png,010094right.gif,Stimuli/normal_thumbnails/35right.gif,,,,,0,0,0,0,0,5,5,34,,,,,,,,,,,,,,,,,,,,,,,30,6,1,356,2.493910126,-0.174391184,35,Experiment,,,,,,,,,37,39,-4,-4,,,,,,,,,,,,,,,298.2768269,298.7747299,298.2768269,298.7747299,94.55782313,1575575944,1575575947,2.982511997,1575575942,1575575944,,,s15,1,43,male,expert radiologist,2019_Dec_05_1354,AdjustEyeTrack,3.1.5,59.87381545
125,Stimuli/Morph125.JPG,Stimuli/Morph125.png,Stimuli/BlurLevel5/BlurEditedMorph125,Stimuli/BlurLevel5/BlurEditedMorph125.png,Stimuli/BlurLevel5/NumberedMorphs/BlurEditedMorph125.png,Stimuli/BlurLevel5/OriginalBlur/BlurEditedMorph125.png,Stimuli/BlurMorphTrio/EditedMorph125.png,None,None,,,,,0,0,0,0,0,6,6,124,,,,,,,,,,,,,,,,,,,,,,,72,7,1,77,0.562377636,2.435925162,125,Experiment,,,,,,,,,115,130,-5,-5,,,,,,,,,,,,,,,304.0758232,304.5754127,304.0758232,304.5754127,93.19727891,1575575950,1575575959,9.582818985,1575575947,1575575950,,,s15,1,43,male,expert radiologist,2019_Dec_05_1354,AdjustEyeTrack,3.1.5,59.87381545
12,Stimuli/Morph12.JPG,Stimuli/Morph12.png,Stimuli/BlurLevel5/BlurEditedMorph12,Stimuli/BlurLevel5/BlurEditedMorph12.png,Stimuli/BlurLevel5/NumberedMorphs/BlurEditedMorph12.png,Stimuli/BlurLevel5/OriginalBlur/BlurEditedMorph12.png,Stimuli/BlurMorphTrio/EditedMorph12.png,010026right.gif,Stimuli/normal_thumbnails/12right.gif,,,,,0,0,0,0,0,7,7,11,,,,,,,,,,,,,,,,,,,,,,,6,8,1,246,-1.016841608,-2.283863644,12,Experiment,,,,,,,,,38,15,-3,-3,,,,,,,,,,,,,,,316.9266468,317.425807,316.9266468,317.425807,95.91836735,1575575963,1575575966,3.349560976,1575575960,1575575963,,,s15,1,43,male,expert radiologist,2019_Dec_05_1354,AdjustEyeTrack,3.1.5,59.87381545
140,Stimuli/Morph140.JPG,Stimuli/Morph140.png,Stimuli/BlurLevel5/BlurEditedMorph140,Stimuli/BlurLevel5/BlurEditedMorph140.png,Stimuli/BlurLevel5/NumberedMorphs/BlurEditedMorph140.png,Stimuli/BlurLevel5/OriginalBlur/BlurEditedMorph140.png,Stimuli/BlurMorphTrio/EditedMorph140.png,None,None,,,,,0,0,0,0,0,8,8,139,,,,,,,,,,,,,,,,,,,,,,,84,9,1,309,1.573300978,-1.942864904,140,Experiment,,,,,,,,,125,136,4,4,,,,,,,,,,,,,,,322.8427969,323.3420826,322.8427969,323.3420826,94.55782313,1575575969,1575575971,2.80074501,1575575966,1575575969,,,s15,1,43,male,expert radiologist,2019_Dec_05_1354,AdjustEyeTrack,3.1.5,59.87381545
70,Stimuli/Morph70.JPG,Stimuli/Morph70.png,Stimuli/BlurLevel5/BlurEditedMorph70,Stimuli/BlurLevel5/BlurEditedMorph70.png,Stimuli/BlurLevel5/NumberedMorphs/BlurEditedMorph70.png,Stimuli/BlurLevel5/OriginalBlur/BlurEditedMorph70.png,Stimuli/BlurMorphTrio/EditedMorph70.png,020221right.gif,Stimuli/normal_thumbnails/70right.gif,,,,,0,0,0,0,0,9,9,69,,,,,,,,,,,,,,,,,,,,,,,17,10,1,226,-1.736645926,-1.798349501,70,Experiment,,,,,,,,,53,48,22,22,,,,,,,,,,,,,,,328.2742079,328.7754945,328.2742079,328.7754945,70.06802721,1575575974,1575575980,6.283191919,1575575972,1575575974,,,s15,1,43,male,expert radiologist,2019_Dec_05_1354,AdjustEyeTrack,3.1.5,59.87381545
101,Stimuli/Morph101.JPG,Stimuli/Morph101.png,Stimuli/BlurLevel5/BlurEditedMorph101,Stimuli/BlurLevel5/BlurEditedMorph101.png,Stimuli/BlurLevel5/NumberedMorphs/BlurEditedMorph101.png,Stimuli/BlurLevel5/OriginalBlur/BlurEditedMorph101.png,Stimuli/BlurMorphTrio/EditedMorph101.png,None,None,,,,,0,0,0,0,0,10,10,100,,,,,,,,,,,,,,,,,,,,,,,22,11,1,299,1.212024051,-2.186549268,101,Experiment,,,,,,,,,140,112,-11,-11,,,,,,,,,,,,,,,337.3753319,337.8750176,337.3753319,337.8750176,85.03401361,1575575983,1575575986,2.532427073,1575575981,1575575983,,,s15,1,43,male,expert radiologist,2019_Dec_05_1354,AdjustEyeTrack,3.1.5,59.87381545
36,Stimuli/Morph36.JPG,Stimuli/Morph36.png,Stimuli/BlurLevel5/BlurEditedMorph36,Stimuli/BlurLevel5/BlurEditedMorph36.png,Stimuli/BlurLevel5/NumberedMorphs/BlurEditedMorph36.png,Stimuli/BlurLevel5/OriginalBlur/BlurEditedMorph36.png,Stimuli/BlurMorphTrio/EditedMorph36.png,010095right.gif,Stimuli/normal_thumbnails/36right.gif,,,,,0,0,0,0,0,11,11,35,,,,,,,,,,,,,,,,,,,,,,,70,12,1,81,0.391086163,2.469220851,36,Experiment,,,,,,,,,22,125,-89,58,,,,,,,,,,,,,,,342.4920138,342.9915832,342.4920138,342.9915832,21.08843537,1575575988,1575575996,7.516113997,1575575986,1575575988,,,s15,1,43,male,expert radiologist,2019_Dec_05_1354,AdjustEyeTrack,3.1.5,59.87381545
17,Stimuli/Morph17.JPG,Stimuli/Morph17.png,Stimuli/BlurLevel5/BlurEditedMorph17,Stimuli/BlurLevel5/BlurEditedMorph17.png,Stimuli/BlurLevel5/NumberedMorphs/BlurEditedMorph17.png,Stimuli/BlurLevel5/OriginalBlur/BlurEditedMorph17.png,Stimuli/BlurMorphTrio/EditedMorph17.png,010036right.gif,Stimuli/normal_thumbnails/17right.gif,,,,,0,0,0,0,0,12,12,16,,,,,,,,,,,,,,,,,,,,,,,100,13,1,16,2.40315424,0.68909339,17,Experiment,,,,,,,,,123,20,-3,-3,,,,,,,,,,,,,,,353.0271603,353.5247964,353.0271603,353.5247964,95.91836735,1575575999,1575576003,4.149353027,1575575996,1575575999,,,s15,1,43,male,expert radiologist,2019_Dec_05_1354,AdjustEyeTrack,3.1.5,59.87381545
41,Stimuli/Morph41.JPG,Stimuli/Morph41.png,Stimuli/BlurLevel5/BlurEditedMorph41,Stimuli/BlurLevel5/BlurEditedMorph41.png,Stimuli/BlurLevel5/NumberedMorphs/BlurEditedMorph41.png,Stimuli/BlurLevel5/OriginalBlur/BlurEditedMorph41.png,Stimuli/BlurMorphTrio/EditedMorph41.png,010112right.gif,Stimuli/normal_thumbnails/41right.gif,,,,,0,0,0,0,0,13,13,40,,,,,,,,,,,,,,,,,,,,,,,64,14,1,251,-0.813920386,-2.363796439,41,Experiment,,,,,,,,,41,42,-1,-1,,,,,,,,,,,,,,,359.8413309,360.3410209,359.8413309,360.3410209,98.63945578,1575576006,1575576012,6.305679083,1575576003,1575576006,,,s15,1,43,male,expert radiologist,2019_Dec_05_1354,AdjustEyeTrack,3.1.5,59.87381545
147,Stimuli/Morph147.JPG,Stimuli/Morph147.png,Stimuli/BlurLevel5/BlurEditedMorph147,Stimuli/BlurLevel5/BlurEditedMorph147.png,Stimuli/BlurLevel5/NumberedMorphs/BlurEditedMorph147.png,Stimuli/BlurLevel5/OriginalBlur/BlurEditedMorph147.png,Stimuli/BlurMorphTrio/EditedMorph147.png,None,None,,,,,0,0,0,0,0,14,14,146,,,,,,,,,,,,,,,,,,,,,,,28,15,1,168,-2.445369002,0.519779227,147,Experiment,,,,,,,,,129,138,9,9,,,,,,,,,,,,,,,369.2519673,369.7576,369.2519673,369.7576,87.75510204,1575576015,1575576024,8.515903234,1575576012,1575576015,,,s15,1,43,male,expert radiologist,2019_Dec_05_1354,AdjustEyeTrack,3.1.5,59.87381545
67,Stimuli/Morph67.JPG,Stimuli/Morph67.png,Stimuli/BlurLevel5/BlurEditedMorph67,Stimuli/BlurLevel5/BlurEditedMorph67.png,Stimuli/BlurLevel5/NumberedMorphs/BlurEditedMorph67.png,Stimuli/BlurLevel5/OriginalBlur/BlurEditedMorph67.png,Stimuli/BlurMorphTrio/EditedMorph67.png,020217right.gif,Stimuli/normal_thumbnails/67right.gif,,,,,0,0,0,0,0,15,15,66,,,,,,,,,,,,,,,,,,,,,,,27,16,1,119,-1.212024051,2.186549268,67,Experiment,,,,,,,,,33,55,12,12,,,,,,,,,,,,,,,380.7909342,381.3072063,380.7909342,381.3072063,83.67346939,1575576027,1575576032,5.803548098,1575576024,1575576027,,,s15,1,43,male,expert radiologist,2019_Dec_05_1354,AdjustEyeTrack,3.1.5,59.87381545
120,Stimuli/Morph120.JPG,Stimuli/Morph120.png,Stimuli/BlurLevel5/BlurEditedMorph120,Stimuli/BlurLevel5/BlurEditedMorph120.png,Stimuli/BlurLevel5/NumberedMorphs/BlurEditedMorph120.png,Stimuli/BlurLevel5/OriginalBlur/BlurEditedMorph120.png,Stimuli/BlurMorphTrio/EditedMorph120.png,None,None,,,,,0,0,0,0,0,16,16,119,,,,,,,,,,,,,,,,,,,,,,,65,17,1,38,1.970026884,1.539153688,120,Experiment,,,,,,,,,124,117,3,3,,,,,,,,,,,,,,,389.0950768,389.6070997,389.0950768,389.6070997,95.91836735,1575576035,1575576039,3.816026211,1575576033,1575576035,,,s15,1,43,male,expert radiologist,2019_Dec_05_1354,AdjustEyeTrack,3.1.5,59.87381545
108,Stimuli/Morph108.JPG,Stimuli/Morph108.png,Stimuli/BlurLevel5/BlurEditedMorph108,Stimuli/BlurLevel5/BlurEditedMorph108.png,Stimuli/BlurLevel5/NumberedMorphs/BlurEditedMorph108.png,Stimuli/BlurLevel5/OriginalBlur/BlurEditedMorph108.png,Stimuli/BlurMorphTrio/EditedMorph108.png,None,None,,,,,0,0,0,0,0,17,17,107,,,,,,,,,,,,,,,,,,,,,,,22,18,1,12,2.445369002,0.519779227,108,Experiment,,,,,,,,,7,115,-7,-7,,,,,,,,,,,,,,,395.4083304,395.9071419,395.4083304,395.9071419,90.47619048,1575576041,1575576046,4.799834013,1575576039,1575576041,,,s15,1,43,male,expert radiologist,2019_Dec_05_1354,AdjustEyeTrack,3.1.5,59.87381545
58,Stimuli/Morph58.JPG,Stimuli/Morph58.png,Stimuli/BlurLevel5/BlurEditedMorph58,Stimuli/BlurLevel5/BlurEditedMorph58.png,Stimuli/BlurLevel5/NumberedMorphs/BlurEditedMorph58.png,Stimuli/BlurLevel5/OriginalBlur/BlurEditedMorph58.png,Stimuli/BlurMorphTrio/EditedMorph58.png,010159right.gif,Stimuli/normal_thumbnails/58right.gif,,,,,0,0,0,0,0,18,18,57,,,,,,,,,,,,,,,,,,,,,,,19,19,1,55,1.433941091,2.047880111,58,Experiment,,,,,,,,,45,46,12,12,,,,,,,,,,,,,,,403.5585972,404.0577961,403.5585972,404.0577961,83.67346939,1575576049,1575576054,4.381584167,1575576046,1575576049,,,s15,1,43,male,expert radiologist,2019_Dec_05_1354,AdjustEyeTrack,3.1.5,59.87381545
72,Stimuli/Morph72.JPG,Stimuli/Morph72.png,Stimuli/BlurLevel5/BlurEditedMorph72,Stimuli/BlurLevel5/BlurEditedMorph72.png,Stimuli/BlurLevel5/NumberedMorphs/BlurEditedMorph72.png,Stimuli/BlurLevel5/OriginalBlur/BlurEditedMorph72.png,Stimuli/BlurMorphTrio/EditedMorph72.png,020227right.gif,Stimuli/normal_thumbnails/72right.gif,,,,,0,0,0,0,0,19,19,71,,,,,,,,,,,,,,,,,,,,,,,67,20,1,354,2.486304738,-0.261321158,72,Experiment,,,,,,,,,20,61,11,11,,,,,,,,,,,,,,,410.6735145,411.1727538,410.6735145,411.1727538,85.03401361,1575576056,1575576060,3.921613216,1575576054,1575576056,,,s15,1,43,male,expert radiologist,2019_Dec_05_1354,AdjustEyeTrack,3.1.5,59.87381545
130,Stimuli/Morph130.JPG,Stimuli/Morph130.png,Stimuli/BlurLevel5/BlurEditedMorph130,Stimuli/BlurLevel5/BlurEditedMorph130.png,Stimuli/BlurLevel5/NumberedMorphs/BlurEditedMorph130.png,Stimuli/BlurLevel5/OriginalBlur/BlurEditedMorph130.png,Stimuli/BlurMorphTrio/EditedMorph130.png,None,None,,,,,0,0,0,0,0,20,20,129,,,,,,,,,,,,,,,,,,,,,,,36,21,1,239,-1.287595187,-2.142918252,130,Experiment,,,,,,,,,61,124,6,6,,,,,,,,,,,,,,,417.743359,418.2394929,417.743359,418.2394929,91.83673469,1575576064,1575576068,4.350497007,1575576061,1575576064,,,s15,1,43,male,expert radiologist,2019_Dec_05_1354,AdjustEyeTrack,3.1.5,59.87381545
137,Stimuli/Morph137.JPG,Stimuli/Morph137.png,Stimuli/BlurLevel5/BlurEditedMorph137,Stimuli/BlurLevel5/BlurEditedMorph137.png,Stimuli/BlurLevel5/NumberedMorphs/BlurEditedMorph137.png,Stimuli/BlurLevel5/OriginalBlur/BlurEditedMorph137.png,Stimuli/BlurMorphTrio/EditedMorph137.png,None,None,,,,,0,0,0,0,0,21,21,136,,,,,,,,,,,,,,,,,,,,,,,50,22,1,192,-2.445369002,-0.519779227,137,Experiment,,,,,,,,,21,130,7,7,,,,,,,,,,,,,,,424.8242469,425.3234232,424.8242469,425.3234232,90.47619048,1575576071,1575576074,3.50000596,1575576068,1575576071,,,s15,1,43,male,expert radiologist,2019_Dec_05_1354,AdjustEyeTrack,3.1.5,59.87381545
22,Stimuli/Morph22.JPG,Stimuli/Morph22.png,Stimuli/BlurLevel5/BlurEditedMorph22,Stimuli/BlurLevel5/BlurEditedMorph22.png,Stimuli/BlurLevel5/NumberedMorphs/BlurEditedMorph22.png,Stimuli/BlurLevel5/OriginalBlur/BlurEditedMorph22.png,Stimuli/BlurMorphTrio/EditedMorph22.png,010055right.gif,Stimuli/normal_thumbnails/22right.gif,,,,,0,0,0,0,0,22,22,21,,,,,,,,,,,,,,,,,,,,,,,2,23,1,265,-0.217889357,-2.490486745,22,Experiment,,,,,,,,,97,17,5,5,,,,,,,,,,,,,,,431.0289916,431.5236106,431.0289916,431.5236106,93.19727891,1575576077,1575576082,5.61603713,1575576074,1575576077,,,s15,1,43,male,expert radiologist,2019_Dec_05_1354,AdjustEyeTrack,3.1.5,59.87381545
111,Stimuli/Morph111.JPG,Stimuli/Morph111.png,Stimuli/BlurLevel5/BlurEditedMorph111,Stimuli/BlurLevel5/BlurEditedMorph111.png,Stimuli/BlurLevel5/NumberedMorphs/BlurEditedMorph111.png,Stimuli/BlurLevel5/OriginalBlur/BlurEditedMorph111.png,Stimuli/BlurMorphTrio/EditedMorph111.png,None,None,,,,,0,0,0,0,0,23,23,110,,,,,,,,,,,,,,,,,,,,,,,14,24,1,169,-2.454067959,0.477022488,111,Experiment,,,,,,,,,46,121,-10,-10,,,,,,,,,,,,,,,439.4741587,439.9740668,439.4741587,439.9740668,86.39455782,1575576085,1575576089,3.71389389,1575576083,1575576085,,,s15,1,43,male,expert radiologist,2019_Dec_05_1354,AdjustEyeTrack,3.1.5,59.87381545
37,Stimuli/Morph37.JPG,Stimuli/Morph37.png,Stimuli/BlurLevel5/BlurEditedMorph37,Stimuli/BlurLevel5/BlurEditedMorph37.png,Stimuli/BlurLevel5/NumberedMorphs/BlurEditedMorph37.png,Stimuli/BlurLevel5/OriginalBlur/BlurEditedMorph37.png,Stimuli/BlurMorphTrio/EditedMorph37.png,010097right.gif,Stimuli/normal_thumbnails/37right.gif,,,,,0,0,0,0,0,24,24,36,,,,,,,,,,,,,,,,,,,,,,,64,25,1,252,-0.772542486,-2.377641291,37,Experiment,,,,,,,,,69,43,-6,-6,,,,,,,,,,,,,,,446.089894,446.5892379,446.089894,446.5892379,91.83673469,1575576092,1575576100,7.615617037,1575576089,1575576092,,,s15,1,43,male,expert radiologist,2019_Dec_05_1354,AdjustEyeTrack,3.1.5,59.87381545
123,Stimuli/Morph123.JPG,Stimuli/Morph123.png,Stimuli/BlurLevel5/BlurEditedMorph123,Stimuli/BlurLevel5/BlurEditedMorph123.png,Stimuli/BlurLevel5/NumberedMorphs/BlurEditedMorph123.png,Stimuli/BlurLevel5/OriginalBlur/BlurEditedMorph123.png,Stimuli/BlurMorphTrio/EditedMorph123.png,None,None,,,,,0,0,0,0,0,25,25,122,,,,,,,,,,,,,,,,,,,,,,,51,26,1,111,-0.895919874,2.333951066,123,Experiment,,,,,,,,,130,119,4,4,,,,,,,,,,,,,,,456.6190597,457.124349,456.6190597,457.124349,94.55782313,1575576102,1575576104,2.06703496,1575576100,1575576102,,,s15,1,43,male,expert radiologist,2019_Dec_05_1354,AdjustEyeTrack,3.1.5,59.87381545
43,Stimuli/Morph43.JPG,Stimuli/Morph43.png,Stimuli/BlurLevel5/BlurEditedMorph43,Stimuli/BlurLevel5/BlurEditedMorph43.png,Stimuli/BlurLevel5/NumberedMorphs/BlurEditedMorph43.png,Stimuli/BlurLevel5/OriginalBlur/BlurEditedMorph43.png,Stimuli/BlurMorphTrio/EditedMorph43.png,010124right.gif,Stimuli/normal_thumbnails/43right.gif,,,,,0,0,0,0,0,26,26,42,,,,,,,,,,,,,,,,,,,,,,,63,27,1,262,-0.347932752,-2.475670172,43,Experiment,,,,,,,,,76,39,4,4,,,,,,,,,,,,,,,461.4112363,461.9065918,461.4112363,461.9065918,94.55782313,1575576107,1575576110,2.932688236,1575576105,1575576107,,,s15,1,43,male,expert radiologist,2019_Dec_05_1354,AdjustEyeTrack,3.1.5,59.87381545
142,Stimuli/Morph142.JPG,Stimuli/Morph142.png,Stimuli/BlurLevel5/BlurEditedMorph142,Stimuli/BlurLevel5/BlurEditedMorph142.png,Stimuli/BlurLevel5/NumberedMorphs/BlurEditedMorph142.png,Stimuli/BlurLevel5/OriginalBlur/BlurEditedMorph142.png,Stimuli/BlurMorphTrio/EditedMorph142.png,None,None,,,,,0,0,0,0,0,27,27,141,,,,,,,,,,,,,,,,,,,,,,,69,28,1,346,2.425739316,-0.604804739,142,Experiment,,,,,,,,,62,125,17,17,,,,,,,,,,,,,,,467.5243948,468.0223823,467.5243948,468.0223823,76.8707483,1575576113,1575576118,4.231956959,1575576110,1575576113,,,s15,1,43,male,expert radiologist,2019_Dec_05_1354,AdjustEyeTrack,3.1.5,59.87381545
29,Stimuli/Morph29.JPG,Stimuli/Morph29.png,Stimuli/BlurLevel5/BlurEditedMorph29,Stimuli/BlurLevel5/BlurEditedMorph29.png,Stimuli/BlurLevel5/NumberedMorphs/BlurEditedMorph29.png,Stimuli/BlurLevel5/OriginalBlur/BlurEditedMorph29.png,Stimuli/BlurMorphTrio/EditedMorph29.png,010074right.gif,Stimuli/normal_thumbnails/29right.gif,,,,,0,0,0,0,0,28,28,28,,,,,,,,,,,,,,,,,,,,,,,96,29,1,114,-1.016841608,2.283863644,29,Experiment,,,,,,,,,83,17,12,12,,,,,,,,,,,,,,,475.6293704,476.1430501,475.6293704,476.1430501,83.67346939,1575576121,1575576126,4.249533176,1575576118,1575576121,,,s15,1,43,male,expert radiologist,2019_Dec_05_1354,AdjustEyeTrack,3.1.5,59.87381545
52,Stimuli/Morph52.JPG,Stimuli/Morph52.png,Stimuli/BlurLevel5/BlurEditedMorph52,Stimuli/BlurLevel5/BlurEditedMorph52.png,Stimuli/BlurLevel5/NumberedMorphs/BlurEditedMorph52.png,Stimuli/BlurLevel5/OriginalBlur/BlurEditedMorph52.png,Stimuli/BlurMorphTrio/EditedMorph52.png,010148right.gif,Stimuli/normal_thumbnails/52right.gif,,,,,0,0,0,0,0,29,29,51,,,,,,,,,,,,,,,,,,,,,,,60,30,1,235,-1.433941091,-2.047880111,52,Experiment,,,,,,,,,37,48,4,4,,,,,,,,,,,,,,,483.0435428,483.5394895,483.0435428,483.5394895,94.55782313,1575576129,1575576136,6.900948048,1575576126,1575576129,,,s15,1,43,male,expert radiologist,2019_Dec_05_1354,AdjustEyeTrack,3.1.5,59.87381545
63,Stimuli/Morph63.JPG,Stimuli/Morph63.png,Stimuli/BlurLevel5/BlurEditedMorph63,Stimuli/BlurLevel5/BlurEditedMorph63.png,Stimuli/BlurLevel5/NumberedMorphs/BlurEditedMorph63.png,Stimuli/BlurLevel5/OriginalBlur/BlurEditedMorph63.png,Stimuli/BlurMorphTrio/EditedMorph63.png,020206right.gif,Stimuli/normal_thumbnails/63right.gif,,,,,0,0,0,0,0,30,30,62,,,,,,,,,,,,,,,,,,,,,,,31,31,1,66,1.016841608,2.283863644,63,Experiment,,,,,,,,,111,56,7,7,,,,,,,,,,,,,,,493.0481495,493.5558828,493.0481495,493.5558828,90.47619048,1575576139,1575576144,5.449741125,1575576136,1575576139,,,s15,1,43,male,expert radiologist,2019_Dec_05_1354,AdjustEyeTrack,3.1.5,59.87381545
53,Stimuli/Morph53.JPG,Stimuli/Morph53.png,Stimuli/BlurLevel5/BlurEditedMorph53,Stimuli/BlurLevel5/BlurEditedMorph53.png,Stimuli/BlurLevel5/NumberedMorphs/BlurEditedMorph53.png,Stimuli/BlurLevel5/OriginalBlur/BlurEditedMorph53.png,Stimuli/BlurMorphTrio/EditedMorph53.png,010149right.gif,Stimuli/normal_thumbnails/53right.gif,,,,,0,0,0,0,0,31,31,52,,,,,,,,,,,,,,,,,,,,,,,2,32,1,91,-0.043631016,2.499619238,53,Experiment,,,,,,,,,19,47,6,6,,,,,,,,,,,,,,,501.4244131,501.9219625,501.4244131,501.9219625,91.83673469,1575576147,1575576152,4.607239008,1575576145,1575576147,,,s15,1,43,male,expert radiologist,2019_Dec_05_1354,AdjustEyeTrack,3.1.5,59.87381545
100,Stimuli/Morph100.JPG,Stimuli/Morph100.png,Stimuli/BlurLevel5/BlurEditedMorph100,Stimuli/BlurLevel5/BlurEditedMorph100.png,Stimuli/BlurLevel5/NumberedMorphs/BlurEditedMorph100.png,Stimuli/BlurLevel5/OriginalBlur/BlurEditedMorph100.png,Stimuli/BlurMorphTrio/EditedMorph100.png,020297right.gif,Stimuli/normal_thumbnails/100right.gif,,,,,0,0,0,0,0,32,32,99,,,,,,,,,,,,,,,,,,,,,,,55,33,1,286,0.68909339,-2.40315424,100,Experiment,,,,,,,,,26,124,-24,-24,,,,,,,,,,,,,,,508.4754237,508.9720965,508.4754237,508.9720965,67.34693878,1575576154,1575576159,4.950470209,1575576152,1575576154,,,s15,1,43,male,expert radiologist,2019_Dec_05_1354,AdjustEyeTrack,3.1.5,59.87381545
104,Stimuli/Morph104.JPG,Stimuli/Morph104.png,Stimuli/BlurLevel5/BlurEditedMorph104,Stimuli/BlurLevel5/BlurEditedMorph104.png,Stimuli/BlurLevel5/NumberedMorphs/BlurEditedMorph104.png,Stimuli/BlurLevel5/OriginalBlur/BlurEditedMorph104.png,Stimuli/BlurMorphTrio/EditedMorph104.png,None,None,,,,,0,0,0,0,0,33,33,103,,,,,,,,,,,,,,,,,,,,,,,7,34,1,352,2.475670172,-0.347932752,104,Experiment,,,,,,,,,132,107,-3,-3,,,,,,,,,,,,,,,516.0738615,516.5719142,516.0738615,516.5719142,95.91836735,1575576162,1575576164,2.33291316,1575576160,1575576162,,,s15,1,43,male,expert radiologist,2019_Dec_05_1354,AdjustEyeTrack,3.1.5,59.87381545
83,Stimuli/Morph83.JPG,Stimuli/Morph83.png,Stimuli/BlurLevel5/BlurEditedMorph83,Stimuli/BlurLevel5/BlurEditedMorph83.png,Stimuli/BlurLevel5/NumberedMorphs/BlurEditedMorph83.png,Stimuli/BlurLevel5/OriginalBlur/BlurEditedMorph83.png,Stimuli/BlurMorphTrio/EditedMorph83.png,020259right.gif,Stimuli/normal_thumbnails/83right.gif,,,,,0,0,0,0,0,34,34,82,,,,,,,,,,,,,,,,,,,,,,,50,35,1,286,0.68909339,-2.40315424,83,Experiment,,,,,,,,,58,56,27,27,,,,,,,,,,,,,,,521.3172237,521.8288114,521.3172237,521.8288114,63.26530612,1575576167,1575576175,7.832525015,1575576164,1575576167,,,s15,1,43,male,expert radiologist,2019_Dec_05_1354,AdjustEyeTrack,3.1.5,59.87381545
127,Stimuli/Morph127.JPG,Stimuli/Morph127.png,Stimuli/BlurLevel5/BlurEditedMorph127,Stimuli/BlurLevel5/BlurEditedMorph127.png,Stimuli/BlurLevel5/NumberedMorphs/BlurEditedMorph127.png,Stimuli/BlurLevel5/OriginalBlur/BlurEditedMorph127.png,Stimuli/BlurMorphTrio/EditedMorph127.png,None,None,,,,,0,0,0,0,0,35,35,126,,,,,,,,,,,,,,,,,,,,,,,58,36,1,161,-2.363796439,0.813920386,127,Experiment,,,,,,,,,44,116,11,11,,,,,,,,,,,,,,,531.9249786,532.4236314,531.9249786,532.4236314,85.03401361,1575576178,1575576182,4.272127151,1575576175,1575576178,,,s15,1,43,male,expert radiologist,2019_Dec_05_1354,AdjustEyeTrack,3.1.5,59.87381545
74,Stimuli/Morph74.JPG,Stimuli/Morph74.png,Stimuli/BlurLevel5/BlurEditedMorph74,Stimuli/BlurLevel5/BlurEditedMorph74.png,Stimuli/BlurLevel5/NumberedMorphs/BlurEditedMorph74.png,Stimuli/BlurLevel5/OriginalBlur/BlurEditedMorph74.png,Stimuli/BlurMorphTrio/EditedMorph74.png,020232right.gif,Stimuli/normal_thumbnails/74right.gif,,,,,0,0,0,0,0,36,36,73,,,,,,,,,,,,,,,,,,,,,,,23,37,1,64,1.095927867,2.246985116,74,Experiment,,,,,,,,,41,56,18,18,,,,,,,,,,,,,,,539.0248893,539.5212943,539.0248893,539.5212943,75.51020408,1575576185,1575576191,5.935321808,1575576182,1575576185,,,s15,1,43,male,expert radiologist,2019_Dec_05_1354,AdjustEyeTrack,3.1.5,59.87381545
56,Stimuli/Morph56.JPG,Stimuli/Morph56.png,Stimuli/BlurLevel5/BlurEditedMorph56,Stimuli/BlurLevel5/BlurEditedMorph56.png,Stimuli/BlurLevel5/NumberedMorphs/BlurEditedMorph56.png,Stimuli/BlurLevel5/OriginalBlur/BlurEditedMorph56.png,Stimuli/BlurMorphTrio/EditedMorph56.png,010157right.gif,Stimuli/normal_thumbnails/56right.gif,,,,,0,0,0,0,0,37,37,55,,,,,,,,,,,,,,,,,,,,,,,68,38,1,311,1.640147572,-1.886773951,56,Experiment,,,,,,,,,127,51,5,5,,,,,,,,,,,,,,,547.657109,548.1546776,547.657109,548.1546776,93.19727891,1575576193,1575576201,7.499877214,1575576191,1575576193,,,s15,1,43,male,expert radiologist,2019_Dec_05_1354,AdjustEyeTrack,3.1.5,59.87381545
66,Stimuli/Morph66.JPG,Stimuli/Morph66.png,Stimuli/BlurLevel5/BlurEditedMorph66,Stimuli/BlurLevel5/BlurEditedMorph66.png,Stimuli/BlurLevel5/NumberedMorphs/BlurEditedMorph66.png,Stimuli/BlurLevel5/OriginalBlur/BlurEditedMorph66.png,Stimuli/BlurMorphTrio/EditedMorph66.png,020212right.gif,Stimuli/normal_thumbnails/66right.gif,,,,,0,0,0,0,0,38,38,65,,,,,,,,,,,,,,,,,,,,,,,95,39,1,19,2.363796439,0.813920386,66,Experiment,,,,,,,,,84,70,-4,-4,,,,,,,,,,,,,,,558.4937457,558.9907762,558.4937457,558.9907762,94.55782313,1575576204,1575576207,2.85768795,1575576201,1575576204,,,s15,1,43,male,expert radiologist,2019_Dec_05_1354,AdjustEyeTrack,3.1.5,59.87381545
57,Stimuli/Morph57.JPG,Stimuli/Morph57.png,Stimuli/BlurLevel5/BlurEditedMorph57,Stimuli/BlurLevel5/BlurEditedMorph57.png,Stimuli/BlurLevel5/NumberedMorphs/BlurEditedMorph57.png,Stimuli/BlurLevel5/OriginalBlur/BlurEditedMorph57.png,Stimuli/BlurMorphTrio/EditedMorph57.png,010158right.gif,Stimuli/normal_thumbnails/57right.gif,,,,,0,0,0,0,0,39,39,56,,,,,,,,,,,,,,,,,,,,,,,73,40,1,241,-1.212024051,-2.186549268,57,Experiment,,,,,,,,,42,55,2,2,,,,,,,,,,,,,,,563.973999,564.4713426,563.973999,564.4713426,97.27891156,1575576210,1575576214,4.385262966,1575576207,1575576210,,,s15,1,43,male,expert radiologist,2019_Dec_05_1354,AdjustEyeTrack,3.1.5,59.87381545
14,Stimuli/Morph14.JPG,Stimuli/Morph14.png,Stimuli/BlurLevel5/BlurEditedMorph14,Stimuli/BlurLevel5/BlurEditedMorph14.png,Stimuli/BlurLevel5/NumberedMorphs/BlurEditedMorph14.png,Stimuli/BlurLevel5/OriginalBlur/BlurEditedMorph14.png,Stimuli/BlurMorphTrio/EditedMorph14.png,010030right.gif,Stimuli/normal_thumbnails/14right.gif,,,,,0,0,0,0,0,40,40,13,,,,,,,,,,,,,,,,,,,,,,,44,41,1,30,2.165063509,1.25,14,Experiment,,,,,,,,,92,23,-9,-9,,,,,,,,,,,,,,,570.9115342,571.4050274,570.9115342,571.4050274,87.75510204,1575576217,1575576221,4.449882984,1575576214,1575576217,,,s15,1,43,male,expert radiologist,2019_Dec_05_1354,AdjustEyeTrack,3.1.5,59.87381545
115,Stimuli/Morph115.JPG,Stimuli/Morph115.png,Stimuli/BlurLevel5/BlurEditedMorph115,Stimuli/BlurLevel5/BlurEditedMorph115.png,Stimuli/BlurLevel5/NumberedMorphs/BlurEditedMorph115.png,Stimuli/BlurLevel5/OriginalBlur/BlurEditedMorph115.png,Stimuli/BlurMorphTrio/EditedMorph115.png,None,None,,,,,0,0,0,0,0,41,41,114,,,,,,,,,,,,,,,,,,,,,,,78,42,1,165,-2.414814566,0.647047613,115,Experiment,,,,,,,,,63,122,-7,-7,,,,,,,,,,,,,,,578.0135449,578.5048286,578.0135449,578.5048286,90.47619048,1575576224,1575576228,4.069510698,1575576221,1575576224,,,s15,1,43,male,expert radiologist,2019_Dec_05_1354,AdjustEyeTrack,3.1.5,59.87381545
42,Stimuli/Morph42.JPG,Stimuli/Morph42.png,Stimuli/BlurLevel5/BlurEditedMorph42,Stimuli/BlurLevel5/BlurEditedMorph42.png,Stimuli/BlurLevel5/NumberedMorphs/BlurEditedMorph42.png,Stimuli/BlurLevel5/OriginalBlur/BlurEditedMorph42.png,Stimuli/BlurMorphTrio/EditedMorph42.png,010121right.gif,Stimuli/normal_thumbnails/42right.gif,,,,,0,0,0,0,0,42,42,41,,,,,,,,,,,,,,,,,,,,,,,4,43,1,131,-1.640147572,1.886773951,42,Experiment,,,,,,,,,107,50,-8,-8,,,,,,,,,,,,,,,585.2976645,585.8050974,585.2976645,585.8050974,89.11564626,1575576231,1575576234,2.953487873,1575576228,1575576231,,,s15,1,43,male,expert radiologist,2019_Dec_05_1354,AdjustEyeTrack,3.1.5,59.87381545
64,Stimuli/Morph64.JPG,Stimuli/Morph64.png,Stimuli/BlurLevel5/BlurEditedMorph64,Stimuli/BlurLevel5/BlurEditedMorph64.png,Stimuli/BlurLevel5/NumberedMorphs/BlurEditedMorph64.png,Stimuli/BlurLevel5/OriginalBlur/BlurEditedMorph64.png,Stimuli/BlurMorphTrio/EditedMorph64.png,020208right.gif,Stimuli/normal_thumbnails/64right.gif,,,,,0,0,0,0,0,43,43,63,,,,,,,,,,,,,,,,,,,,,,,61,44,1,329,2.142918252,-1.287595187,64,Experiment,,,,,,,,,5,52,12,12,,,,,,,,,,,,,,,591.4796016,591.988586,591.4796016,591.988586,83.67346939,1575576237,1575576242,4.868451834,1575576234,1575576237,,,s15,1,43,male,expert radiologist,2019_Dec_05_1354,AdjustEyeTrack,3.1.5,59.87381545
92,Stimuli/Morph92.JPG,Stimuli/Morph92.png,Stimuli/BlurLevel5/BlurEditedMorph92,Stimuli/BlurLevel5/BlurEditedMorph92.png,Stimuli/BlurLevel5/NumberedMorphs/BlurEditedMorph92.png,Stimuli/BlurLevel5/OriginalBlur/BlurEditedMorph92.png,Stimuli/BlurMorphTrio/EditedMorph92.png,020277right.gif,Stimuli/normal_thumbnails/92right.gif,,,,,0,0,0,0,0,44,44,91,,,,,,,,,,,,,,,,,,,,,,,42,45,1,239,-1.287595187,-2.142918252,92,Experiment,,,,,,,,,81,87,5,5,,,,,,,,,,,,,,,599.8612156,600.3726262,599.8612156,600.3726262,93.19727891,1575576246,1575576249,3.666227818,1575576242,1575576246,,,s15,1,43,male,expert radiologist,2019_Dec_05_1354,AdjustEyeTrack,3.1.5,59.87381545
133,Stimuli/Morph133.JPG,Stimuli/Morph133.png,Stimuli/BlurLevel5/BlurEditedMorph133,Stimuli/BlurLevel5/BlurEditedMorph133.png,Stimuli/BlurLevel5/NumberedMorphs/BlurEditedMorph133.png,Stimuli/BlurLevel5/OriginalBlur/BlurEditedMorph133.png,Stimuli/BlurMorphTrio/EditedMorph133.png,None,None,,,,,0,0,0,0,0,45,45,132,,,,,,,,,,,,,,,,,,,,,,,95,46,1,241,-1.212024051,-2.186549268,133,Experiment,,,,,,,,,18,120,13,13,,,,,,,,,,,,,,,606.9740336,607.4872215,606.9740336,607.4872215,82.31292517,1575576253,1575576256,3.276030064,1575576250,1575576253,,,s15,1,43,male,expert radiologist,2019_Dec_05_1354,AdjustEyeTrack,3.1.5,59.87381545
44,Stimuli/Morph44.JPG,Stimuli/Morph44.png,Stimuli/BlurLevel5/BlurEditedMorph44,Stimuli/BlurLevel5/BlurEditedMorph44.png,Stimuli/BlurLevel5/NumberedMorphs/BlurEditedMorph44.png,Stimuli/BlurLevel5/OriginalBlur/BlurEditedMorph44.png,Stimuli/BlurMorphTrio/EditedMorph44.png,010126right.gif,Stimuli/normal_thumbnails/44right.gif,,,,,0,0,0,0,0,46,46,43,,,,,,,,,,,,,,,,,,,,,,,70,47,1,8,2.475670172,0.347932752,44,Experiment,,,,,,,,,94,48,-4,-4,,,,,,,,,,,,,,,613.0560106,613.5541178,613.0560106,613.5541178,94.55782313,1575576259,1575576263,4.199374914,1575576256,1575576259,,,s15,1,43,male,expert radiologist,2019_Dec_05_1354,AdjustEyeTrack,3.1.5,59.87381545
18,Stimuli/Morph18.JPG,Stimuli/Morph18.png,Stimuli/BlurLevel5/BlurEditedMorph18,Stimuli/BlurLevel5/BlurEditedMorph18.png,Stimuli/BlurLevel5/NumberedMorphs/BlurEditedMorph18.png,Stimuli/BlurLevel5/OriginalBlur/BlurEditedMorph18.png,Stimuli/BlurMorphTrio/EditedMorph18.png,010039right.gif,Stimuli/normal_thumbnails/18right.gif,,,,,0,0,0,0,0,47,47,17,,,,,,,,,,,,,,,,,,,,,,,74,48,1,265,-0.217889357,-2.490486745,18,Experiment,,,,,,,,,25,22,-4,-4,,,,,,,,,,,,,,,620.1883044,620.686665,620.1883044,620.686665,94.55782313,1575576266,1575576271,4.633701324,1575576263,1575576266,,,s15,1,43,male,expert radiologist,2019_Dec_05_1354,AdjustEyeTrack,3.1.5,59.87381545
112,Stimuli/Morph112.JPG,Stimuli/Morph112.png,Stimuli/BlurLevel5/BlurEditedMorph112,Stimuli/BlurLevel5/BlurEditedMorph112.png,Stimuli/BlurLevel5/NumberedMorphs/BlurEditedMorph112.png,Stimuli/BlurLevel5/OriginalBlur/BlurEditedMorph112.png,Stimuli/BlurMorphTrio/EditedMorph112.png,None,None,,,,,0,0,0,0,0,48,48,111,,,,,,,,,,,,,,,,,,,,,,,4,49,1,233,-1.504537558,-1.996588775,112,Experiment,,,,,,,,,116,121,-9,-9,,,,,,,,,,,,,,,628.02539,628.5213357,628.02539,628.5213357,87.75510204,1575576274,1575576277,3.26904583,1575576271,1575576274,,,s15,1,43,male,expert radiologist,2019_Dec_05_1354,AdjustEyeTrack,3.1.5,59.87381545
146,Stimuli/Morph146.JPG,Stimuli/Morph146.png,Stimuli/BlurLevel5/BlurEditedMorph146,Stimuli/BlurLevel5/BlurEditedMorph146.png,Stimuli/BlurLevel5/NumberedMorphs/BlurEditedMorph146.png,Stimuli/BlurLevel5/OriginalBlur/BlurEditedMorph146.png,Stimuli/BlurMorphTrio/EditedMorph146.png,None,None,,,,,0,0,0,0,0,49,49,145,,,,,,,,,,,,,,,,,,,,,,,59,50,1,218,-1.970026884,-1.539153688,146,Experiment,,,,,,,,,134,134,12,12,,,,,,,,,,,,,,,633.5889162,634.0871023,633.5889162,634.0871023,83.67346939,1575576279,1575576281,1.365997076,1575576277,1575576279,,,s15,1,43,male,expert radiologist,2019_Dec_05_1354,AdjustEyeTrack,3.1.5,59.87381545
21,Stimuli/Morph21.JPG,Stimuli/Morph21.png,Stimuli/BlurLevel5/BlurEditedMorph21,Stimuli/BlurLevel5/BlurEditedMorph21.png,Stimuli/BlurLevel5/NumberedMorphs/BlurEditedMorph21.png,Stimuli/BlurLevel5/OriginalBlur/BlurEditedMorph21.png,Stimuli/BlurMorphTrio/EditedMorph21.png,010049right.gif,Stimuli/normal_thumbnails/21right.gif,,,,,0,0,0,0,0,50,50,20,,,,,,,,,,,,,,,,,,,,,,,58,51,1,27,2.22751631,1.134976249,21,Experiment,,,,,,,,,132,25,-4,-4,,,,,,,,,,,,,,,637.5536332,638.0547394,637.5536332,638.0547394,94.55782313,1575576283,1575576288,4.866945982,1575576281,1575576283,,,s15,1,43,male,expert radiologist,2019_Dec_05_1354,AdjustEyeTrack,3.1.5,59.87381545
119,Stimuli/Morph119.JPG,Stimuli/Morph119.png,Stimuli/BlurLevel5/BlurEditedMorph119,Stimuli/BlurLevel5/BlurEditedMorph119.png,Stimuli/BlurLevel5/NumberedMorphs/BlurEditedMorph119.png,Stimuli/BlurLevel5/OriginalBlur/BlurEditedMorph119.png,Stimuli/BlurMorphTrio/EditedMorph119.png,None,None,,,,,0,0,0,0,0,51,51,118,,,,,,,,,,,,,,,,,,,,,,,69,52,1,321,1.942864904,-1.573300978,119,Experiment,,,,,,,,,67,114,5,5,,,,,,,,,,,,,,,645.5536115,646.0720174,645.5536115,646.0720174,93.19727891,1575576291,1575576296,4.91857028,1575576289,1575576291,,,s15,1,43,male,expert radiologist,2019_Dec_05_1354,AdjustEyeTrack,3.1.5,59.87381545
106,Stimuli/Morph106.JPG,Stimuli/Morph106.png,Stimuli/BlurLevel5/BlurEditedMorph106,Stimuli/BlurLevel5/BlurEditedMorph106.png,Stimuli/BlurLevel5/NumberedMorphs/BlurEditedMorph106.png,Stimuli/BlurLevel5/OriginalBlur/BlurEditedMorph106.png,Stimuli/BlurMorphTrio/EditedMorph106.png,None,None,,,,,0,0,0,0,0,52,52,105,,,,,,,,,,,,,,,,,,,,,,,47,53,1,88,0.087248742,2.498477068,106,Experiment,,,,,,,,,2,106,0,0,,,,,,,,,,,,,,,654.0395646,654.5370845,654.0395646,654.5370845,100,1575576300,1575576304,3.700208187,1575576297,1575576300,,,s15,1,43,male,expert radiologist,2019_Dec_05_1354,AdjustEyeTrack,3.1.5,59.87381545
38,Stimuli/Morph38.JPG,Stimuli/Morph38.png,Stimuli/BlurLevel5/BlurEditedMorph38,Stimuli/BlurLevel5/BlurEditedMorph38.png,Stimuli/BlurLevel5/NumberedMorphs/BlurEditedMorph38.png,Stimuli/BlurLevel5/OriginalBlur/BlurEditedMorph38.png,Stimuli/BlurMorphTrio/EditedMorph38.png,010108right.gif,Stimuli/normal_thumbnails/38right.gif,,,,,0,0,0,0,0,53,53,37,,,,,,,,,,,,,,,,,,,,,,,75,54,1,305,1.433941091,-2.047880111,38,Experiment,,,,,,,,,134,50,-12,-12,,,,,,,,,,,,,,,660.3207436,660.8201426,660.3207436,660.8201426,83.67346939,1575576306,1575576310,3.94836998,1575576304,1575576306,,,s15,1,43,male,expert radiologist,2019_Dec_05_1354,AdjustEyeTrack,3.1.5,59.87381545
3,Stimuli/Morph3.JPG,Stimuli/Morph3.png,Stimuli/BlurLevel5/BlurEditedMorph3,Stimuli/BlurLevel5/BlurEditedMorph3.png,Stimuli/BlurLevel5/NumberedMorphs/BlurEditedMorph3.png,Stimuli/BlurLevel5/OriginalBlur/BlurEditedMorph3.png,Stimuli/BlurMorphTrio/EditedMorph3.png,010009right.gif,Stimuli/normal_thumbnails/3right.gif,,,,,0,0,0,0,0,54,54,2,,,,,,,,,,,,,,,,,,,,,,,99,55,1,71,0.813920386,2.363796439,3,Experiment,,,,,,,,,11,3,0,0,,,,,,,,,,,,,,,666.6031641,667.103395,666.6031641,667.103395,100,1575576312,1575576315,2.953963995,1575576310,1575576312,,,s15,1,43,male,expert radiologist,2019_Dec_05_1354,AdjustEyeTrack,3.1.5,59.87381545
39,Stimuli/Morph39.JPG,Stimuli/Morph39.png,Stimuli/BlurLevel5/BlurEditedMorph39,Stimuli/BlurLevel5/BlurEditedMorph39.png,Stimuli/BlurLevel5/NumberedMorphs/BlurEditedMorph39.png,Stimuli/BlurLevel5/OriginalBlur/BlurEditedMorph39.png,Stimuli/BlurMorphTrio/EditedMorph39.png,010109right.gif,Stimuli/normal_thumbnails/39right.gif,,,,,0,0,0,0,0,55,55,38,,,,,,,,,,,,,,,,,,,,,,,100,56,1,244,-1.095927867,-2.246985116,39,Experiment,,,,,,,,,81,46,-7,-7,,,,,,,,,,,,,,,672.3698994,672.8710207,672.3698994,672.8710207,90.47619048,1575576318,1575576321,2.649775743,1575576316,1575576318,,,s15,1,43,male,expert radiologist,2019_Dec_05_1354,AdjustEyeTrack,3.1.5,59.87381545
25,Stimuli/Morph25.JPG,Stimuli/Morph25.png,Stimuli/BlurLevel5/BlurEditedMorph25,Stimuli/BlurLevel5/BlurEditedMorph25.png,Stimuli/BlurLevel5/NumberedMorphs/BlurEditedMorph25.png,Stimuli/BlurLevel5/OriginalBlur/BlurEditedMorph25.png,Stimuli/BlurMorphTrio/EditedMorph25.png,010069right.gif,Stimuli/normal_thumbnails/25right.gif,,,,,0,0,0,0,0,56,56,24,,,,,,,,,,,,,,,,,,,,,,,1,57,1,205,-2.265769468,-1.056545654,25,Experiment,,,,,,,,,137,42,-17,-17,,,,,,,,,,,,,,,677.0389554,677.5363243,677.0389554,677.5363243,76.8707483,1575576323,1575576327,3.815448761,1575576321,1575576323,,,s15,1,43,male,expert radiologist,2019_Dec_05_1354,AdjustEyeTrack,3.1.5,59.87381545
27,Stimuli/Morph27.JPG,Stimuli/Morph27.png,Stimuli/BlurLevel5/BlurEditedMorph27,Stimuli/BlurLevel5/BlurEditedMorph27.png,Stimuli/BlurLevel5/NumberedMorphs/BlurEditedMorph27.png,Stimuli/BlurLevel5/OriginalBlur/BlurEditedMorph27.png,Stimuli/BlurMorphTrio/EditedMorph27.png,010072right.gif,Stimuli/normal_thumbnails/27right.gif,,,,,0,0,0,0,0,57,57,26,,,,,,,,,,,,,,,,,,,,,,,11,58,1,239,-1.287595187,-2.142918252,27,Experiment,,,,,,,,,92,38,-11,-11,,,,,,,,,,,,,,,684.3406322,684.8376609,684.3406322,684.8376609,85.03401361,1575576330,1575576335,4.536162138,1575576327,1575576330,,,s15,1,43,male,expert radiologist,2019_Dec_05_1354,AdjustEyeTrack,3.1.5,59.87381545
124,Stimuli/Morph124.JPG,Stimuli/Morph124.png,Stimuli/BlurLevel5/BlurEditedMorph124,Stimuli/BlurLevel5/BlurEditedMorph124.png,Stimuli/BlurLevel5/NumberedMorphs/BlurEditedMorph124.png,Stimuli/BlurLevel5/OriginalBlur/BlurEditedMorph124.png,Stimuli/BlurMorphTrio/EditedMorph124.png,None,None,,,,,0,0,0,0,0,58,58,123,,,,,,,,,,,,,,,,,,,,,,,17,59,1,314,1.736645926,-1.798349501,124,Experiment,,,,,,,,,112,127,-3,-3,,,,,,,,,,,,,,,691.5035618,692.004597,691.5035618,692.004597,95.91836735,1575576337,1575576341,3.935998917,1575576335,1575576337,,,s15,1,43,male,expert radiologist,2019_Dec_05_1354,AdjustEyeTrack,3.1.5,59.87381545
33,Stimuli/Morph33.JPG,Stimuli/Morph33.png,Stimuli/BlurLevel5/BlurEditedMorph33,Stimuli/BlurLevel5/BlurEditedMorph33.png,Stimuli/BlurLevel5/NumberedMorphs/BlurEditedMorph33.png,Stimuli/BlurLevel5/OriginalBlur/BlurEditedMorph33.png,Stimuli/BlurMorphTrio/EditedMorph33.png,010089right.gif,Stimuli/normal_thumbnails/33right.gif,,,,,0,0,0,0,0,59,59,32,,,,,,,,,,,,,,,,,,,,,,,66,60,1,11,2.454067959,0.477022488,33,Experiment,,,,,,,,,84,41,-8,-8,,,,,,,,,,,,,,,698.0563739,698.5535194,698.0563739,698.5535194,89.11564626,1575576344,1575576349,4.734122038,1575576342,1575576344,,,s15,1,43,male,expert radiologist,2019_Dec_05_1354,AdjustEyeTrack,3.1.5,59.87381545
76,Stimuli/Morph76.JPG,Stimuli/Morph76.png,Stimuli/BlurLevel5/BlurEditedMorph76,Stimuli/BlurLevel5/BlurEditedMorph76.png,Stimuli/BlurLevel5/NumberedMorphs/BlurEditedMorph76.png,Stimuli/BlurLevel5/OriginalBlur/BlurEditedMorph76.png,Stimuli/BlurMorphTrio/EditedMorph76.png,020234right.gif,Stimuli/normal_thumbnails/76right.gif,,,,,0,0,0,0,0,60,60,75,,,,,,,,,,,,,,,,,,,,,,,58,61,1,326,2.072593931,-1.397982259,76,Experiment,,,,,,,,,93,64,12,12,,,,,,,,,,,,,,,705.6557643,706.1530497,705.6557643,706.1530497,83.67346939,1575576351,1575576359,7.649377823,1575576349,1575576351,,,s15,1,43,male,expert radiologist,2019_Dec_05_1354,AdjustEyeTrack,3.1.5,59.87381545
68,Stimuli/Morph68.JPG,Stimuli/Morph68.png,Stimuli/BlurLevel5/BlurEditedMorph68,Stimuli/BlurLevel5/BlurEditedMorph68.png,Stimuli/BlurLevel5/NumberedMorphs/BlurEditedMorph68.png,Stimuli/BlurLevel5/OriginalBlur/BlurEditedMorph68.png,Stimuli/BlurMorphTrio/EditedMorph68.png,020218right.gif,Stimuli/normal_thumbnails/68right.gif,,,,,0,0,0,0,0,61,61,67,,,,,,,,,,,,,,,,,,,,,,,39,62,1,16,2.40315424,0.68909339,68,Experiment,,,,,,,,,120,68,0,0,,,,,,,,,,,,,,,716.0731347,716.5696377,716.0731347,716.5696377,100,1575576362,1575576366,3.917221785,1575576359,1575576362,,,s15,1,43,male,expert radiologist,2019_Dec_05_1354,AdjustEyeTrack,3.1.5,59.87381545
31,Stimuli/Morph31.JPG,Stimuli/Morph31.png,Stimuli/BlurLevel5/BlurEditedMorph31,Stimuli/BlurLevel5/BlurEditedMorph31.png,Stimuli/BlurLevel5/NumberedMorphs/BlurEditedMorph31.png,Stimuli/BlurLevel5/OriginalBlur/BlurEditedMorph31.png,Stimuli/BlurMorphTrio/EditedMorph31.png,010079right.gif,Stimuli/normal_thumbnails/31right.gif,,,,,0,0,0,0,0,62,62,30,,,,,,,,,,,,,,,,,,,,,,,29,63,1,162,-2.377641291,0.772542486,31,Experiment,,,,,,,,,94,32,-1,-1,,,,,,,,,,,,,,,723.3084628,723.8088542,723.3084628,723.8088542,98.63945578,1575576369,1575576374,5.132781744,1575576366,1575576369,,,s15,1,43,male,expert radiologist,2019_Dec_05_1354,AdjustEyeTrack,3.1.5,59.87381545
135,Stimuli/Morph135.JPG,Stimuli/Morph135.png,Stimuli/BlurLevel5/BlurEditedMorph135,Stimuli/BlurLevel5/BlurEditedMorph135.png,Stimuli/BlurLevel5/NumberedMorphs/BlurEditedMorph135.png,Stimuli/BlurLevel5/OriginalBlur/BlurEditedMorph135.png,Stimuli/BlurMorphTrio/EditedMorph135.png,None,None,,,,,0,0,0,0,0,63,63,134,,,,,,,,,,,,,,,,,,,,,,,49,64,1,188,-2.475670172,-0.347932752,135,Experiment,,,,,,,,,89,134,1,1,,,,,,,,,,,,,,,731.478867,731.9857786,731.478867,731.9857786,98.63945578,1575576377,1575576382,4.251003981,1575576375,1575576377,,,s15,1,43,male,expert radiologist,2019_Dec_05_1354,AdjustEyeTrack,3.1.5,59.87381545
102,Stimuli/Morph102.JPG,Stimuli/Morph102.png,Stimuli/BlurLevel5/BlurEditedMorph102,Stimuli/BlurLevel5/BlurEditedMorph102.png,Stimuli/BlurLevel5/NumberedMorphs/BlurEditedMorph102.png,Stimuli/BlurLevel5/OriginalBlur/BlurEditedMorph102.png,Stimuli/BlurMorphTrio/EditedMorph102.png,None,None,,,,,0,0,0,0,0,64,64,101,,,,,,,,,,,,,,,,,,,,,,,93,65,1,173,-2.481365379,0.304673359,102,Experiment,,,,,,,,,146,130,-28,-28,,,,,,,,,,,,,,,739.4608972,739.9688078,739.4608972,739.9688078,61.9047619,1575576385,1575576389,3.465215921,1575576382,1575576385,,,s15,1,43,male,expert radiologist,2019_Dec_05_1354,AdjustEyeTrack,3.1.5,59.87381545
32,Stimuli/Morph32.JPG,Stimuli/Morph32.png,Stimuli/BlurLevel5/BlurEditedMorph32,Stimuli/BlurLevel5/BlurEditedMorph32.png,Stimuli/BlurLevel5/NumberedMorphs/BlurEditedMorph32.png,Stimuli/BlurLevel5/OriginalBlur/BlurEditedMorph32.png,Stimuli/BlurMorphTrio/EditedMorph32.png,010080right.gif,Stimuli/normal_thumbnails/32right.gif,,,,,0,0,0,0,0,65,65,31,,,,,,,,,,,,,,,,,,,,,,,90,66,1,284,0.604804739,-2.425739316,32,Experiment,,,,,,,,,105,42,-10,-10,,,,,,,,,,,,,,,745.6374308,746.1355578,745.6374308,746.1355578,86.39455782,1575576391,1575576396,4.615717888,1575576389,1575576391,,,s15,1,43,male,expert radiologist,2019_Dec_05_1354,AdjustEyeTrack,3.1.5,59.87381545
5,Stimuli/Morph5.JPG,Stimuli/Morph5.png,Stimuli/BlurLevel5/BlurEditedMorph5,Stimuli/BlurLevel5/BlurEditedMorph5.png,Stimuli/BlurLevel5/NumberedMorphs/BlurEditedMorph5.png,Stimuli/BlurLevel5/OriginalBlur/BlurEditedMorph5.png,Stimuli/BlurMorphTrio/EditedMorph5.png,010011right.gif,Stimuli/normal_thumbnails/5right.gif,,,,,0,0,0,0,0,66,66,4,,,,,,,,,,,,,,,,,,,,,,,84,67,1,276,0.261321158,-2.486304738,5,Experiment,,,,,,,,,121,36,-31,-31,,,,,,,,,,,,,,,752.6583711,753.1529004,752.6583711,753.1529004,57.82312925,1575576398,1575576403,4.734144211,1575576396,1575576398,,,s15,1,43,male,expert radiologist,2019_Dec_05_1354,AdjustEyeTrack,3.1.5,59.87381545
34,Stimuli/Morph34.JPG,Stimuli/Morph34.png,Stimuli/BlurLevel5/BlurEditedMorph34,Stimuli/BlurLevel5/BlurEditedMorph34.png,Stimuli/BlurLevel5/NumberedMorphs/BlurEditedMorph34.png,Stimuli/BlurLevel5/OriginalBlur/BlurEditedMorph34.png,Stimuli/BlurMorphTrio/EditedMorph34.png,010090right.gif,Stimuli/normal_thumbnails/34right.gif,,,,,0,0,0,0,0,67,67,33,,,,,,,,,,,,,,,,,,,,,,,87,68,1,227,-1.7049959,-1.828384254,34,Experiment,,,,,,,,,118,38,-4,-4,,,,,,,,,,,,,,,760.2956401,760.8014366,760.2956401,760.8014366,94.55782313,1575576406,1575576410,3.966987133,1575576403,1575576406,,,s15,1,43,male,expert radiologist,2019_Dec_05_1354,AdjustEyeTrack,3.1.5,59.87381545
110,Stimuli/Morph110.JPG,Stimuli/Morph110.png,Stimuli/BlurLevel5/BlurEditedMorph110,Stimuli/BlurLevel5/BlurEditedMorph110.png,Stimuli/BlurLevel5/NumberedMorphs/BlurEditedMorph110.png,Stimuli/BlurLevel5/OriginalBlur/BlurEditedMorph110.png,Stimuli/BlurMorphTrio/EditedMorph110.png,None,None,,,,,0,0,0,0,0,68,68,109,,,,,,,,,,,,,,,,,,,,,,,29,69,1,162,-2.377641291,0.772542486,110,Experiment,,,,,,,,,33,110,0,0,,,,,,,,,,,,,,,767.6675072,768.1691505,767.6675072,768.1691505,100,1575576413,1575576417,3.600521326,1575576410,1575576413,,,s15,1,43,male,expert radiologist,2019_Dec_05_1354,AdjustEyeTrack,3.1.5,59.87381545
69,Stimuli/Morph69.JPG,Stimuli/Morph69.png,Stimuli/BlurLevel5/BlurEditedMorph69,Stimuli/BlurLevel5/BlurEditedMorph69.png,Stimuli/BlurLevel5/NumberedMorphs/BlurEditedMorph69.png,Stimuli/BlurLevel5/OriginalBlur/BlurEditedMorph69.png,Stimuli/BlurMorphTrio/EditedMorph69.png,020220right.gif,Stimuli/normal_thumbnails/69right.gif,,,,,0,0,0,0,0,69,69,68,,,,,,,,,,,,,,,,,,,,,,,51,70,1,16,2.40315424,0.68909339,69,Experiment,,,,,,,,,79,73,-4,-4,,,,,,,,,,,,,,,774.5032803,775.0183667,774.5032803,775.0183667,94.55782313,1575576420,1575576422,1.967208862,1575576417,1575576420,,,s15,1,43,male,expert radiologist,2019_Dec_05_1354,AdjustEyeTrack,3.1.5,59.87381545
4,Stimuli/Morph4.JPG,Stimuli/Morph4.png,Stimuli/BlurLevel5/BlurEditedMorph4,Stimuli/BlurLevel5/BlurEditedMorph4.png,Stimuli/BlurLevel5/NumberedMorphs/BlurEditedMorph4.png,Stimuli/BlurLevel5/OriginalBlur/BlurEditedMorph4.png,Stimuli/BlurMorphTrio/EditedMorph4.png,010010right.gif,Stimuli/normal_thumbnails/4right.gif,,,,,0,0,0,0,0,70,70,3,,,,,,,,,,,,,,,,,,,,,,,7,71,1,286,0.68909339,-2.40315424,4,Experiment,,,,,,,,,132,3,1,1,,,,,,,,,,,,,,,779.2920907,779.7846001,779.2920907,779.7846001,98.63945578,1575576425,1575576430,5.241863012,1575576423,1575576425,,,s15,1,43,male,expert radiologist,2019_Dec_05_1354,AdjustEyeTrack,3.1.5,59.87381545
75,Stimuli/Morph75.JPG,Stimuli/Morph75.png,Stimuli/BlurLevel5/BlurEditedMorph75,Stimuli/BlurLevel5/BlurEditedMorph75.png,Stimuli/BlurLevel5/NumberedMorphs/BlurEditedMorph75.png,Stimuli/BlurLevel5/OriginalBlur/BlurEditedMorph75.png,Stimuli/BlurMorphTrio/EditedMorph75.png,020233right.gif,Stimuli/normal_thumbnails/75right.gif,,,,,0,0,0,0,0,71,71,74,,,,,,,,,,,,,,,,,,,,,,,54,72,1,264,-0.261321158,-2.486304738,75,Experiment,,,,,,,,,58,58,17,17,,,,,,,,,,,,,,,787.3524468,787.8510838,787.3524468,787.8510838,76.8707483,1575576433,1575576438,4.749946833,1575576431,1575576433,,,s15,1,43,male,expert radiologist,2019_Dec_05_1354,AdjustEyeTrack,3.1.5,59.87381545
46,Stimuli/Morph46.JPG,Stimuli/Morph46.png,Stimuli/BlurLevel5/BlurEditedMorph46,Stimuli/BlurLevel5/BlurEditedMorph46.png,Stimuli/BlurLevel5/NumberedMorphs/BlurEditedMorph46.png,Stimuli/BlurLevel5/OriginalBlur/BlurEditedMorph46.png,Stimuli/BlurMorphTrio/EditedMorph46.png,010128right.gif,Stimuli/normal_thumbnails/46right.gif,,,,,0,0,0,0,0,72,72,45,,,,,,,,,,,,,,,,,,,,,,,7,73,1,75,0.647047613,2.414814566,46,Experiment,,,,,,,,,106,49,-3,-3,,,,,,,,,,,,,,,794.5525905,795.0514032,794.5525905,795.0514032,95.91836735,1575576440,1575576444,3.833405018,1575576438,1575576440,,,s15,1,43,male,expert radiologist,2019_Dec_05_1354,AdjustEyeTrack,3.1.5,59.87381545
136,Stimuli/Morph136.JPG,Stimuli/Morph136.png,Stimuli/BlurLevel5/BlurEditedMorph136,Stimuli/BlurLevel5/BlurEditedMorph136.png,Stimuli/BlurLevel5/NumberedMorphs/BlurEditedMorph136.png,Stimuli/BlurLevel5/OriginalBlur/BlurEditedMorph136.png,Stimuli/BlurMorphTrio/EditedMorph136.png,None,None,,,,,0,0,0,0,0,73,73,135,,,,,,,,,,,,,,,,,,,,,,,98,74,1,58,1.324798161,2.12012024,136,Experiment,,,,,,,,,88,132,4,4,,,,,,,,,,,,,,,801.4038131,801.9019784,801.4038131,801.9019784,94.55782313,1575576447,1575576451,3.950443029,1575576444,1575576447,,,s15,1,43,male,expert radiologist,2019_Dec_05_1354,AdjustEyeTrack,3.1.5,59.87381545
131,Stimuli/Morph131.JPG,Stimuli/Morph131.png,Stimuli/BlurLevel5/BlurEditedMorph131,Stimuli/BlurLevel5/BlurEditedMorph131.png,Stimuli/BlurLevel5/NumberedMorphs/BlurEditedMorph131.png,Stimuli/BlurLevel5/OriginalBlur/BlurEditedMorph131.png,Stimuli/BlurMorphTrio/EditedMorph131.png,None,None,,,,,0,0,0,0,0,74,74,130,,,,,,,,,,,,,,,,,,,,,,,93,75,1,224,-1.798349501,-1.736645926,131,Experiment,,,,,,,,,11,127,4,4,,,,,,,,,,,,,,,808.7894878,809.2869855,808.7894878,809.2869855,94.55782313,1575576455,1575576457,2.316776991,1575576451,1575576455,,,s15,1,43,male,expert radiologist,2019_Dec_05_1354,AdjustEyeTrack,3.1.5,59.87381545
19,Stimuli/Morph19.JPG,Stimuli/Morph19.png,Stimuli/BlurLevel5/BlurEditedMorph19,Stimuli/BlurLevel5/BlurEditedMorph19.png,Stimuli/BlurLevel5/NumberedMorphs/BlurEditedMorph19.png,Stimuli/BlurLevel5/OriginalBlur/BlurEditedMorph19.png,Stimuli/BlurMorphTrio/EditedMorph19.png,010045right.gif,Stimuli/normal_thumbnails/19right.gif,,,,,0,0,0,0,0,75,75,18,,,,,,,,,,,,,,,,,,,,,,,98,76,1,203,-2.301262134,-0.976827821,19,Experiment,,,,,,,,,28,20,-1,-1,,,,,,,,,,,,,,,813.725675,814.2351588,813.725675,814.2351588,98.63945578,1575576460,1575576461,1.633936882,1575576457,1575576460,,,s15,1,43,male,expert radiologist,2019_Dec_05_1354,AdjustEyeTrack,3.1.5,59.87381545
89,Stimuli/Morph89.JPG,Stimuli/Morph89.png,Stimuli/BlurLevel5/BlurEditedMorph89,Stimuli/BlurLevel5/BlurEditedMorph89.png,Stimuli/BlurLevel5/NumberedMorphs/BlurEditedMorph89.png,Stimuli/BlurLevel5/OriginalBlur/BlurEditedMorph89.png,Stimuli/BlurMorphTrio/EditedMorph89.png,020273right.gif,Stimuli/normal_thumbnails/89right.gif,,,,,0,0,0,0,0,76,76,88,,,,,,,,,,,,,,,,,,,,,,,66,77,1,190,-2.462019383,-0.434120444,89,Experiment,,,,,,,,,104,134,-45,-45,,,,,,,,,,,,,,,818.1015317,818.6078919,818.1015317,818.6078919,38.7755102,1575576464,1575576469,4.961174011,1575576461,1575576464,,,s15,1,43,male,expert radiologist,2019_Dec_05_1354,AdjustEyeTrack,3.1.5,59.87381545
84,Stimuli/Morph84.JPG,Stimuli/Morph84.png,Stimuli/BlurLevel5/BlurEditedMorph84,Stimuli/BlurLevel5/BlurEditedMorph84.png,Stimuli/BlurLevel5/NumberedMorphs/BlurEditedMorph84.png,Stimuli/BlurLevel5/OriginalBlur/BlurEditedMorph84.png,Stimuli/BlurMorphTrio/EditedMorph84.png,020261right.gif,Stimuli/normal_thumbnails/84right.gif,,,,,0,0,0,0,0,77,77,83,,,,,,,,,,,,,,,,,,,,,,,10,78,1,93,-0.130839891,2.496573837,84,Experiment,,,,,,,,,124,130,-46,-46,,,,,,,,,,,,,,,826.001987,826.5011079,826.001987,826.5011079,37.41496599,1575576472,1575576474,2.567023277,1575576469,1575576472,,,s15,1,43,male,expert radiologist,2019_Dec_05_1354,AdjustEyeTrack,3.1.5,59.87381545
30,Stimuli/Morph30.JPG,Stimuli/Morph30.png,Stimuli/BlurLevel5/BlurEditedMorph30,Stimuli/BlurLevel5/BlurEditedMorph30.png,Stimuli/BlurLevel5/NumberedMorphs/BlurEditedMorph30.png,Stimuli/BlurLevel5/OriginalBlur/BlurEditedMorph30.png,Stimuli/BlurMorphTrio/EditedMorph30.png,010076right.gif,Stimuli/normal_thumbnails/30right.gif,,,,,0,0,0,0,0,78,78,29,,,,,,,,,,,,,,,,,,,,,,,57,79,1,242,-1.173678907,-2.207368982,30,Experiment,,,,,,,,,85,65,-35,-35,,,,,,,,,,,,,,,831.5752669,832.0708292,831.5752669,832.0708292,52.38095238,1575576477,1575576481,3.516083002,1575576475,1575576477,,,s15,1,43,male,expert radiologist,2019_Dec_05_1354,AdjustEyeTrack,3.1.5,59.87381545
118,Stimuli/Morph118.JPG,Stimuli/Morph118.png,Stimuli/BlurLevel5/BlurEditedMorph118,Stimuli/BlurLevel5/BlurEditedMorph118.png,Stimuli/BlurLevel5/NumberedMorphs/BlurEditedMorph118.png,Stimuli/BlurLevel5/OriginalBlur/BlurEditedMorph118.png,Stimuli/BlurMorphTrio/EditedMorph118.png,None,None,,,,,0,0,0,0,0,79,79,117,,,,,,,,,,,,,,,,,,,,,,,69,80,1,342,2.377641291,-0.772542486,118,Experiment,,,,,,,,,116,123,-5,-5,,,,,,,,,,,,,,,838.4560649,838.9869555,838.4560649,838.9869555,93.19727891,1575576484,1575576487,2.916484118,1575576481,1575576484,,,s15,1,43,male,expert radiologist,2019_Dec_05_1354,AdjustEyeTrack,3.1.5,59.87381545
107,Stimuli/Morph107.JPG,Stimuli/Morph107.png,Stimuli/BlurLevel5/BlurEditedMorph107,Stimuli/BlurLevel5/BlurEditedMorph107.png,Stimuli/BlurLevel5/NumberedMorphs/BlurEditedMorph107.png,Stimuli/BlurLevel5/OriginalBlur/BlurEditedMorph107.png,Stimuli/BlurMorphTrio/EditedMorph107.png,None,None,,,,,0,0,0,0,0,80,80,106,,,,,,,,,,,,,,,,,,,,,,,74,81,1,46,1.736645926,1.798349501,107,Experiment,,,,,,,,,12,108,-1,-1,,,,,,,,,,,,,,,844.5680613,845.1007884,844.5680613,845.1007884,98.63945578,1575576490,1575576495,4.433609962,1575576487,1575576490,,,s15,1,43,male,expert radiologist,2019_Dec_05_1354,AdjustEyeTrack,3.1.5,59.87381545
15,Stimuli/Morph15.JPG,Stimuli/Morph15.png,Stimuli/BlurLevel5/BlurEditedMorph15,Stimuli/BlurLevel5/BlurEditedMorph15.png,Stimuli/BlurLevel5/NumberedMorphs/BlurEditedMorph15.png,Stimuli/BlurLevel5/OriginalBlur/BlurEditedMorph15.png,Stimuli/BlurMorphTrio/EditedMorph15.png,010031right.gif,Stimuli/normal_thumbnails/15right.gif,,,,,0,0,0,0,0,81,81,14,,,,,,,,,,,,,,,,,,,,,,,90,82,1,130,-1.606969024,1.915111108,15,Experiment,,,,,,,,,45,1,14,14,,,,,,,,,,,,,,,851.6780667,852.1849923,851.6780667,852.1849923,80.95238095,1575576497,1575576504,6.166928053,1575576495,1575576497,,,s15,1,43,male,expert radiologist,2019_Dec_05_1354,AdjustEyeTrack,3.1.5,59.87381545
77,Stimuli/Morph77.JPG,Stimuli/Morph77.png,Stimuli/BlurLevel5/BlurEditedMorph77,Stimuli/BlurLevel5/BlurEditedMorph77.png,Stimuli/BlurLevel5/NumberedMorphs/BlurEditedMorph77.png,Stimuli/BlurLevel5/OriginalBlur/BlurEditedMorph77.png,Stimuli/BlurMorphTrio/EditedMorph77.png,020235right.gif,Stimuli/normal_thumbnails/77right.gif,,,,,0,0,0,0,0,82,82,76,,,,,,,,,,,,,,,,,,,,,,,32,83,1,84,0.261321158,2.486304738,77,Experiment,,,,,,,,,75,72,5,5,,,,,,,,,,,,,,,860.7875666,861.2842366,860.7875666,861.2842366,93.19727891,1575576507,1575576509,1.94994688,1575576504,1575576507,,,s15,1,43,male,expert radiologist,2019_Dec_05_1354,AdjustEyeTrack,3.1.5,59.87381545
143,Stimuli/Morph143.JPG,Stimuli/Morph143.png,Stimuli/BlurLevel5/BlurEditedMorph143,Stimuli/BlurLevel5/BlurEditedMorph143.png,Stimuli/BlurLevel5/NumberedMorphs/BlurEditedMorph143.png,Stimuli/BlurLevel5/OriginalBlur/BlurEditedMorph143.png,Stimuli/BlurMorphTrio/EditedMorph143.png,None,None,,,,,0,0,0,0,0,83,83,142,,,,,,,,,,,,,,,,,,,,,,,98,84,1,38,1.970026884,1.539153688,143,Experiment,,,,,,,,,68,131,12,12,,,,,,,,,,,,,,,865.8557259,866.3509835,865.8557259,866.3509835,83.67346939,1575576512,1575576516,4.632831097,1575576509,1575576512,,,s15,1,43,male,expert radiologist,2019_Dec_05_1354,AdjustEyeTrack,3.1.5,59.87381545
8,Stimuli/Morph8.JPG,Stimuli/Morph8.png,Stimuli/BlurLevel5/BlurEditedMorph8,Stimuli/BlurLevel5/BlurEditedMorph8.png,Stimuli/BlurLevel5/NumberedMorphs/BlurEditedMorph8.png,Stimuli/BlurLevel5/OriginalBlur/BlurEditedMorph8.png,Stimuli/BlurMorphTrio/EditedMorph8.png,010014right.gif,Stimuli/normal_thumbnails/8right.gif,,,,,0,0,0,0,0,84,84,7,,,,,,,,,,,,,,,,,,,,,,,8,85,1,331,2.186549268,-1.212024051,8,Experiment,,,,,,,,,111,4,4,4,,,,,,,,,,,,,,,873.0688274,873.5836917,873.0688274,873.5836917,94.55782313,1575576519,1575576522,2.71730113,1575576517,1575576519,,,s15,1,43,male,expert radiologist,2019_Dec_05_1354,AdjustEyeTrack,3.1.5,59.87381545
95,Stimuli/Morph95.JPG,Stimuli/Morph95.png,Stimuli/BlurLevel5/BlurEditedMorph95,Stimuli/BlurLevel5/BlurEditedMorph95.png,Stimuli/BlurLevel5/NumberedMorphs/BlurEditedMorph95.png,Stimuli/BlurLevel5/OriginalBlur/BlurEditedMorph95.png,Stimuli/BlurMorphTrio/EditedMorph95.png,020287right.gif,Stimuli/normal_thumbnails/95right.gif,,,,,1,0,1,0,0,0,0,94,,,,,,,,,,,,,,,,,,,,,,,6,1,2,318,1.857862064,-1.672826516,95,Experiment,,,,,,,,,115,97,-2,-2,,,,,,,,,,,,,,,913.6651918,914.1691188,913.6651918,914.1691188,97.27891156,1575576559,1575576561,1.700741053,1575576556,1575576559,space,33.88516288,s15,1,43,male,expert radiologist,2019_Dec_05_1354,AdjustEyeTrack,3.1.5,59.87381545
69,Stimuli/Morph69.JPG,Stimuli/Morph69.png,Stimuli/BlurLevel5/BlurEditedMorph69,Stimuli/BlurLevel5/BlurEditedMorph69.png,Stimuli/BlurLevel5/NumberedMorphs/BlurEditedMorph69.png,Stimuli/BlurLevel5/OriginalBlur/BlurEditedMorph69.png,Stimuli/BlurMorphTrio/EditedMorph69.png,020220right.gif,Stimuli/normal_thumbnails/69right.gif,,,,,1,0,1,0,0,1,1,68,,,,,,,,,,,,,,,,,,,,,,,40,2,2,143,-1.996588775,1.504537558,69,Experiment,,,,,,,,,74,61,8,8,,,,,,,,,,,,,,,918.4042086,918.8994867,918.4042086,918.8994867,89.11564626,1575576564,1575576566,2.049601078,1575576561,1575576564,,,s15,1,43,male,expert radiologist,2019_Dec_05_1354,AdjustEyeTrack,3.1.5,59.87381545
128,Stimuli/Morph128.JPG,Stimuli/Morph128.png,Stimuli/BlurLevel5/BlurEditedMorph128,Stimuli/BlurLevel5/BlurEditedMorph128.png,Stimuli/BlurLevel5/NumberedMorphs/BlurEditedMorph128.png,Stimuli/BlurLevel5/OriginalBlur/BlurEditedMorph128.png,Stimuli/BlurMorphTrio/EditedMorph128.png,None,None,,,,,1,0,1,0,0,2,2,127,,,,,,,,,,,,,,,,,,,,,,,74,3,2,151,-2.186549268,1.212024051,128,Experiment,,,,,,,,,93,113,15,15,,,,,,,,,,,,,,,923.5185244,924.0166361,923.5185244,924.0166361,79.59183673,1575576569,1575576572,2.699007988,1575576567,1575576569,,,s15,1,43,male,expert radiologist,2019_Dec_05_1354,AdjustEyeTrack,3.1.5,59.87381545
27,Stimuli/Morph27.JPG,Stimuli/Morph27.png,Stimuli/BlurLevel5/BlurEditedMorph27,Stimuli/BlurLevel5/BlurEditedMorph27.png,Stimuli/BlurLevel5/NumberedMorphs/BlurEditedMorph27.png,Stimuli/BlurLevel5/OriginalBlur/BlurEditedMorph27.png,Stimuli/BlurMorphTrio/EditedMorph27.png,010072right.gif,Stimuli/normal_thumbnails/27right.gif,,,,,1,0,1,0,0,3,3,26,,,,,,,,,,,,,,,,,,,,,,,84,4,2,44,1.798349501,1.736645926,27,Experiment,,,,,,,,,2,21,6,6,,,,,,,,,,,,,,,928.886379,929.3832531,928.886379,929.3832531,91.83673469,1575576575,1575576579,4.283388853,1575576572,1575576575,,,s15,1,43,male,expert radiologist,2019_Dec_05_1354,AdjustEyeTrack,3.1.5,59.87381545
6,Stimuli/Morph6.JPG,Stimuli/Morph6.png,Stimuli/BlurLevel5/BlurEditedMorph6,Stimuli/BlurLevel5/BlurEditedMorph6.png,Stimuli/BlurLevel5/NumberedMorphs/BlurEditedMorph6.png,Stimuli/BlurLevel5/OriginalBlur/BlurEditedMorph6.png,Stimuli/BlurMorphTrio/EditedMorph6.png,010012right.gif,Stimuli/normal_thumbnails/6right.gif,,,,,1,0,1,0,0,4,4,5,,,,,,,,,,,,,,,,,,,,,,,56,5,2,154,-2.246985116,1.095927867,6,Experiment,,,,,,,,,89,11,-5,-5,,,,,,,,,,,,,,,936.2366254,936.7329847,936.2366254,936.7329847,93.19727891,1575576582,1575576587,4.666578054,1575576579,1575576582,,,s15,1,43,male,expert radiologist,2019_Dec_05_1354,AdjustEyeTrack,3.1.5,59.87381545
138,Stimuli/Morph138.JPG,Stimuli/Morph138.png,Stimuli/BlurLevel5/BlurEditedMorph138,Stimuli/BlurLevel5/BlurEditedMorph138.png,Stimuli/BlurLevel5/NumberedMorphs/BlurEditedMorph138.png,Stimuli/BlurLevel5/OriginalBlur/BlurEditedMorph138.png,Stimuli/BlurMorphTrio/EditedMorph138.png,None,None,,,,,1,0,1,0,0,5,5,137,,,,,,,,,,,,,,,,,,,,,,,56,6,2,255,-0.647047613,-2.414814566,138,Experiment,,,,,,,,,75,141,-3,-3,,,,,,,,,,,,,,,943.4839399,943.9834147,943.4839399,943.9834147,95.91836735,1575576589,1575576594,4.798653126,1575576587,1575576589,,,s15,1,43,male,expert radiologist,2019_Dec_05_1354,AdjustEyeTrack,3.1.5,59.87381545
16,Stimuli/Morph16.JPG,Stimuli/Morph16.png,Stimuli/BlurLevel5/BlurEditedMorph16,Stimuli/BlurLevel5/BlurEditedMorph16.png,Stimuli/BlurLevel5/NumberedMorphs/BlurEditedMorph16.png,Stimuli/BlurLevel5/OriginalBlur/BlurEditedMorph16.png,Stimuli/BlurMorphTrio/EditedMorph16.png,010034right.gif,Stimuli/normal_thumbnails/16right.gif,,,,,1,0,1,0,0,6,6,15,,,,,,,,,,,,,,,,,,,,,,,20,7,2,1,2.499619238,0.043631016,16,Experiment,,,,,,,,,13,13,3,3,,,,,,,,,,,,,,,951.3409807,951.8515858,951.3409807,951.8515858,95.91836735,1575576597,1575576601,3.399266005,1575576594,1575576597,,,s15,1,43,male,expert radiologist,2019_Dec_05_1354,AdjustEyeTrack,3.1.5,59.87381545
33,Stimuli/Morph33.JPG,Stimuli/Morph33.png,Stimuli/BlurLevel5/BlurEditedMorph33,Stimuli/BlurLevel5/BlurEditedMorph33.png,Stimuli/BlurLevel5/NumberedMorphs/BlurEditedMorph33.png,Stimuli/BlurLevel5/OriginalBlur/BlurEditedMorph33.png,Stimuli/BlurMorphTrio/EditedMorph33.png,010089right.gif,Stimuli/normal_thumbnails/33right.gif,,,,,1,0,1,0,0,7,7,32,,,,,,,,,,,,,,,,,,,,,,,60,8,2,222,-1.857862064,-1.672826516,33,Experiment,,,,,,,,,22,31,2,2,,,,,,,,,,,,,,,957.9542442,958.4499406,957.9542442,958.4499406,97.27891156,1575576604,1575576608,4.682937145,1575576601,1575576604,,,s15,1,43,male,expert radiologist,2019_Dec_05_1354,AdjustEyeTrack,3.1.5,59.87381545
4,Stimuli/Morph4.JPG,Stimuli/Morph4.png,Stimuli/BlurLevel5/BlurEditedMorph4,Stimuli/BlurLevel5/BlurEditedMorph4.png,Stimuli/BlurLevel5/NumberedMorphs/BlurEditedMorph4.png,Stimuli/BlurLevel5/OriginalBlur/BlurEditedMorph4.png,Stimuli/BlurMorphTrio/EditedMorph4.png,010010right.gif,Stimuli/normal_thumbnails/4right.gif,,,,,1,0,1,0,0,8,8,3,,,,,,,,,,,,,,,,,,,,,,,66,9,2,123,-1.361597588,2.09667642,4,Experiment,,,,,,,,,39,10,-6,-6,,,,,,,,,,,,,,,965.4165435,965.9167962,965.4165435,965.9167962,91.83673469,1575576611,1575576614,3.181361914,1575576609,1575576611,,,s15,1,43,male,expert radiologist,2019_Dec_05_1354,AdjustEyeTrack,3.1.5,59.87381545
131,Stimuli/Morph131.JPG,Stimuli/Morph131.png,Stimuli/BlurLevel5/BlurEditedMorph131,Stimuli/BlurLevel5/BlurEditedMorph131.png,Stimuli/BlurLevel5/NumberedMorphs/BlurEditedMorph131.png,Stimuli/BlurLevel5/OriginalBlur/BlurEditedMorph131.png,Stimuli/BlurMorphTrio/EditedMorph131.png,None,None,,,,,1,0,1,0,0,9,9,130,,,,,,,,,,,,,,,,,,,,,,,77,10,2,286,0.68909339,-2.40315424,131,Experiment,,,,,,,,,44,147,-16,-16,,,,,,,,,,,,,,,971.3021788,971.7998109,971.3021788,971.7998109,78.23129252,1575576617,1575576621,3.516695023,1575576615,1575576617,,,s15,1,43,male,expert radiologist,2019_Dec_05_1354,AdjustEyeTrack,3.1.5,59.87381545
30,Stimuli/Morph30.JPG,Stimuli/Morph30.png,Stimuli/BlurLevel5/BlurEditedMorph30,Stimuli/BlurLevel5/BlurEditedMorph30.png,Stimuli/BlurLevel5/NumberedMorphs/BlurEditedMorph30.png,Stimuli/BlurLevel5/OriginalBlur/BlurEditedMorph30.png,Stimuli/BlurMorphTrio/EditedMorph30.png,010076right.gif,Stimuli/normal_thumbnails/30right.gif,,,,,1,0,1,0,0,10,10,29,,,,,,,,,,,,,,,,,,,,,,,33,11,2,198,-2.377641291,-0.772542486,30,Experiment,,,,,,,,,7,34,-4,-4,,,,,,,,,,,,,,,977.6324223,978.1353033,977.6324223,978.1353033,94.55782313,1575576624,1575576628,4.966549873,1575576621,1575576623,,,s15,1,43,male,expert radiologist,2019_Dec_05_1354,AdjustEyeTrack,3.1.5,59.87381545
81,Stimuli/Morph81.JPG,Stimuli/Morph81.png,Stimuli/BlurLevel5/BlurEditedMorph81,Stimuli/BlurLevel5/BlurEditedMorph81.png,Stimuli/BlurLevel5/NumberedMorphs/BlurEditedMorph81.png,Stimuli/BlurLevel5/OriginalBlur/BlurEditedMorph81.png,Stimuli/BlurMorphTrio/EditedMorph81.png,020245right.gif,Stimuli/normal_thumbnails/81right.gif,,,,,1,0,1,0,0,11,11,80,,,,,,,,,,,,,,,,,,,,,,,25,12,2,345,2.414814566,-0.647047613,81,Experiment,,,,,,,,,2,72,9,9,,,,,,,,,,,,,,,985.3491773,985.8653439,985.3491773,985.8653439,87.75510204,1575576631,1575576636,5.199862003,1575576629,1575576631,,,s15,1,43,male,expert radiologist,2019_Dec_05_1354,AdjustEyeTrack,3.1.5,59.87381545
25,Stimuli/Morph25.JPG,Stimuli/Morph25.png,Stimuli/BlurLevel5/BlurEditedMorph25,Stimuli/BlurLevel5/BlurEditedMorph25.png,Stimuli/BlurLevel5/NumberedMorphs/BlurEditedMorph25.png,Stimuli/BlurLevel5/OriginalBlur/BlurEditedMorph25.png,Stimuli/BlurMorphTrio/EditedMorph25.png,010069right.gif,Stimuli/normal_thumbnails/25right.gif,,,,,1,0,1,0,0,12,12,24,,,,,,,,,,,,,,,,,,,,,,,65,13,2,72,0.772542486,2.377641291,25,Experiment,,,,,,,,,35,17,8,8,,,,,,,,,,,,,,,993.0923222,993.5991454,993.0923222,993.5991454,89.11564626,1575576639,1575576645,5.834661007,1575576637,1575576639,,,s15,1,43,male,expert radiologist,2019_Dec_05_1354,AdjustEyeTrack,3.1.5,59.87381545
77,Stimuli/Morph77.JPG,Stimuli/Morph77.png,Stimuli/BlurLevel5/BlurEditedMorph77,Stimuli/BlurLevel5/BlurEditedMorph77.png,Stimuli/BlurLevel5/NumberedMorphs/BlurEditedMorph77.png,Stimuli/BlurLevel5/OriginalBlur/BlurEditedMorph77.png,Stimuli/BlurMorphTrio/EditedMorph77.png,020235right.gif,Stimuli/normal_thumbnails/77right.gif,,,,,1,0,1,0,0,13,13,76,,,,,,,,,,,,,,,,,,,,,,,24,14,2,260,-0.434120444,-2.462019383,77,Experiment,,,,,,,,,17,60,17,17,,,,,,,,,,,,,,,1001.93836,1002.440288,1001.93836,1002.440288,76.8707483,1575576648,1575576653,5.300707102,1575576645,1575576648,,,s15,1,43,male,expert radiologist,2019_Dec_05_1354,AdjustEyeTrack,3.1.5,59.87381545
35,Stimuli/Morph35.JPG,Stimuli/Morph35.png,Stimuli/BlurLevel5/BlurEditedMorph35,Stimuli/BlurLevel5/BlurEditedMorph35.png,Stimuli/BlurLevel5/NumberedMorphs/BlurEditedMorph35.png,Stimuli/BlurLevel5/OriginalBlur/BlurEditedMorph35.png,Stimuli/BlurMorphTrio/EditedMorph35.png,010094right.gif,Stimuli/normal_thumbnails/35right.gif,,,,,1,0,1,0,0,14,14,34,,,,,,,,,,,,,,,,,,,,,,,91,15,2,165,-2.414814566,0.647047613,35,Experiment,,,,,,,,,24,34,1,1,,,,,,,,,,,,,,,1010.263004,1010.782058,1010.263004,1010.782058,98.63945578,1575576656,1575576659,2.817669153,1575576653,1575576656,,,s15,1,43,male,expert radiologist,2019_Dec_05_1354,AdjustEyeTrack,3.1.5,59.87381545
11,Stimuli/Morph11.JPG,Stimuli/Morph11.png,Stimuli/BlurLevel5/BlurEditedMorph11,Stimuli/BlurLevel5/BlurEditedMorph11.png,Stimuli/BlurLevel5/NumberedMorphs/BlurEditedMorph11.png,Stimuli/BlurLevel5/OriginalBlur/BlurEditedMorph11.png,Stimuli/BlurMorphTrio/EditedMorph11.png,010024right.gif,Stimuli/normal_thumbnails/11right.gif,,,,,1,0,1,0,0,15,15,10,,,,,,,,,,,,,,,,,,,,,,,72,16,2,157,-2.301262134,0.976827821,11,Experiment,,,,,,,,,23,16,-5,-5,,,,,,,,,,,,,,,1015.958215,1016.464505,1015.958215,1016.464505,93.19727891,1575576662,1575576664,2.499817133,1575576659,1575576662,,,s15,1,43,male,expert radiologist,2019_Dec_05_1354,AdjustEyeTrack,3.1.5,59.87381545
118,Stimuli/Morph118.JPG,Stimuli/Morph118.png,Stimuli/BlurLevel5/BlurEditedMorph118,Stimuli/BlurLevel5/BlurEditedMorph118.png,Stimuli/BlurLevel5/NumberedMorphs/BlurEditedMorph118.png,Stimuli/BlurLevel5/OriginalBlur/BlurEditedMorph118.png,Stimuli/BlurMorphTrio/EditedMorph118.png,None,None,,,,,1,0,1,0,0,16,16,117,,,,,,,,,,,,,,,,,,,,,,,90,17,2,221,-1.886773951,-1.640147572,118,Experiment,,,,,,,,,47,124,-6,-6,,,,,,,,,,,,,,,1021.385085,1021.882549,1021.385085,1021.882549,91.83673469,1575576667,1575576672,4.300033092,1575576665,1575576667,,,s15,1,43,male,expert radiologist,2019_Dec_05_1354,AdjustEyeTrack,3.1.5,59.87381545
101,Stimuli/Morph101.JPG,Stimuli/Morph101.png,Stimuli/BlurLevel5/BlurEditedMorph101,Stimuli/BlurLevel5/BlurEditedMorph101.png,Stimuli/BlurLevel5/NumberedMorphs/BlurEditedMorph101.png,Stimuli/BlurLevel5/OriginalBlur/BlurEditedMorph101.png,Stimuli/BlurMorphTrio/EditedMorph101.png,None,None,,,,,1,0,1,0,0,17,17,100,,,,,,,,,,,,,,,,,,,,,,,46,18,2,214,-2.072593931,-1.397982259,101,Experiment,,,,,,,,,31,110,-9,-9,,,,,,,,,,,,,,,1028.182306,1028.682857,1028.182306,1028.682857,87.75510204,1575576674,1575576678,4.082376957,1575576672,1575576674,,,s15,1,43,male,expert radiologist,2019_Dec_05_1354,AdjustEyeTrack,3.1.5,59.87381545
65,Stimuli/Morph65.JPG,Stimuli/Morph65.png,Stimuli/BlurLevel5/BlurEditedMorph65,Stimuli/BlurLevel5/BlurEditedMorph65.png,Stimuli/BlurLevel5/NumberedMorphs/BlurEditedMorph65.png,Stimuli/BlurLevel5/OriginalBlur/BlurEditedMorph65.png,Stimuli/BlurMorphTrio/EditedMorph65.png,020209right.gif,Stimuli/normal_thumbnails/65right.gif,,,,,1,0,1,0,0,18,18,64,,,,,,,,,,,,,,,,,,,,,,,90,19,2,352,2.475670172,-0.347932752,65,Experiment,,,,,,,,,134,67,-2,-2,,,,,,,,,,,,,,,1034.642442,1035.147754,1034.642442,1035.147754,97.27891156,1575576681,1575576684,3.332900047,1575576678,1575576680,,,s15,1,43,male,expert radiologist,2019_Dec_05_1354,AdjustEyeTrack,3.1.5,59.87381545
41,Stimuli/Morph41.JPG,Stimuli/Morph41.png,Stimuli/BlurLevel5/BlurEditedMorph41,Stimuli/BlurLevel5/BlurEditedMorph41.png,Stimuli/BlurLevel5/NumberedMorphs/BlurEditedMorph41.png,Stimuli/BlurLevel5/OriginalBlur/BlurEditedMorph41.png,Stimuli/BlurMorphTrio/EditedMorph41.png,010112right.gif,Stimuli/normal_thumbnails/41right.gif,,,,,1,0,1,0,0,19,19,40,,,,,,,,,,,,,,,,,,,,,,,75,20,2,132,-1.672826516,1.857862064,41,Experiment,,,,,,,,,44,44,-3,-3,,,,,,,,,,,,,,,1040.60571,1041.098965,1040.60571,1041.098965,95.91836735,1575576686,1575576688,1.266321898,1575576684,1575576686,,,s15,1,43,male,expert radiologist,2019_Dec_05_1354,AdjustEyeTrack,3.1.5,59.87381545
123,Stimuli/Morph123.JPG,Stimuli/Morph123.png,Stimuli/BlurLevel5/BlurEditedMorph123,Stimuli/BlurLevel5/BlurEditedMorph123.png,Stimuli/BlurLevel5/NumberedMorphs/BlurEditedMorph123.png,Stimuli/BlurLevel5/OriginalBlur/BlurEditedMorph123.png,Stimuli/BlurMorphTrio/EditedMorph123.png,None,None,,,,,1,0,1,0,0,20,20,122,,,,,,,,,,,,,,,,,,,,,,,8,21,2,131,-1.640147572,1.886773951,123,Experiment,,,,,,,,,130,105,18,18,,,,,,,,,,,,,,,1044.834624,1045.331636,1044.834624,1045.331636,75.51020408,1575576691,1575576693,2.08344388,1575576688,1575576691,,,s15,1,43,male,expert radiologist,2019_Dec_05_1354,AdjustEyeTrack,3.1.5,59.87381545
23,Stimuli/Morph23.JPG,Stimuli/Morph23.png,Stimuli/BlurLevel5/BlurEditedMorph23,Stimuli/BlurLevel5/BlurEditedMorph23.png,Stimuli/BlurLevel5/NumberedMorphs/BlurEditedMorph23.png,Stimuli/BlurLevel5/OriginalBlur/BlurEditedMorph23.png,Stimuli/BlurMorphTrio/EditedMorph23.png,010063right.gif,Stimuli/normal_thumbnails/23right.gif,,,,,1,0,1,0,0,21,21,22,,,,,,,,,,,,,,,,,,,,,,,84,22,2,48,1.672826516,1.857862064,23,Experiment,,,,,,,,,34,22,1,1,,,,,,,,,,,,,,,1049.419835,1049.964548,1049.419835,1049.964548,98.63945578,1575576695,1575576701,6.21708703,1575576693,1575576695,,,s15,1,43,male,expert radiologist,2019_Dec_05_1354,AdjustEyeTrack,3.1.5,59.87381545
32,Stimuli/Morph32.JPG,Stimuli/Morph32.png,Stimuli/BlurLevel5/BlurEditedMorph32,Stimuli/BlurLevel5/BlurEditedMorph32.png,Stimuli/BlurLevel5/NumberedMorphs/BlurEditedMorph32.png,Stimuli/BlurLevel5/OriginalBlur/BlurEditedMorph32.png,Stimuli/BlurMorphTrio/EditedMorph32.png,010080right.gif,Stimuli/normal_thumbnails/32right.gif,,,,,1,0,1,0,0,22,22,31,,,,,,,,,,,,,,,,,,,,,,,86,23,2,170,-2.462019383,0.434120444,32,Experiment,,,,,,,,,87,87,-55,-55,,,,,,,,,,,,,,,1058.63274,1059.148332,1058.63274,1059.148332,25.17006803,1575576704,1575576706,1.198347092,1575576702,1575576704,,,s15,1,43,male,expert radiologist,2019_Dec_05_1354,AdjustEyeTrack,3.1.5,59.87381545
56,Stimuli/Morph56.JPG,Stimuli/Morph56.png,Stimuli/BlurLevel5/BlurEditedMorph56,Stimuli/BlurLevel5/BlurEditedMorph56.png,Stimuli/BlurLevel5/NumberedMorphs/BlurEditedMorph56.png,Stimuli/BlurLevel5/OriginalBlur/BlurEditedMorph56.png,Stimuli/BlurMorphTrio/EditedMorph56.png,010157right.gif,Stimuli/normal_thumbnails/56right.gif,,,,,1,0,1,0,0,23,23,55,,,,,,,,,,,,,,,,,,,,,,,9,24,2,84,0.261321158,2.486304738,56,Experiment,,,,,,,,,23,51,5,5,,,,,,,,,,,,,,,1062.305098,1062.798214,1062.305098,1062.798214,93.19727891,1575576708,1575576710,1.813934088,1575576706,1575576708,,,s15,1,43,male,expert radiologist,2019_Dec_05_1354,AdjustEyeTrack,3.1.5,59.87381545
7,Stimuli/Morph7.JPG,Stimuli/Morph7.png,Stimuli/BlurLevel5/BlurEditedMorph7,Stimuli/BlurLevel5/BlurEditedMorph7.png,Stimuli/BlurLevel5/NumberedMorphs/BlurEditedMorph7.png,Stimuli/BlurLevel5/OriginalBlur/BlurEditedMorph7.png,Stimuli/BlurMorphTrio/EditedMorph7.png,010013right.gif,Stimuli/normal_thumbnails/7right.gif,,,,,1,0,1,0,0,24,24,6,,,,,,,,,,,,,,,,,,,,,,,66,25,2,178,-2.498477068,0.087248742,7,Experiment,,,,,,,,,53,144,-137,10,,,,,,,,,,,,,,,1066.848869,1067.347372,1066.848869,1067.347372,86.39455782,1575576713,1575576716,2.800278664,1575576710,1575576713,,,s15,1,43,male,expert radiologist,2019_Dec_05_1354,AdjustEyeTrack,3.1.5,59.87381545
135,Stimuli/Morph135.JPG,Stimuli/Morph135.png,Stimuli/BlurLevel5/BlurEditedMorph135,Stimuli/BlurLevel5/BlurEditedMorph135.png,Stimuli/BlurLevel5/NumberedMorphs/BlurEditedMorph135.png,Stimuli/BlurLevel5/OriginalBlur/BlurEditedMorph135.png,Stimuli/BlurMorphTrio/EditedMorph135.png,None,None,,,,,1,0,1,0,0,25,25,134,,,,,,,,,,,,,,,,,,,,,,,93,26,2,267,-0.130839891,-2.496573837,135,Experiment,,,,,,,,,134,139,-4,-4,,,,,,,,,,,,,,,1073.361246,1073.864632,1073.361246,1073.864632,94.55782313,1575576719,1575576722,2.56905508,1575576716,1575576719,,,s15,1,43,male,expert radiologist,2019_Dec_05_1354,AdjustEyeTrack,3.1.5,59.87381545
52,Stimuli/Morph52.JPG,Stimuli/Morph52.png,Stimuli/BlurLevel5/BlurEditedMorph52,Stimuli/BlurLevel5/BlurEditedMorph52.png,Stimuli/BlurLevel5/NumberedMorphs/BlurEditedMorph52.png,Stimuli/BlurLevel5/OriginalBlur/BlurEditedMorph52.png,Stimuli/BlurMorphTrio/EditedMorph52.png,010148right.gif,Stimuli/normal_thumbnails/52right.gif,,,,,1,0,1,0,0,26,26,51,,,,,,,,,,,,,,,,,,,,,,,84,27,2,204,-2.283863644,-1.016841608,52,Experiment,,,,,,,,,79,53,-1,-1,,,,,,,,,,,,,,,1078.632112,1079.131852,1078.632112,1079.131852,98.63945578,1575576724,1575576728,3.44904089,1575576722,1575576724,,,s15,1,43,male,expert radiologist,2019_Dec_05_1354,AdjustEyeTrack,3.1.5,59.87381545
104,Stimuli/Morph104.JPG,Stimuli/Morph104.png,Stimuli/BlurLevel5/BlurEditedMorph104,Stimuli/BlurLevel5/BlurEditedMorph104.png,Stimuli/BlurLevel5/NumberedMorphs/BlurEditedMorph104.png,Stimuli/BlurLevel5/OriginalBlur/BlurEditedMorph104.png,Stimuli/BlurMorphTrio/EditedMorph104.png,None,None,,,,,1,0,1,0,0,27,27,103,,,,,,,,,,,,,,,,,,,,,,,82,28,2,92,-0.087248742,2.498477068,104,Experiment,,,,,,,,,48,113,-9,-9,,,,,,,,,,,,,,,1084.93166,1085.439709,1084.93166,1085.439709,87.75510204,1575576731,1575576734,2.965662003,1575576728,1575576731,,,s15,1,43,male,expert radiologist,2019_Dec_05_1354,AdjustEyeTrack,3.1.5,59.87381545
80,Stimuli/Morph80.JPG,Stimuli/Morph80.png,Stimuli/BlurLevel5/BlurEditedMorph80,Stimuli/BlurLevel5/BlurEditedMorph80.png,Stimuli/BlurLevel5/NumberedMorphs/BlurEditedMorph80.png,Stimuli/BlurLevel5/OriginalBlur/BlurEditedMorph80.png,Stimuli/BlurMorphTrio/EditedMorph80.png,020240right.gif,Stimuli/normal_thumbnails/80right.gif,,,,,1,0,1,0,0,28,28,79,,,,,,,,,,,,,,,,,,,,,,,12,29,2,165,-2.414814566,0.647047613,80,Experiment,,,,,,,,,91,97,-17,-17,,,,,,,,,,,,,,,1091.199897,1091.699386,1091.199897,1091.699386,76.8707483,1575576737,1575576739,1.665308952,1575576734,1575576737,,,s15,1,43,male,expert radiologist,2019_Dec_05_1354,AdjustEyeTrack,3.1.5,59.87381545
88,Stimuli/Morph88.JPG,Stimuli/Morph88.png,Stimuli/BlurLevel5/BlurEditedMorph88,Stimuli/BlurLevel5/BlurEditedMorph88.png,Stimuli/BlurLevel5/NumberedMorphs/BlurEditedMorph88.png,Stimuli/BlurLevel5/OriginalBlur/BlurEditedMorph88.png,Stimuli/BlurMorphTrio/EditedMorph88.png,020271right.gif,Stimuli/normal_thumbnails/88right.gif,,,,,1,0,1,0,0,29,29,87,,,,,,,,,,,,,,,,,,,,,,,97,30,2,341,2.363796439,-0.813920386,88,Experiment,,,,,,,,,119,120,-32,-32,,,,,,,,,,,,,,,1095.885201,1096.380131,1095.885201,1096.380131,56.46258503,1575576742,1575576744,1.91614604,1575576739,1575576742,,,s15,1,43,male,expert radiologist,2019_Dec_05_1354,AdjustEyeTrack,3.1.5,59.87381545
140,Stimuli/Morph140.JPG,Stimuli/Morph140.png,Stimuli/BlurLevel5/BlurEditedMorph140,Stimuli/BlurLevel5/BlurEditedMorph140.png,Stimuli/BlurLevel5/NumberedMorphs/BlurEditedMorph140.png,Stimuli/BlurLevel5/OriginalBlur/BlurEditedMorph140.png,Stimuli/BlurMorphTrio/EditedMorph140.png,None,None,,,,,1,0,1,0,0,30,30,139,,,,,,,,,,,,,,,,,,,,,,,15,31,2,131,-1.640147572,1.886773951,140,Experiment,,,,,,,,,84,136,4,4,,,,,,,,,,,,,,,1100.788326,1101.299414,1100.788326,1101.299414,94.55782313,1575576747,1575576753,6.00040102,1575576744,1575576747,,,s15,1,43,male,expert radiologist,2019_Dec_05_1354,AdjustEyeTrack,3.1.5,59.87381545
31,Stimuli/Morph31.JPG,Stimuli/Morph31.png,Stimuli/BlurLevel5/BlurEditedMorph31,Stimuli/BlurLevel5/BlurEditedMorph31.png,Stimuli/BlurLevel5/NumberedMorphs/BlurEditedMorph31.png,Stimuli/BlurLevel5/OriginalBlur/BlurEditedMorph31.png,Stimuli/BlurMorphTrio/EditedMorph31.png,010079right.gif,Stimuli/normal_thumbnails/31right.gif,,,,,1,0,1,0,0,31,31,30,,,,,,,,,,,,,,,,,,,,,,,92,32,2,260,-0.434120444,-2.462019383,31,Experiment,,,,,,,,,147,37,-6,-6,,,,,,,,,,,,,,,1109.850393,1110.347962,1109.850393,1110.347962,91.83673469,1575576756,1575576761,5.304255962,1575576753,1575576756,,,s15,1,43,male,expert radiologist,2019_Dec_05_1354,AdjustEyeTrack,3.1.5,59.87381545
127,Stimuli/Morph127.JPG,Stimuli/Morph127.png,Stimuli/BlurLevel5/BlurEditedMorph127,Stimuli/BlurLevel5/BlurEditedMorph127.png,Stimuli/BlurLevel5/NumberedMorphs/BlurEditedMorph127.png,Stimuli/BlurLevel5/OriginalBlur/BlurEditedMorph127.png,Stimuli/BlurMorphTrio/EditedMorph127.png,None,None,,,,,1,0,1,0,0,32,32,126,,,,,,,,,,,,,,,,,,,,,,,89,33,2,166,-2.425739316,0.604804739,127,Experiment,,,,,,,,,26,131,-4,-4,,,,,,,,,,,,,,,1118.249877,1118.755708,1118.249877,1118.755708,94.55782313,1575576764,1575576768,4.15144515,1575576761,1575576764,,,s15,1,43,male,expert radiologist,2019_Dec_05_1354,AdjustEyeTrack,3.1.5,59.87381545
49,Stimuli/Morph49.JPG,Stimuli/Morph49.png,Stimuli/BlurLevel5/BlurEditedMorph49,Stimuli/BlurLevel5/BlurEditedMorph49.png,Stimuli/BlurLevel5/NumberedMorphs/BlurEditedMorph49.png,Stimuli/BlurLevel5/OriginalBlur/BlurEditedMorph49.png,Stimuli/BlurMorphTrio/EditedMorph49.png,010135right.gif,Stimuli/normal_thumbnails/49right.gif,,,,,1,0,1,0,0,33,33,48,,,,,,,,,,,,,,,,,,,,,,,87,34,2,180,-2.5,3.06E-16,49,Experiment,,,,,,,,,35,52,-3,-3,,,,,,,,,,,,,,,1125.418192,1125.914633,1125.418192,1125.914633,95.91836735,1575576771,1575576773,2.149076939,1575576769,1575576771,,,s15,1,43,male,expert radiologist,2019_Dec_05_1354,AdjustEyeTrack,3.1.5,59.87381545
143,Stimuli/Morph143.JPG,Stimuli/Morph143.png,Stimuli/BlurLevel5/BlurEditedMorph143,Stimuli/BlurLevel5/BlurEditedMorph143.png,Stimuli/BlurLevel5/NumberedMorphs/BlurEditedMorph143.png,Stimuli/BlurLevel5/OriginalBlur/BlurEditedMorph143.png,Stimuli/BlurMorphTrio/EditedMorph143.png,None,None,,,,,1,0,1,0,0,34,34,142,,,,,,,,,,,,,,,,,,,,,,,94,35,2,192,-2.445369002,-0.519779227,143,Experiment,,,,,,,,,45,5,138,-9,,,,,,,,,,,,,,,1130.399251,1130.951563,1130.399251,1130.951563,87.75510204,1575576776,1575576780,3.064907074,1575576774,1575576776,,,s15,1,43,male,expert radiologist,2019_Dec_05_1354,AdjustEyeTrack,3.1.5,59.87381545
24,Stimuli/Morph24.JPG,Stimuli/Morph24.png,Stimuli/BlurLevel5/BlurEditedMorph24,Stimuli/BlurLevel5/BlurEditedMorph24.png,Stimuli/BlurLevel5/NumberedMorphs/BlurEditedMorph24.png,Stimuli/BlurLevel5/OriginalBlur/BlurEditedMorph24.png,Stimuli/BlurMorphTrio/EditedMorph24.png,010068right.gif,Stimuli/normal_thumbnails/24right.gif,,,,,1,0,1,0,0,35,35,23,,,,,,,,,,,,,,,,,,,,,,,74,36,2,19,2.363796439,0.813920386,24,Experiment,,,,,,,,,30,21,3,3,,,,,,,,,,,,,,,1136.832561,1137.330581,1136.832561,1137.330581,95.91836735,1575576783,1575576785,2.265417814,1575576780,1575576783,,,s15,1,43,male,expert radiologist,2019_Dec_05_1354,AdjustEyeTrack,3.1.5,59.87381545
116,Stimuli/Morph116.JPG,Stimuli/Morph116.png,Stimuli/BlurLevel5/BlurEditedMorph116,Stimuli/BlurLevel5/BlurEditedMorph116.png,Stimuli/BlurLevel5/NumberedMorphs/BlurEditedMorph116.png,Stimuli/BlurLevel5/OriginalBlur/BlurEditedMorph116.png,Stimuli/BlurMorphTrio/EditedMorph116.png,None,None,,,,,1,0,1,0,0,36,36,115,,,,,,,,,,,,,,,,,,,,,,,85,37,2,145,-2.047880111,1.433941091,116,Experiment,,,,,,,,,117,124,-8,-8,,,,,,,,,,,,,,,1141.835878,1142.334483,1141.835878,1142.334483,89.11564626,1575576788,1575576789,1.502454996,1575576785,1575576788,,,s15,1,43,male,expert radiologist,2019_Dec_05_1354,AdjustEyeTrack,3.1.5,59.87381545
144,Stimuli/Morph144.JPG,Stimuli/Morph144.png,Stimuli/BlurLevel5/BlurEditedMorph144,Stimuli/BlurLevel5/BlurEditedMorph144.png,Stimuli/BlurLevel5/NumberedMorphs/BlurEditedMorph144.png,Stimuli/BlurLevel5/OriginalBlur/BlurEditedMorph144.png,Stimuli/BlurMorphTrio/EditedMorph144.png,None,None,,,,,1,0,1,0,0,37,37,143,,,,,,,,,,,,,,,,,,,,,,,98,38,2,143,-1.996588775,1.504537558,144,Experiment,,,,,,,,,33,140,4,4,,,,,,,,,,,,,,,1146.670322,1147.180843,1146.670322,1147.180843,94.55782313,1575576792,1575576798,5.049357176,1575576789,1575576792,,,s15,1,43,male,expert radiologist,2019_Dec_05_1354,AdjustEyeTrack,3.1.5,59.87381545
8,Stimuli/Morph8.JPG,Stimuli/Morph8.png,Stimuli/BlurLevel5/BlurEditedMorph8,Stimuli/BlurLevel5/BlurEditedMorph8.png,Stimuli/BlurLevel5/NumberedMorphs/BlurEditedMorph8.png,Stimuli/BlurLevel5/OriginalBlur/BlurEditedMorph8.png,Stimuli/BlurMorphTrio/EditedMorph8.png,010014right.gif,Stimuli/normal_thumbnails/8right.gif,,,,,1,0,1,0,0,38,38,7,,,,,,,,,,,,,,,,,,,,,,,26,39,2,220,-1.915111108,-1.606969024,8,Experiment,,,,,,,,,38,143,-135,12,,,,,,,,,,,,,,,1154.285199,1154.796672,1154.285199,1154.796672,83.67346939,1575576800,1575576803,3.399255991,1575576798,1575576800,,,s15,1,43,male,expert radiologist,2019_Dec_05_1354,AdjustEyeTrack,3.1.5,59.87381545
73,Stimuli/Morph73.JPG,Stimuli/Morph73.png,Stimuli/BlurLevel5/BlurEditedMorph73,Stimuli/BlurLevel5/BlurEditedMorph73.png,Stimuli/BlurLevel5/NumberedMorphs/BlurEditedMorph73.png,Stimuli/BlurLevel5/OriginalBlur/BlurEditedMorph73.png,Stimuli/BlurMorphTrio/EditedMorph73.png,020230right.gif,Stimuli/normal_thumbnails/73right.gif,,,,,1,0,1,0,0,39,39,72,,,,,,,,,,,,,,,,,,,,,,,57,40,2,209,-2.186549268,-1.212024051,73,Experiment,,,,,,,,,9,74,-1,-1,,,,,,,,,,,,,,,1160.681562,1161.18117,1160.681562,1161.18117,98.63945578,1575576807,1575576811,4.598134995,1575576804,1575576806,,,s15,1,43,male,expert radiologist,2019_Dec_05_1354,AdjustEyeTrack,3.1.5,59.87381545
109,Stimuli/Morph109.JPG,Stimuli/Morph109.png,Stimuli/BlurLevel5/BlurEditedMorph109,Stimuli/BlurLevel5/BlurEditedMorph109.png,Stimuli/BlurLevel5/NumberedMorphs/BlurEditedMorph109.png,Stimuli/BlurLevel5/OriginalBlur/BlurEditedMorph109.png,Stimuli/BlurMorphTrio/EditedMorph109.png,None,None,,,,,1,0,1,0,0,40,40,108,,,,,,,,,,,,,,,,,,,,,,,74,41,2,4,2.493910126,0.174391184,109,Experiment,,,,,,,,,132,112,-3,-3,,,,,,,,,,,,,,,1168.349602,1168.846451,1168.349602,1168.846451,95.91836735,1575576814,1575576817,2.301064968,1575576811,1575576814,,,s15,1,43,male,expert radiologist,2019_Dec_05_1354,AdjustEyeTrack,3.1.5,59.87381545
61,Stimuli/Morph61.JPG,Stimuli/Morph61.png,Stimuli/BlurLevel5/BlurEditedMorph61,Stimuli/BlurLevel5/BlurEditedMorph61.png,Stimuli/BlurLevel5/NumberedMorphs/BlurEditedMorph61.png,Stimuli/BlurLevel5/OriginalBlur/BlurEditedMorph61.png,Stimuli/BlurMorphTrio/EditedMorph61.png,020201right.gif,Stimuli/normal_thumbnails/61right.gif,,,,,1,0,1,0,0,41,41,60,,,,,,,,,,,,,,,,,,,,,,,84,42,2,216,-2.022542486,-1.469463131,61,Experiment,,,,,,,,,11,41,20,20,,,,,,,,,,,,,,,1173.320304,1173.813362,1173.320304,1173.813362,72.78911565,1575576819,1575576825,5.416778088,1575576817,1575576819,,,s15,1,43,male,expert radiologist,2019_Dec_05_1354,AdjustEyeTrack,3.1.5,59.87381545
125,Stimuli/Morph125.JPG,Stimuli/Morph125.png,Stimuli/BlurLevel5/BlurEditedMorph125,Stimuli/BlurLevel5/BlurEditedMorph125.png,Stimuli/BlurLevel5/NumberedMorphs/BlurEditedMorph125.png,Stimuli/BlurLevel5/OriginalBlur/BlurEditedMorph125.png,Stimuli/BlurMorphTrio/EditedMorph125.png,None,None,,,,,1,0,1,0,0,42,42,124,,,,,,,,,,,,,,,,,,,,,,,16,43,2,219,-1.942864904,-1.573300978,125,Experiment,,,,,,,,,62,127,-2,-2,,,,,,,,,,,,,,,1181.808045,1182.329693,1181.808045,1182.329693,97.27891156,1575576828,1575576830,2.784311056,1575576825,1575576828,,,s15,1,43,male,expert radiologist,2019_Dec_05_1354,AdjustEyeTrack,3.1.5,59.87381545
45,Stimuli/Morph45.JPG,Stimuli/Morph45.png,Stimuli/BlurLevel5/BlurEditedMorph45,Stimuli/BlurLevel5/BlurEditedMorph45.png,Stimuli/BlurLevel5/NumberedMorphs/BlurEditedMorph45.png,Stimuli/BlurLevel5/OriginalBlur/BlurEditedMorph45.png,Stimuli/BlurMorphTrio/EditedMorph45.png,010127right.gif,Stimuli/normal_thumbnails/45right.gif,,,,,1,0,1,0,0,43,43,44,,,,,,,,,,,,,,,,,,,,,,,44,44,2,186,-2.486304738,-0.261321158,45,Experiment,,,,,,,,,80,47,-2,-2,,,,,,,,,,,,,,,1187.314405,1187.812997,1187.314405,1187.812997,97.27891156,1575576833,1575576836,2.681332827,1575576831,1575576833,,,s15,1,43,male,expert radiologist,2019_Dec_05_1354,AdjustEyeTrack,3.1.5,59.87381545
68,Stimuli/Morph68.JPG,Stimuli/Morph68.png,Stimuli/BlurLevel5/BlurEditedMorph68,Stimuli/BlurLevel5/BlurEditedMorph68.png,Stimuli/BlurLevel5/NumberedMorphs/BlurEditedMorph68.png,Stimuli/BlurLevel5/OriginalBlur/BlurEditedMorph68.png,Stimuli/BlurMorphTrio/EditedMorph68.png,020218right.gif,Stimuli/normal_thumbnails/68right.gif,,,,,1,0,1,0,0,44,44,67,,,,,,,,,,,,,,,,,,,,,,,53,45,2,286,0.68909339,-2.40315424,68,Experiment,,,,,,,,,102,57,11,11,,,,,,,,,,,,,,,1193.249664,1193.746115,1193.249664,1193.746115,85.03401361,1575576839,1575576843,3.817250013,1575576836,1575576839,,,s15,1,43,male,expert radiologist,2019_Dec_05_1354,AdjustEyeTrack,3.1.5,59.87381545
99,Stimuli/Morph99.JPG,Stimuli/Morph99.png,Stimuli/BlurLevel5/BlurEditedMorph99,Stimuli/BlurLevel5/BlurEditedMorph99.png,Stimuli/BlurLevel5/NumberedMorphs/BlurEditedMorph99.png,Stimuli/BlurLevel5/OriginalBlur/BlurEditedMorph99.png,Stimuli/BlurMorphTrio/EditedMorph99.png,020299right.gif,Stimuli/normal_thumbnails/99right.gif,,,,,1,0,1,0,0,45,45,98,,,,,,,,,,,,,,,,,,,,,,,96,46,2,92,-0.087248742,2.498477068,99,Experiment,,,,,,,,,60,119,-20,-20,,,,,,,,,,,,,,,1201.00036,1201.514452,1201.00036,1201.514452,72.78911565,1575576847,1575576851,3.684405088,1575576843,1575576847,,,s15,1,43,male,expert radiologist,2019_Dec_05_1354,AdjustEyeTrack,3.1.5,59.87381545
70,Stimuli/Morph70.JPG,Stimuli/Morph70.png,Stimuli/BlurLevel5/BlurEditedMorph70,Stimuli/BlurLevel5/BlurEditedMorph70.png,Stimuli/BlurLevel5/NumberedMorphs/BlurEditedMorph70.png,Stimuli/BlurLevel5/OriginalBlur/BlurEditedMorph70.png,Stimuli/BlurMorphTrio/EditedMorph70.png,020221right.gif,Stimuli/normal_thumbnails/70right.gif,,,,,1,0,1,0,0,46,46,69,,,,,,,,,,,,,,,,,,,,,,,42,47,2,46,1.736645926,1.798349501,70,Experiment,,,,,,,,,83,81,-11,-11,,,,,,,,,,,,,,,1208.170441,1208.662844,1208.170441,1208.662844,85.03401361,1575576854,1575576856,2.317548037,1575576851,1575576854,,,s15,1,43,male,expert radiologist,2019_Dec_05_1354,AdjustEyeTrack,3.1.5,59.87381545
87,Stimuli/Morph87.JPG,Stimuli/Morph87.png,Stimuli/BlurLevel5/BlurEditedMorph87,Stimuli/BlurLevel5/BlurEditedMorph87.png,Stimuli/BlurLevel5/NumberedMorphs/BlurEditedMorph87.png,Stimuli/BlurLevel5/OriginalBlur/BlurEditedMorph87.png,Stimuli/BlurMorphTrio/EditedMorph87.png,020270right.gif,Stimuli/normal_thumbnails/87right.gif,,,,,1,0,1,0,0,47,47,86,,,,,,,,,,,,,,,,,,,,,,,27,48,2,116,-1.095927867,2.246985116,87,Experiment,,,,,,,,,21,88,-1,-1,,,,,,,,,,,,,,,1213.418813,1213.920463,1213.418813,1213.920463,98.63945578,1575576859,1575576866,6.916935205,1575576857,1575576859,,,s15,1,43,male,expert radiologist,2019_Dec_05_1354,AdjustEyeTrack,3.1.5,59.87381545
13,Stimuli/Morph13.JPG,Stimuli/Morph13.png,Stimuli/BlurLevel5/BlurEditedMorph13,Stimuli/BlurLevel5/BlurEditedMorph13.png,Stimuli/BlurLevel5/NumberedMorphs/BlurEditedMorph13.png,Stimuli/BlurLevel5/OriginalBlur/BlurEditedMorph13.png,Stimuli/BlurMorphTrio/EditedMorph13.png,010027right.gif,Stimuli/normal_thumbnails/13right.gif,,,,,1,0,1,0,0,48,48,12,,,,,,,,,,,,,,,,,,,,,,,30,49,2,254,-0.68909339,-2.40315424,13,Experiment,,,,,,,,,29,2,11,11,,,,,,,,,,,,,,,1223.481403,1223.980137,1223.481403,1223.980137,85.03401361,1575576869,1575576880,10.40285087,1575576866,1575576869,,,s15,1,43,male,expert radiologist,2019_Dec_05_1354,AdjustEyeTrack,3.1.5,59.87381545
146,Stimuli/Morph146.JPG,Stimuli/Morph146.png,Stimuli/BlurLevel5/BlurEditedMorph146,Stimuli/BlurLevel5/BlurEditedMorph146.png,Stimuli/BlurLevel5/NumberedMorphs/BlurEditedMorph146.png,Stimuli/BlurLevel5/OriginalBlur/BlurEditedMorph146.png,Stimuli/BlurMorphTrio/EditedMorph146.png,None,None,,,,,1,0,1,0,0,49,49,145,,,,,,,,,,,,,,,,,,,,,,,100,50,2,199,-2.363796439,-0.813920386,146,Experiment,,,,,,,,,47,2,144,-3,,,,,,,,,,,,,,,1236.357096,1236.862558,1236.357096,1236.862558,95.91836735,1575576882,1575576887,5.200525999,1575576880,1575576882,,,s15,1,43,male,expert radiologist,2019_Dec_05_1354,AdjustEyeTrack,3.1.5,59.87381545
78,Stimuli/Morph78.JPG,Stimuli/Morph78.png,Stimuli/BlurLevel5/BlurEditedMorph78,Stimuli/BlurLevel5/BlurEditedMorph78.png,Stimuli/BlurLevel5/NumberedMorphs/BlurEditedMorph78.png,Stimuli/BlurLevel5/OriginalBlur/BlurEditedMorph78.png,Stimuli/BlurMorphTrio/EditedMorph78.png,020238right.gif,Stimuli/normal_thumbnails/78right.gif,,,,,1,0,1,0,0,50,50,77,,,,,,,,,,,,,,,,,,,,,,,42,51,2,103,-0.562377636,2.435925162,78,Experiment,,,,,,,,,70,89,-11,-11,,,,,,,,,,,,,,,1244.229966,1244.729343,1244.229966,1244.729343,85.03401361,1575576890,1575576893,2.778589249,1575576888,1575576890,,,s15,1,43,male,expert radiologist,2019_Dec_05_1354,AdjustEyeTrack,3.1.5,59.87381545
3,Stimuli/Morph3.JPG,Stimuli/Morph3.png,Stimuli/BlurLevel5/BlurEditedMorph3,Stimuli/BlurLevel5/BlurEditedMorph3.png,Stimuli/BlurLevel5/NumberedMorphs/BlurEditedMorph3.png,Stimuli/BlurLevel5/OriginalBlur/BlurEditedMorph3.png,Stimuli/BlurMorphTrio/EditedMorph3.png,010009right.gif,Stimuli/normal_thumbnails/3right.gif,,,,,1,0,1,0,0,51,51,2,,,,,,,,,,,,,,,,,,,,,,,5,52,2,113,-0.976827821,2.301262134,3,Experiment,,,,,,,,,119,136,-133,14,,,,,,,,,,,,,,,1249.597759,1250.111878,1249.597759,1250.111878,80.95238095,1575576895,1575576899,3.116681814,1575576893,1575576895,,,s15,1,43,male,expert radiologist,2019_Dec_05_1354,AdjustEyeTrack,3.1.5,59.87381545
117,Stimuli/Morph117.JPG,Stimuli/Morph117.png,Stimuli/BlurLevel5/BlurEditedMorph117,Stimuli/BlurLevel5/BlurEditedMorph117.png,Stimuli/BlurLevel5/NumberedMorphs/BlurEditedMorph117.png,Stimuli/BlurLevel5/OriginalBlur/BlurEditedMorph117.png,Stimuli/BlurMorphTrio/EditedMorph117.png,None,None,,,,,1,0,1,0,0,52,52,116,,,,,,,,,,,,,,,,,,,,,,,49,53,2,185,-2.490486745,-0.217889357,117,Experiment,,,,,,,,,110,110,7,7,,,,,,,,,,,,,,,1255.514131,1256.012688,1255.514131,1256.012688,90.47619048,1575576901,1575576903,1.216682911,1575576899,1575576901,,,s15,1,43,male,expert radiologist,2019_Dec_05_1354,AdjustEyeTrack,3.1.5,59.87381545
55,Stimuli/Morph55.JPG,Stimuli/Morph55.png,Stimuli/BlurLevel5/BlurEditedMorph55,Stimuli/BlurLevel5/BlurEditedMorph55.png,Stimuli/BlurLevel5/NumberedMorphs/BlurEditedMorph55.png,Stimuli/BlurLevel5/OriginalBlur/BlurEditedMorph55.png,Stimuli/BlurMorphTrio/EditedMorph55.png,010151right.gif,Stimuli/normal_thumbnails/55right.gif,,,,,1,0,1,0,0,53,53,54,,,,,,,,,,,,,,,,,,,,,,,86,54,2,212,-2.12012024,-1.324798161,55,Experiment,,,,,,,,,42,54,1,1,,,,,,,,,,,,,,,1259.864026,1260.363187,1259.864026,1260.363187,98.63945578,1575576906,1575576910,3.932923079,1575576903,1575576906,,,s15,1,43,male,expert radiologist,2019_Dec_05_1354,AdjustEyeTrack,3.1.5,59.87381545
53,Stimuli/Morph53.JPG,Stimuli/Morph53.png,Stimuli/BlurLevel5/BlurEditedMorph53,Stimuli/BlurLevel5/BlurEditedMorph53.png,Stimuli/BlurLevel5/NumberedMorphs/BlurEditedMorph53.png,Stimuli/BlurLevel5/OriginalBlur/BlurEditedMorph53.png,Stimuli/BlurMorphTrio/EditedMorph53.png,010149right.gif,Stimuli/normal_thumbnails/53right.gif,,,,,1,0,1,0,0,54,54,52,,,,,,,,,,,,,,,,,,,,,,,14,55,2,135,-1.767766953,1.767766953,53,Experiment,,,,,,,,,51,51,2,2,,,,,,,,,,,,,,,1266.963672,1267.461728,1266.963672,1267.461728,97.27891156,1575576913,1575576914,0.848982096,1575576910,1575576913,,,s15,1,43,male,expert radiologist,2019_Dec_05_1354,AdjustEyeTrack,3.1.5,59.87381545
106,Stimuli/Morph106.JPG,Stimuli/Morph106.png,Stimuli/BlurLevel5/BlurEditedMorph106,Stimuli/BlurLevel5/BlurEditedMorph106.png,Stimuli/BlurLevel5/NumberedMorphs/BlurEditedMorph106.png,Stimuli/BlurLevel5/OriginalBlur/BlurEditedMorph106.png,Stimuli/BlurMorphTrio/EditedMorph106.png,None,None,,,,,1,0,1,0,0,55,55,105,,,,,,,,,,,,,,,,,,,,,,,18,56,2,29,2.186549268,1.212024051,106,Experiment,,,,,,,,,60,106,0,0,,,,,,,,,,,,,,,1270.446978,1270.944835,1270.446978,1270.944835,100,1575576916,1575576919,2.567240953,1575576914,1575576916,,,s15,1,43,male,expert radiologist,2019_Dec_05_1354,AdjustEyeTrack,3.1.5,59.87381545
76,Stimuli/Morph76.JPG,Stimuli/Morph76.png,Stimuli/BlurLevel5/BlurEditedMorph76,Stimuli/BlurLevel5/BlurEditedMorph76.png,Stimuli/BlurLevel5/NumberedMorphs/BlurEditedMorph76.png,Stimuli/BlurLevel5/OriginalBlur/BlurEditedMorph76.png,Stimuli/BlurMorphTrio/EditedMorph76.png,020234right.gif,Stimuli/normal_thumbnails/76right.gif,,,,,1,0,1,0,0,56,56,75,,,,,,,,,,,,,,,,,,,,,,,70,57,2,17,2.39076189,0.730929262,76,Experiment,,,,,,,,,96,67,9,9,,,,,,,,,,,,,,,1275.795336,1276.29534,1275.795336,1276.29534,87.75510204,1575576922,1575576926,4.85070014,1575576919,1575576922,,,s15,1,43,male,expert radiologist,2019_Dec_05_1354,AdjustEyeTrack,3.1.5,59.87381545
