stimulusID,stimulus_JPG,stimulusPath,stimulusPath2,stimulusPath3,stimulusPath4,stimulusPath5,stimulusPath6,xRayOriginal,xRayPath,Training.thisRepN,Training.thisTrialN,Training.thisN,Training.thisIndex,Blocks.thisRepN,Blocks.thisTrialN,Blocks.thisN,Blocks.thisIndex,Trials.thisRepN,Trials.thisTrialN,Trials.thisN,Trials.thisIndex,text_2.started,text_2.stopped,image.started,image.stopped,image_2.started,image_2.stopped,image_3.started,image_3.stopped,image_4.started,image_4.stopped,image_6.started,image_6.stopped,image_7.started,image_7.stopped,image_8.started,image_8.stopped,image_9.started,image_9.stopped,image_10.started,image_10.stopped,image_12.started,image_12.stopped,xrayID,trialNumber,blockNumber,stimLocationDeg,stimXCoord,stimYCoord,stimulusID,blockType,trainingXray.started,trainingXray.stopped,trainingTumors.started,trainingTumors.stopped,trainingScore%,startTrainingRespTime,endTrainingRespTime,trainingRT,morphTrack,morphID,errorRaw,errorCorrected,startTrainingStimTime,endTrainingStimTime,key_resp_3.keys,key_resp_3.rt,text.started,text.stopped,text_3.started,text_3.stopped,text_4.started,text_4.stopped,key_resp_5.keys,key_resp_5.rt,key_resp_5.started,key_resp_5.stopped,xray1.started,xray1.stopped,tumors.started,tumors.stopped,trialCorrect%,startRespTime,endRespTime,RT,startStimTime,endStimTime,key_resp.keys,key_resp.rt,participant,session,age,gender,status,date,expName,psychopyVersion,frameRate
93,Stimuli/Morph93.JPG,Stimuli/Morph93.png,Stimuli/BlurLevel5/BlurEditedMorph93,Stimuli/BlurLevel5/BlurEditedMorph93.png,Stimuli/BlurLevel5/NumberedMorphs/BlurEditedMorph93.png,Stimuli/BlurLevel5/OriginalBlur/BlurEditedMorph93.png,Stimuli/BlurMorphTrio/EditedMorph93.png,020280right.gif,Stimuli/normal_thumbnails/93right.gif,0,0,0,92,,,,,,,,,50.46131539,None,50.46131539,None,50.46131539,None,50.46131539,None,50.46131539,None,50.46131539,None,50.46131539,None,50.46131539,None,50.46131539,None,50.46131539,None,50.46131539,None,68,-100,-100,212,-2.12012024,-1.324798161,93,training,187.074737,187.7790576,187.074737,187.7790576,93.19727891,1583449870,1583449876,6.732674122,39,98,-5,-5,1583449867,1583449870,space,3.165326147,,,,,,,,,,,,,,,,,,,,,,,EK,1,20,female,undergrad,2020_Mar_05_1508,AdjustEyeTrack,3.1.5,60.01269869
146,Stimuli/Morph146.JPG,Stimuli/Morph146.png,Stimuli/BlurLevel5/BlurEditedMorph146,Stimuli/BlurLevel5/BlurEditedMorph146.png,Stimuli/BlurLevel5/NumberedMorphs/BlurEditedMorph146.png,Stimuli/BlurLevel5/OriginalBlur/BlurEditedMorph146.png,Stimuli/BlurMorphTrio/EditedMorph146.png,None,None,0,1,1,145,,,,,,,,,,,,,,,,,,,,,,,,,,,,,,,43,-100,-100,244,-1.095927867,-2.246985116,146,training,200.351401,201.0664868,200.351401,201.0664868,94.55782313,1583449883,1583449887,4.398158073,128,142,4,4,1583449880,1583449883,space,7.382100869,,,,,,,,,,,,,,,,,,,,,,,EK,1,20,female,undergrad,2020_Mar_05_1508,AdjustEyeTrack,3.1.5,60.01269869
76,Stimuli/Morph76.JPG,Stimuli/Morph76.png,Stimuli/BlurLevel5/BlurEditedMorph76,Stimuli/BlurLevel5/BlurEditedMorph76.png,Stimuli/BlurLevel5/NumberedMorphs/BlurEditedMorph76.png,Stimuli/BlurLevel5/OriginalBlur/BlurEditedMorph76.png,Stimuli/BlurMorphTrio/EditedMorph76.png,020234right.gif,Stimuli/normal_thumbnails/76right.gif,0,2,2,75,,,,,,,,,,,,,,,,,,,,,,,,,,,,,,,98,-100,-100,263,-0.304673359,-2.481365379,76,training,215.6547232,216.380975,215.6547232,216.380975,68.70748299,1583449898,1583449902,3.683687925,36,53,23,23,1583449895,1583449898,space,5.936674593,,,,,,,,,,,,,,,,,,,,,,,EK,1,20,female,undergrad,2020_Mar_05_1508,AdjustEyeTrack,3.1.5,60.01269869
55,Stimuli/Morph55.JPG,Stimuli/Morph55.png,Stimuli/BlurLevel5/BlurEditedMorph55,Stimuli/BlurLevel5/BlurEditedMorph55.png,Stimuli/BlurLevel5/NumberedMorphs/BlurEditedMorph55.png,Stimuli/BlurLevel5/OriginalBlur/BlurEditedMorph55.png,Stimuli/BlurMorphTrio/EditedMorph55.png,010151right.gif,Stimuli/normal_thumbnails/55right.gif,0,3,3,54,,,,,,,,,,,,,,,,,,,,,,,,,,,,,,,77,-100,-100,191,-2.454067959,-0.477022488,55,training,228.6792671,229.3833723,228.6792671,229.3833723,93.19727891,1583449911,1583449917,5.384019852,126,50,5,5,1583449908,1583449911,space,3.442862207,,,,,,,,,,,,,,,,,,,,,,,EK,1,20,female,undergrad,2020_Mar_05_1508,AdjustEyeTrack,3.1.5,60.01269869
38,Stimuli/Morph38.JPG,Stimuli/Morph38.png,Stimuli/BlurLevel5/BlurEditedMorph38,Stimuli/BlurLevel5/BlurEditedMorph38.png,Stimuli/BlurLevel5/NumberedMorphs/BlurEditedMorph38.png,Stimuli/BlurLevel5/OriginalBlur/BlurEditedMorph38.png,Stimuli/BlurMorphTrio/EditedMorph38.png,010108right.gif,Stimuli/normal_thumbnails/38right.gif,0,4,4,37,,,,,,,,,,,,,,,,,,,,,,,,,,,,,,,47,-100,-100,263,-0.304673359,-2.481365379,38,training,241.1579637,241.8883276,241.1579637,241.8883276,89.11564626,1583449924,1583449928,4.533580065,3,46,-8,-8,1583449921,1583449924,space,3.732037684,,,,,,,,,,,,,,,,,,,,,,,EK,1,20,female,undergrad,2020_Mar_05_1508,AdjustEyeTrack,3.1.5,60.01269869
12,Stimuli/Morph12.JPG,Stimuli/Morph12.png,Stimuli/BlurLevel5/BlurEditedMorph12,Stimuli/BlurLevel5/BlurEditedMorph12.png,Stimuli/BlurLevel5/NumberedMorphs/BlurEditedMorph12.png,Stimuli/BlurLevel5/OriginalBlur/BlurEditedMorph12.png,Stimuli/BlurMorphTrio/EditedMorph12.png,010026right.gif,Stimuli/normal_thumbnails/12right.gif,0,5,5,11,,,,,,,,,,,,,,,,,,,,,,,,,,,,,,,43,-100,-100,92,-0.087248742,2.498477068,12,training,252.8260309,253.5256281,252.8260309,253.5256281,100,1583449935,1583449942,6.867199183,19,12,0,0,1583449933,1583449935,space,3.212889606,,,,,,,,,,,,,,,,,,,,,,,EK,1,20,female,undergrad,2020_Mar_05_1508,AdjustEyeTrack,3.1.5,60.01269869
66,Stimuli/Morph66.JPG,Stimuli/Morph66.png,Stimuli/BlurLevel5/BlurEditedMorph66,Stimuli/BlurLevel5/BlurEditedMorph66.png,Stimuli/BlurLevel5/NumberedMorphs/BlurEditedMorph66.png,Stimuli/BlurLevel5/OriginalBlur/BlurEditedMorph66.png,Stimuli/BlurMorphTrio/EditedMorph66.png,020212right.gif,Stimuli/normal_thumbnails/66right.gif,0,6,6,65,,,,,,,,,,,,,,,,,,,,,,,,,,,,,,,50,-100,-100,104,-0.604804739,2.425739316,66,training,266.3350161,267.0465923,266.3350161,267.0465923,87.75510204,1583449949,1583449952,2.719247818,125,57,9,9,1583449946,1583449949,space,1.981998628,,,,,,,,,,,,,,,,,,,,,,,EK,1,20,female,undergrad,2020_Mar_05_1508,AdjustEyeTrack,3.1.5,60.01269869
122,Stimuli/Morph122.JPG,Stimuli/Morph122.png,Stimuli/BlurLevel5/BlurEditedMorph122,Stimuli/BlurLevel5/BlurEditedMorph122.png,Stimuli/BlurLevel5/NumberedMorphs/BlurEditedMorph122.png,Stimuli/BlurLevel5/OriginalBlur/BlurEditedMorph122.png,Stimuli/BlurMorphTrio/EditedMorph122.png,None,None,0,7,7,121,,,,,,,,,,,,,,,,,,,,,,,,,,,,,,,90,-100,-100,107,-0.730929262,2.39076189,122,training,274.2853651,274.9958448,274.2853651,274.9958448,100,1583449957,1583449959,2.284105301,131,122,0,0,1583449954,1583449957,space,8.401261525,,,,,,,,,,,,,,,,,,,,,,,EK,1,20,female,undergrad,2020_Mar_05_1508,AdjustEyeTrack,3.1.5,60.01269869
65,Stimuli/Morph65.JPG,Stimuli/Morph65.png,Stimuli/BlurLevel5/BlurEditedMorph65,Stimuli/BlurLevel5/BlurEditedMorph65.png,Stimuli/BlurLevel5/NumberedMorphs/BlurEditedMorph65.png,Stimuli/BlurLevel5/OriginalBlur/BlurEditedMorph65.png,Stimuli/BlurMorphTrio/EditedMorph65.png,020209right.gif,Stimuli/normal_thumbnails/65right.gif,0,8,8,64,,,,,,,,,,,,,,,,,,,,,,,,,,,,,,,38,-100,-100,164,-2.40315424,0.68909339,65,training,288.4189208,289.1264821,288.4189208,289.1264821,72.78911565,1583449971,1583449975,3.95121789,104,45,20,20,1583449968,1583449971,space,4.182717833,,,,,,,,,,,,,,,,,,,,,,,EK,1,20,female,undergrad,2020_Mar_05_1508,AdjustEyeTrack,3.1.5,60.01269869
137,Stimuli/Morph137.JPG,Stimuli/Morph137.png,Stimuli/BlurLevel5/BlurEditedMorph137,Stimuli/BlurLevel5/BlurEditedMorph137.png,Stimuli/BlurLevel5/NumberedMorphs/BlurEditedMorph137.png,Stimuli/BlurLevel5/OriginalBlur/BlurEditedMorph137.png,Stimuli/BlurMorphTrio/EditedMorph137.png,None,None,0,9,9,136,,,,,,,,,,,,,,,,,,,,,,,,,,,,,,,89,-100,-100,220,-1.915111108,-1.606969024,137,training,299.9913493,300.7037422,299.9913493,300.7037422,97.27891156,1583449983,1583449986,3.502259016,69,139,-2,-2,1583449980,1583449983,space,1.041520852,,,,,,,,,,,,,,,,,,,,,,,EK,1,20,female,undergrad,2020_Mar_05_1508,AdjustEyeTrack,3.1.5,60.01269869
,,,,,,,,,,,,,,,,,,,,,,,,,,,,,,,,,,,,,,,,,,,,,-100,-100,,,,,training,,,,,,,,,,,,,,,,,307.6214027,None,307.6214027,None,307.6214027,None,space,67.03602512,307.6214027,None,,,,,,,,,,,,,EK,1,20,female,undergrad,2020_Mar_05_1508,AdjustEyeTrack,3.1.5,60.01269869
106,Stimuli/Morph106.JPG,Stimuli/Morph106.png,Stimuli/BlurLevel5/BlurEditedMorph106,Stimuli/BlurLevel5/BlurEditedMorph106.png,Stimuli/BlurLevel5/NumberedMorphs/BlurEditedMorph106.png,Stimuli/BlurLevel5/OriginalBlur/BlurEditedMorph106.png,Stimuli/BlurMorphTrio/EditedMorph106.png,None,None,,,,,0,0,0,0,0,0,0,105,,,,,,,,,,,,,,,,,,,,,,,52,1,1,291,0.895919874,-2.333951066,106,Experiment,,,,,,,,,67,99,7,7,,,,,,,,,,,,,,,375.9172062,376.6362859,375.9172062,376.6362859,90.47619048,1583450059,1583450062,3.367677927,1583450056,1583450059,,,EK,1,20,female,undergrad,2020_Mar_05_1508,AdjustEyeTrack,3.1.5,60.01269869
24,Stimuli/Morph24.JPG,Stimuli/Morph24.png,Stimuli/BlurLevel5/BlurEditedMorph24,Stimuli/BlurLevel5/BlurEditedMorph24.png,Stimuli/BlurLevel5/NumberedMorphs/BlurEditedMorph24.png,Stimuli/BlurLevel5/OriginalBlur/BlurEditedMorph24.png,Stimuli/BlurMorphTrio/EditedMorph24.png,010068right.gif,Stimuli/normal_thumbnails/24right.gif,,,,,0,0,0,0,0,1,1,23,,,,,,,,,,,,,,,,,,,,,,,86,2,1,311,1.640147572,-1.886773951,24,Experiment,,,,,,,,,94,127,-103,44,,,,,,,,,,,,,,,382.6554008,383.3948873,382.6554008,383.3948873,40.13605442,1583450065,1583450068,2.864611864,1583450062,1583450065,,,EK,1,20,female,undergrad,2020_Mar_05_1508,AdjustEyeTrack,3.1.5,60.01269869
65,Stimuli/Morph65.JPG,Stimuli/Morph65.png,Stimuli/BlurLevel5/BlurEditedMorph65,Stimuli/BlurLevel5/BlurEditedMorph65.png,Stimuli/BlurLevel5/NumberedMorphs/BlurEditedMorph65.png,Stimuli/BlurLevel5/OriginalBlur/BlurEditedMorph65.png,Stimuli/BlurMorphTrio/EditedMorph65.png,020209right.gif,Stimuli/normal_thumbnails/65right.gif,,,,,0,0,0,0,0,2,2,64,,,,,,,,,,,,,,,,,,,,,,,34,3,1,209,-2.186549268,-1.212024051,65,Experiment,,,,,,,,,50,50,15,15,,,,,,,,,,,,,,,389.0579319,389.7856505,389.0579319,389.7856505,79.59183673,1583450072,1583450074,2.111852646,1583450069,1583450072,,,EK,1,20,female,undergrad,2020_Mar_05_1508,AdjustEyeTrack,3.1.5,60.01269869
8,Stimuli/Morph8.JPG,Stimuli/Morph8.png,Stimuli/BlurLevel5/BlurEditedMorph8,Stimuli/BlurLevel5/BlurEditedMorph8.png,Stimuli/BlurLevel5/NumberedMorphs/BlurEditedMorph8.png,Stimuli/BlurLevel5/OriginalBlur/BlurEditedMorph8.png,Stimuli/BlurMorphTrio/EditedMorph8.png,010014right.gif,Stimuli/normal_thumbnails/8right.gif,,,,,0,0,0,0,0,3,3,7,,,,,,,,,,,,,,,,,,,,,,,33,4,1,282,0.519779227,-2.445369002,8,Experiment,,,,,,,,,4,141,-133,14,,,,,,,,,,,,,,,394.620034,395.352407,394.620034,395.352407,80.95238095,1583450077,1583450080,2.821001768,1583450074,1583450077,,,EK,1,20,female,undergrad,2020_Mar_05_1508,AdjustEyeTrack,3.1.5,60.01269869
93,Stimuli/Morph93.JPG,Stimuli/Morph93.png,Stimuli/BlurLevel5/BlurEditedMorph93,Stimuli/BlurLevel5/BlurEditedMorph93.png,Stimuli/BlurLevel5/NumberedMorphs/BlurEditedMorph93.png,Stimuli/BlurLevel5/OriginalBlur/BlurEditedMorph93.png,Stimuli/BlurMorphTrio/EditedMorph93.png,020280right.gif,Stimuli/normal_thumbnails/93right.gif,,,,,0,0,0,0,0,4,4,92,,,,,,,,,,,,,,,,,,,,,,,14,5,1,96,-0.261321158,2.486304738,93,Experiment,,,,,,,,,107,97,-4,-4,,,,,,,,,,,,,,,400.958493,401.6816825,400.958493,401.6816825,94.55782313,1583450084,1583450086,2.080129862,1583450081,1583450084,,,EK,1,20,female,undergrad,2020_Mar_05_1508,AdjustEyeTrack,3.1.5,60.01269869
32,Stimuli/Morph32.JPG,Stimuli/Morph32.png,Stimuli/BlurLevel5/BlurEditedMorph32,Stimuli/BlurLevel5/BlurEditedMorph32.png,Stimuli/BlurLevel5/NumberedMorphs/BlurEditedMorph32.png,Stimuli/BlurLevel5/OriginalBlur/BlurEditedMorph32.png,Stimuli/BlurMorphTrio/EditedMorph32.png,010080right.gif,Stimuli/normal_thumbnails/32right.gif,,,,,0,0,0,0,0,5,5,31,,,,,,,,,,,,,,,,,,,,,,,8,6,1,350,2.462019383,-0.434120444,32,Experiment,,,,,,,,,24,36,-4,-4,,,,,,,,,,,,,,,406.6400294,407.3904356,406.6400294,407.3904356,94.55782313,1583450089,1583450093,4.016821861,1583450086,1583450089,,,EK,1,20,female,undergrad,2020_Mar_05_1508,AdjustEyeTrack,3.1.5,60.01269869
64,Stimuli/Morph64.JPG,Stimuli/Morph64.png,Stimuli/BlurLevel5/BlurEditedMorph64,Stimuli/BlurLevel5/BlurEditedMorph64.png,Stimuli/BlurLevel5/NumberedMorphs/BlurEditedMorph64.png,Stimuli/BlurLevel5/OriginalBlur/BlurEditedMorph64.png,Stimuli/BlurMorphTrio/EditedMorph64.png,020208right.gif,Stimuli/normal_thumbnails/64right.gif,,,,,0,0,0,0,0,6,6,63,,,,,,,,,,,,,,,,,,,,,,,37,7,1,119,-1.212024051,2.186549268,64,Experiment,,,,,,,,,125,43,21,21,,,,,,,,,,,,,,,414.0671869,414.7891561,414.0671869,414.7891561,71.42857143,1583450097,1583450101,4.366562843,1583450094,1583450097,,,EK,1,20,female,undergrad,2020_Mar_05_1508,AdjustEyeTrack,3.1.5,60.01269869
76,Stimuli/Morph76.JPG,Stimuli/Morph76.png,Stimuli/BlurLevel5/BlurEditedMorph76,Stimuli/BlurLevel5/BlurEditedMorph76.png,Stimuli/BlurLevel5/NumberedMorphs/BlurEditedMorph76.png,Stimuli/BlurLevel5/OriginalBlur/BlurEditedMorph76.png,Stimuli/BlurMorphTrio/EditedMorph76.png,020234right.gif,Stimuli/normal_thumbnails/76right.gif,,,,,0,0,0,0,0,7,7,75,,,,,,,,,,,,,,,,,,,,,,,79,8,1,347,2.435925162,-0.562377636,76,Experiment,,,,,,,,,46,117,-41,-41,,,,,,,,,,,,,,,421.7469211,422.4555532,421.7469211,422.4555532,44.21768707,1583450104,1583450108,3.634517193,1583450102,1583450104,,,EK,1,20,female,undergrad,2020_Mar_05_1508,AdjustEyeTrack,3.1.5,60.01269869
20,Stimuli/Morph20.JPG,Stimuli/Morph20.png,Stimuli/BlurLevel5/BlurEditedMorph20,Stimuli/BlurLevel5/BlurEditedMorph20.png,Stimuli/BlurLevel5/NumberedMorphs/BlurEditedMorph20.png,Stimuli/BlurLevel5/OriginalBlur/BlurEditedMorph20.png,Stimuli/BlurMorphTrio/EditedMorph20.png,010046right.gif,Stimuli/normal_thumbnails/20right.gif,,,,,0,0,0,0,0,8,8,19,,,,,,,,,,,,,,,,,,,,,,,77,9,1,216,-2.022542486,-1.469463131,20,Experiment,,,,,,,,,8,15,5,5,,,,,,,,,,,,,,,428.7237028,429.4295177,428.7237028,429.4295177,93.19727891,1583450111,1583450117,5.703067064,1583450109,1583450111,,,EK,1,20,female,undergrad,2020_Mar_05_1508,AdjustEyeTrack,3.1.5,60.01269869
143,Stimuli/Morph143.JPG,Stimuli/Morph143.png,Stimuli/BlurLevel5/BlurEditedMorph143,Stimuli/BlurLevel5/BlurEditedMorph143.png,Stimuli/BlurLevel5/NumberedMorphs/BlurEditedMorph143.png,Stimuli/BlurLevel5/OriginalBlur/BlurEditedMorph143.png,Stimuli/BlurMorphTrio/EditedMorph143.png,None,None,,,,,0,0,0,0,0,9,9,142,,,,,,,,,,,,,,,,,,,,,,,32,10,1,18,2.377641291,0.772542486,143,Experiment,,,,,,,,,107,139,4,4,,,,,,,,,,,,,,,437.8167951,438.5369106,437.8167951,438.5369106,94.55782313,1583450120,1583450123,2.469946861,1583450118,1583450120,,,EK,1,20,female,undergrad,2020_Mar_05_1508,AdjustEyeTrack,3.1.5,60.01269869
103,Stimuli/Morph103.JPG,Stimuli/Morph103.png,Stimuli/BlurLevel5/BlurEditedMorph103,Stimuli/BlurLevel5/BlurEditedMorph103.png,Stimuli/BlurLevel5/NumberedMorphs/BlurEditedMorph103.png,Stimuli/BlurLevel5/OriginalBlur/BlurEditedMorph103.png,Stimuli/BlurMorphTrio/EditedMorph103.png,None,None,,,,,0,0,0,0,0,10,10,102,,,,,,,,,,,,,,,,,,,,,,,24,11,1,196,-2.40315424,-0.68909339,103,Experiment,,,,,,,,,83,107,-4,-4,,,,,,,,,,,,,,,443.6829998,444.3856214,443.6829998,444.3856214,94.55782313,1583450126,1583450128,1.953179359,1583450123,1583450126,,,EK,1,20,female,undergrad,2020_Mar_05_1508,AdjustEyeTrack,3.1.5,60.01269869
4,Stimuli/Morph4.JPG,Stimuli/Morph4.png,Stimuli/BlurLevel5/BlurEditedMorph4,Stimuli/BlurLevel5/BlurEditedMorph4.png,Stimuli/BlurLevel5/NumberedMorphs/BlurEditedMorph4.png,Stimuli/BlurLevel5/OriginalBlur/BlurEditedMorph4.png,Stimuli/BlurMorphTrio/EditedMorph4.png,010010right.gif,Stimuli/normal_thumbnails/4right.gif,,,,,0,0,0,0,0,11,11,3,,,,,,,,,,,,,,,,,,,,,,,34,12,1,105,-0.647047613,2.414814566,4,Experiment,,,,,,,,,16,5,-1,-1,,,,,,,,,,,,,,,449.2175386,449.9397138,449.2175386,449.9397138,98.63945578,1583450132,1583450134,2.312299728,1583450129,1583450132,,,EK,1,20,female,undergrad,2020_Mar_05_1508,AdjustEyeTrack,3.1.5,60.01269869
17,Stimuli/Morph17.JPG,Stimuli/Morph17.png,Stimuli/BlurLevel5/BlurEditedMorph17,Stimuli/BlurLevel5/BlurEditedMorph17.png,Stimuli/BlurLevel5/NumberedMorphs/BlurEditedMorph17.png,Stimuli/BlurLevel5/OriginalBlur/BlurEditedMorph17.png,Stimuli/BlurMorphTrio/EditedMorph17.png,010036right.gif,Stimuli/normal_thumbnails/17right.gif,,,,,0,0,0,0,0,12,12,16,,,,,,,,,,,,,,,,,,,,,,,37,13,1,160,-2.349231552,0.855050358,17,Experiment,,,,,,,,,21,21,-4,-4,,,,,,,,,,,,,,,454.9376525,455.6529735,454.9376525,455.6529735,94.55782313,1583450138,1583450139,1.132830858,1583450135,1583450138,,,EK,1,20,female,undergrad,2020_Mar_05_1508,AdjustEyeTrack,3.1.5,60.01269869
120,Stimuli/Morph120.JPG,Stimuli/Morph120.png,Stimuli/BlurLevel5/BlurEditedMorph120,Stimuli/BlurLevel5/BlurEditedMorph120.png,Stimuli/BlurLevel5/NumberedMorphs/BlurEditedMorph120.png,Stimuli/BlurLevel5/OriginalBlur/BlurEditedMorph120.png,Stimuli/BlurMorphTrio/EditedMorph120.png,None,None,,,,,0,0,0,0,0,13,13,119,,,,,,,,,,,,,,,,,,,,,,,82,14,1,286,0.68909339,-2.40315424,120,Experiment,,,,,,,,,51,131,-11,-11,,,,,,,,,,,,,,,459.4509104,460.1696575,459.4509104,460.1696575,85.03401361,1583450142,1583450146,3.533450127,1583450139,1583450142,,,EK,1,20,female,undergrad,2020_Mar_05_1508,AdjustEyeTrack,3.1.5,60.01269869
15,Stimuli/Morph15.JPG,Stimuli/Morph15.png,Stimuli/BlurLevel5/BlurEditedMorph15,Stimuli/BlurLevel5/BlurEditedMorph15.png,Stimuli/BlurLevel5/NumberedMorphs/BlurEditedMorph15.png,Stimuli/BlurLevel5/OriginalBlur/BlurEditedMorph15.png,Stimuli/BlurMorphTrio/EditedMorph15.png,010031right.gif,Stimuli/normal_thumbnails/15right.gif,,,,,0,0,0,0,0,14,14,14,,,,,,,,,,,,,,,,,,,,,,,77,15,1,287,0.730929262,-2.39076189,15,Experiment,,,,,,,,,40,17,-2,-2,,,,,,,,,,,,,,,466.3432117,467.0512681,466.3432117,467.0512681,97.27891156,1583450149,1583450152,2.687176228,1583450146,1583450149,,,EK,1,20,female,undergrad,2020_Mar_05_1508,AdjustEyeTrack,3.1.5,60.01269869
59,Stimuli/Morph59.JPG,Stimuli/Morph59.png,Stimuli/BlurLevel5/BlurEditedMorph59,Stimuli/BlurLevel5/BlurEditedMorph59.png,Stimuli/BlurLevel5/NumberedMorphs/BlurEditedMorph59.png,Stimuli/BlurLevel5/OriginalBlur/BlurEditedMorph59.png,Stimuli/BlurMorphTrio/EditedMorph59.png,010160right.gif,Stimuli/normal_thumbnails/59right.gif,,,,,0,0,0,0,0,15,15,58,,,,,,,,,,,,,,,,,,,,,,,12,16,1,353,2.481365379,-0.304673359,59,Experiment,,,,,,,,,60,54,5,5,,,,,,,,,,,,,,,472.6327478,473.4017902,472.6327478,473.4017902,93.19727891,1583450155,1583450162,6.321692944,1583450152,1583450155,,,EK,1,20,female,undergrad,2020_Mar_05_1508,AdjustEyeTrack,3.1.5,60.01269869
53,Stimuli/Morph53.JPG,Stimuli/Morph53.png,Stimuli/BlurLevel5/BlurEditedMorph53,Stimuli/BlurLevel5/BlurEditedMorph53.png,Stimuli/BlurLevel5/NumberedMorphs/BlurEditedMorph53.png,Stimuli/BlurLevel5/OriginalBlur/BlurEditedMorph53.png,Stimuli/BlurMorphTrio/EditedMorph53.png,010149right.gif,Stimuli/normal_thumbnails/53right.gif,,,,,0,0,0,0,0,16,16,52,,,,,,,,,,,,,,,,,,,,,,,34,17,1,330,2.165063509,-1.25,53,Experiment,,,,,,,,,9,42,11,11,,,,,,,,,,,,,,,482.5725248,483.2859818,482.5725248,483.2859818,85.03401361,1583450165,1583450167,2.054796934,1583450162,1583450165,,,EK,1,20,female,undergrad,2020_Mar_05_1508,AdjustEyeTrack,3.1.5,60.01269869
140,Stimuli/Morph140.JPG,Stimuli/Morph140.png,Stimuli/BlurLevel5/BlurEditedMorph140,Stimuli/BlurLevel5/BlurEditedMorph140.png,Stimuli/BlurLevel5/NumberedMorphs/BlurEditedMorph140.png,Stimuli/BlurLevel5/OriginalBlur/BlurEditedMorph140.png,Stimuli/BlurMorphTrio/EditedMorph140.png,None,None,,,,,0,0,0,0,0,17,17,139,,,,,,,,,,,,,,,,,,,,,,,34,18,1,3,2.496573837,0.130839891,140,Experiment,,,,,,,,,38,1,139,-8,,,,,,,,,,,,,,,487.9743851,488.7017722,487.9743851,488.7017722,89.11564626,1583450171,1583450173,2.166784048,1583450168,1583450171,,,EK,1,20,female,undergrad,2020_Mar_05_1508,AdjustEyeTrack,3.1.5,60.01269869
79,Stimuli/Morph79.JPG,Stimuli/Morph79.png,Stimuli/BlurLevel5/BlurEditedMorph79,Stimuli/BlurLevel5/BlurEditedMorph79.png,Stimuli/BlurLevel5/NumberedMorphs/BlurEditedMorph79.png,Stimuli/BlurLevel5/OriginalBlur/BlurEditedMorph79.png,Stimuli/BlurMorphTrio/EditedMorph79.png,020239right.gif,Stimuli/normal_thumbnails/79right.gif,,,,,0,0,0,0,0,18,18,78,,,,,,,,,,,,,,,,,,,,,,,74,19,1,224,-1.798349501,-1.736645926,79,Experiment,,,,,,,,,136,73,6,6,,,,,,,,,,,,,,,493.604709,494.3194781,493.604709,494.3194781,91.83673469,1583450176,1583450180,4.116408825,1583450173,1583450176,,,EK,1,20,female,undergrad,2020_Mar_05_1508,AdjustEyeTrack,3.1.5,60.01269869
88,Stimuli/Morph88.JPG,Stimuli/Morph88.png,Stimuli/BlurLevel5/BlurEditedMorph88,Stimuli/BlurLevel5/BlurEditedMorph88.png,Stimuli/BlurLevel5/NumberedMorphs/BlurEditedMorph88.png,Stimuli/BlurLevel5/OriginalBlur/BlurEditedMorph88.png,Stimuli/BlurMorphTrio/EditedMorph88.png,020271right.gif,Stimuli/normal_thumbnails/88right.gif,,,,,0,0,0,0,0,19,19,87,,,,,,,,,,,,,,,,,,,,,,,93,20,1,174,-2.486304738,0.261321158,88,Experiment,,,,,,,,,101,93,-5,-5,,,,,,,,,,,,,,,501.8311047,502.5819209,501.8311047,502.5819209,93.19727891,1583450184,1583450188,3.032907009,1583450181,1583450184,,,EK,1,20,female,undergrad,2020_Mar_05_1508,AdjustEyeTrack,3.1.5,60.01269869
134,Stimuli/Morph134.JPG,Stimuli/Morph134.png,Stimuli/BlurLevel5/BlurEditedMorph134,Stimuli/BlurLevel5/BlurEditedMorph134.png,Stimuli/BlurLevel5/NumberedMorphs/BlurEditedMorph134.png,Stimuli/BlurLevel5/OriginalBlur/BlurEditedMorph134.png,Stimuli/BlurMorphTrio/EditedMorph134.png,None,None,,,,,0,0,0,0,0,20,20,133,,,,,,,,,,,,,,,,,,,,,,,100,21,1,35,2.047880111,1.433941091,134,Experiment,,,,,,,,,96,110,24,24,,,,,,,,,,,,,,,508.2933572,509.0058397,508.2933572,509.0058397,67.34693878,1583450191,1583450194,3.382938147,1583450188,1583450191,,,EK,1,20,female,undergrad,2020_Mar_05_1508,AdjustEyeTrack,3.1.5,60.01269869
62,Stimuli/Morph62.JPG,Stimuli/Morph62.png,Stimuli/BlurLevel5/BlurEditedMorph62,Stimuli/BlurLevel5/BlurEditedMorph62.png,Stimuli/BlurLevel5/NumberedMorphs/BlurEditedMorph62.png,Stimuli/BlurLevel5/OriginalBlur/BlurEditedMorph62.png,Stimuli/BlurMorphTrio/EditedMorph62.png,020205right.gif,Stimuli/normal_thumbnails/62right.gif,,,,,0,0,0,0,0,21,21,61,,,,,,,,,,,,,,,,,,,,,,,14,22,1,88,0.087248742,2.498477068,62,Experiment,,,,,,,,,29,62,0,0,,,,,,,,,,,,,,,515.3866904,516.1084606,515.3866904,516.1084606,100,1583450198,1583450202,3.99763608,1583450195,1583450198,,,EK,1,20,female,undergrad,2020_Mar_05_1508,AdjustEyeTrack,3.1.5,60.01269869
12,Stimuli/Morph12.JPG,Stimuli/Morph12.png,Stimuli/BlurLevel5/BlurEditedMorph12,Stimuli/BlurLevel5/BlurEditedMorph12.png,Stimuli/BlurLevel5/NumberedMorphs/BlurEditedMorph12.png,Stimuli/BlurLevel5/OriginalBlur/BlurEditedMorph12.png,Stimuli/BlurMorphTrio/EditedMorph12.png,010026right.gif,Stimuli/normal_thumbnails/12right.gif,,,,,0,0,0,0,0,22,22,11,,,,,,,,,,,,,,,,,,,,,,,89,23,1,312,1.672826516,-1.857862064,12,Experiment,,,,,,,,,53,12,0,0,,,,,,,,,,,,,,,522.7867651,523.5023469,522.7867651,523.5023469,100,1583450205,1583450211,5.167766094,1583450203,1583450205,,,EK,1,20,female,undergrad,2020_Mar_05_1508,AdjustEyeTrack,3.1.5,60.01269869
30,Stimuli/Morph30.JPG,Stimuli/Morph30.png,Stimuli/BlurLevel5/BlurEditedMorph30,Stimuli/BlurLevel5/BlurEditedMorph30.png,Stimuli/BlurLevel5/NumberedMorphs/BlurEditedMorph30.png,Stimuli/BlurLevel5/OriginalBlur/BlurEditedMorph30.png,Stimuli/BlurMorphTrio/EditedMorph30.png,010076right.gif,Stimuli/normal_thumbnails/30right.gif,,,,,0,0,0,0,0,23,23,29,,,,,,,,,,,,,,,,,,,,,,,82,24,1,351,2.469220851,-0.391086163,30,Experiment,,,,,,,,,35,37,-7,-7,,,,,,,,,,,,,,,531.31306,532.0343991,531.31306,532.0343991,90.47619048,1583450214,1583450220,5.897936821,1583450211,1583450214,,,EK,1,20,female,undergrad,2020_Mar_05_1508,AdjustEyeTrack,3.1.5,60.01269869
100,Stimuli/Morph100.JPG,Stimuli/Morph100.png,Stimuli/BlurLevel5/BlurEditedMorph100,Stimuli/BlurLevel5/BlurEditedMorph100.png,Stimuli/BlurLevel5/NumberedMorphs/BlurEditedMorph100.png,Stimuli/BlurLevel5/OriginalBlur/BlurEditedMorph100.png,Stimuli/BlurMorphTrio/EditedMorph100.png,020297right.gif,Stimuli/normal_thumbnails/100right.gif,,,,,0,0,0,0,0,24,24,99,,,,,,,,,,,,,,,,,,,,,,,34,25,1,194,-2.425739316,-0.604804739,100,Experiment,,,,,,,,,95,120,-20,-20,,,,,,,,,,,,,,,540.7457096,541.4672902,540.7457096,541.4672902,72.78911565,1583450223,1583450227,3.99811101,1583450220,1583450223,,,EK,1,20,female,undergrad,2020_Mar_05_1508,AdjustEyeTrack,3.1.5,60.01269869
46,Stimuli/Morph46.JPG,Stimuli/Morph46.png,Stimuli/BlurLevel5/BlurEditedMorph46,Stimuli/BlurLevel5/BlurEditedMorph46.png,Stimuli/BlurLevel5/NumberedMorphs/BlurEditedMorph46.png,Stimuli/BlurLevel5/OriginalBlur/BlurEditedMorph46.png,Stimuli/BlurMorphTrio/EditedMorph46.png,010128right.gif,Stimuli/normal_thumbnails/46right.gif,,,,,0,0,0,0,0,25,25,45,,,,,,,,,,,,,,,,,,,,,,,38,26,1,333,2.22751631,-1.134976249,46,Experiment,,,,,,,,,61,43,3,3,,,,,,,,,,,,,,,548.2110102,548.9281545,548.2110102,548.9281545,95.91836735,1583450231,1583450234,3.333087921,1583450228,1583450231,,,EK,1,20,female,undergrad,2020_Mar_05_1508,AdjustEyeTrack,3.1.5,60.01269869
126,Stimuli/Morph126.JPG,Stimuli/Morph126.png,Stimuli/BlurLevel5/BlurEditedMorph126,Stimuli/BlurLevel5/BlurEditedMorph126.png,Stimuli/BlurLevel5/NumberedMorphs/BlurEditedMorph126.png,Stimuli/BlurLevel5/OriginalBlur/BlurEditedMorph126.png,Stimuli/BlurMorphTrio/EditedMorph126.png,None,None,,,,,0,0,0,0,0,26,26,125,,,,,,,,,,,,,,,,,,,,,,,73,27,1,127,-1.504537558,1.996588775,126,Experiment,,,,,,,,,14,125,1,1,,,,,,,,,,,,,,,554.8718563,555.5702296,554.8718563,555.5702296,98.63945578,1583450237,1583450241,3.882797003,1583450235,1583450237,,,EK,1,20,female,undergrad,2020_Mar_05_1508,AdjustEyeTrack,3.1.5,60.01269869
38,Stimuli/Morph38.JPG,Stimuli/Morph38.png,Stimuli/BlurLevel5/BlurEditedMorph38,Stimuli/BlurLevel5/BlurEditedMorph38.png,Stimuli/BlurLevel5/NumberedMorphs/BlurEditedMorph38.png,Stimuli/BlurLevel5/OriginalBlur/BlurEditedMorph38.png,Stimuli/BlurMorphTrio/EditedMorph38.png,010108right.gif,Stimuli/normal_thumbnails/38right.gif,,,,,0,0,0,0,0,27,27,37,,,,,,,,,,,,,,,,,,,,,,,55,28,1,246,-1.016841608,-2.283863644,38,Experiment,,,,,,,,,90,38,0,0,,,,,,,,,,,,,,,562.0851838,562.7837362,562.0851838,562.7837362,100,1583450245,1583450248,3.097698927,1583450242,1583450245,,,EK,1,20,female,undergrad,2020_Mar_05_1508,AdjustEyeTrack,3.1.5,60.01269869
44,Stimuli/Morph44.JPG,Stimuli/Morph44.png,Stimuli/BlurLevel5/BlurEditedMorph44,Stimuli/BlurLevel5/BlurEditedMorph44.png,Stimuli/BlurLevel5/NumberedMorphs/BlurEditedMorph44.png,Stimuli/BlurLevel5/OriginalBlur/BlurEditedMorph44.png,Stimuli/BlurMorphTrio/EditedMorph44.png,010126right.gif,Stimuli/normal_thumbnails/44right.gif,,,,,0,0,0,0,0,28,28,43,,,,,,,,,,,,,,,,,,,,,,,58,29,1,354,2.486304738,-0.261321158,44,Experiment,,,,,,,,,74,46,-2,-2,,,,,,,,,,,,,,,568.4489119,569.1589861,568.4489119,569.1589861,97.27891156,1583450251,1583450254,3.250069141,1583450248,1583450251,,,EK,1,20,female,undergrad,2020_Mar_05_1508,AdjustEyeTrack,3.1.5,60.01269869
83,Stimuli/Morph83.JPG,Stimuli/Morph83.png,Stimuli/BlurLevel5/BlurEditedMorph83,Stimuli/BlurLevel5/BlurEditedMorph83.png,Stimuli/BlurLevel5/NumberedMorphs/BlurEditedMorph83.png,Stimuli/BlurLevel5/OriginalBlur/BlurEditedMorph83.png,Stimuli/BlurMorphTrio/EditedMorph83.png,020259right.gif,Stimuli/normal_thumbnails/83right.gif,,,,,0,0,0,0,0,29,29,82,,,,,,,,,,,,,,,,,,,,,,,86,30,1,316,1.798349501,-1.736645926,83,Experiment,,,,,,,,,8,87,-4,-4,,,,,,,,,,,,,,,575.1229418,575.8453677,575.1229418,575.8453677,94.55782313,1583450258,1583450262,3.783134937,1583450255,1583450258,,,EK,1,20,female,undergrad,2020_Mar_05_1508,AdjustEyeTrack,3.1.5,60.01269869
40,Stimuli/Morph40.JPG,Stimuli/Morph40.png,Stimuli/BlurLevel5/BlurEditedMorph40,Stimuli/BlurLevel5/BlurEditedMorph40.png,Stimuli/BlurLevel5/NumberedMorphs/BlurEditedMorph40.png,Stimuli/BlurLevel5/OriginalBlur/BlurEditedMorph40.png,Stimuli/BlurMorphTrio/EditedMorph40.png,010110right.gif,Stimuli/normal_thumbnails/40right.gif,,,,,0,0,0,0,0,30,30,39,,,,,,,,,,,,,,,,,,,,,,,38,31,1,150,-2.165063509,1.25,40,Experiment,,,,,,,,,79,37,3,3,,,,,,,,,,,,,,,582.3207715,583.0293415,582.3207715,583.0293415,95.91836735,1583450265,1583450269,3.863803148,1583450262,1583450265,,,EK,1,20,female,undergrad,2020_Mar_05_1508,AdjustEyeTrack,3.1.5,60.01269869
18,Stimuli/Morph18.JPG,Stimuli/Morph18.png,Stimuli/BlurLevel5/BlurEditedMorph18,Stimuli/BlurLevel5/BlurEditedMorph18.png,Stimuli/BlurLevel5/NumberedMorphs/BlurEditedMorph18.png,Stimuli/BlurLevel5/OriginalBlur/BlurEditedMorph18.png,Stimuli/BlurMorphTrio/EditedMorph18.png,010039right.gif,Stimuli/normal_thumbnails/18right.gif,,,,,0,0,0,0,0,31,31,17,,,,,,,,,,,,,,,,,,,,,,,99,32,1,306,1.469463131,-2.022542486,18,Experiment,,,,,,,,,120,23,-5,-5,,,,,,,,,,,,,,,589.3354735,590.0410352,589.3354735,590.0410352,93.19727891,1583450272,1583450276,3.789402962,1583450269,1583450272,,,EK,1,20,female,undergrad,2020_Mar_05_1508,AdjustEyeTrack,3.1.5,60.01269869
77,Stimuli/Morph77.JPG,Stimuli/Morph77.png,Stimuli/BlurLevel5/BlurEditedMorph77,Stimuli/BlurLevel5/BlurEditedMorph77.png,Stimuli/BlurLevel5/NumberedMorphs/BlurEditedMorph77.png,Stimuli/BlurLevel5/OriginalBlur/BlurEditedMorph77.png,Stimuli/BlurMorphTrio/EditedMorph77.png,020235right.gif,Stimuli/normal_thumbnails/77right.gif,,,,,0,0,0,0,0,32,32,76,,,,,,,,,,,,,,,,,,,,,,,78,33,1,192,-2.445369002,-0.519779227,77,Experiment,,,,,,,,,107,105,-28,-28,,,,,,,,,,,,,,,596.3147656,597.0165087,596.3147656,597.0165087,61.9047619,1583450279,1583450283,4.218719959,1583450276,1583450279,,,EK,1,20,female,undergrad,2020_Mar_05_1508,AdjustEyeTrack,3.1.5,60.01269869
11,Stimuli/Morph11.JPG,Stimuli/Morph11.png,Stimuli/BlurLevel5/BlurEditedMorph11,Stimuli/BlurLevel5/BlurEditedMorph11.png,Stimuli/BlurLevel5/NumberedMorphs/BlurEditedMorph11.png,Stimuli/BlurLevel5/OriginalBlur/BlurEditedMorph11.png,Stimuli/BlurMorphTrio/EditedMorph11.png,010024right.gif,Stimuli/normal_thumbnails/11right.gif,,,,,0,0,0,0,0,33,33,10,,,,,,,,,,,,,,,,,,,,,,,89,34,1,125,-1.433941091,2.047880111,11,Experiment,,,,,,,,,122,15,-4,-4,,,,,,,,,,,,,,,603.9240577,604.638459,603.9240577,604.638459,94.55782313,1583450287,1583450288,1.833377123,1583450284,1583450287,,,EK,1,20,female,undergrad,2020_Mar_05_1508,AdjustEyeTrack,3.1.5,60.01269869
63,Stimuli/Morph63.JPG,Stimuli/Morph63.png,Stimuli/BlurLevel5/BlurEditedMorph63,Stimuli/BlurLevel5/BlurEditedMorph63.png,Stimuli/BlurLevel5/NumberedMorphs/BlurEditedMorph63.png,Stimuli/BlurLevel5/OriginalBlur/BlurEditedMorph63.png,Stimuli/BlurMorphTrio/EditedMorph63.png,020206right.gif,Stimuli/normal_thumbnails/63right.gif,,,,,0,0,0,0,0,34,34,62,,,,,,,,,,,,,,,,,,,,,,,82,35,1,92,-0.087248742,2.498477068,63,Experiment,,,,,,,,,98,72,-9,-9,,,,,,,,,,,,,,,609.1370745,609.848667,609.1370745,609.848667,87.75510204,1583450292,1583450296,4.750045776,1583450289,1583450292,,,EK,1,20,female,undergrad,2020_Mar_05_1508,AdjustEyeTrack,3.1.5,60.01269869
47,Stimuli/Morph47.JPG,Stimuli/Morph47.png,Stimuli/BlurLevel5/BlurEditedMorph47,Stimuli/BlurLevel5/BlurEditedMorph47.png,Stimuli/BlurLevel5/NumberedMorphs/BlurEditedMorph47.png,Stimuli/BlurLevel5/OriginalBlur/BlurEditedMorph47.png,Stimuli/BlurMorphTrio/EditedMorph47.png,010130right.gif,Stimuli/normal_thumbnails/47right.gif,,,,,0,0,0,0,0,35,35,46,,,,,,,,,,,,,,,,,,,,,,,85,36,1,249,-0.895919874,-2.333951066,47,Experiment,,,,,,,,,113,44,3,3,,,,,,,,,,,,,,,617.1868291,617.8928717,617.1868291,617.8928717,95.91836735,1583450300,1583450302,2.582911015,1583450297,1583450300,,,EK,1,20,female,undergrad,2020_Mar_05_1508,AdjustEyeTrack,3.1.5,60.01269869
98,Stimuli/Morph98.JPG,Stimuli/Morph98.png,Stimuli/BlurLevel5/BlurEditedMorph98,Stimuli/BlurLevel5/BlurEditedMorph98.png,Stimuli/BlurLevel5/NumberedMorphs/BlurEditedMorph98.png,Stimuli/BlurLevel5/OriginalBlur/BlurEditedMorph98.png,Stimuli/BlurMorphTrio/EditedMorph98.png,020298right.gif,Stimuli/normal_thumbnails/98right.gif,,,,,0,0,0,0,0,36,36,97,,,,,,,,,,,,,,,,,,,,,,,25,37,1,129,-1.573300978,1.942864904,98,Experiment,,,,,,,,,84,104,-6,-6,,,,,,,,,,,,,,,623.0310668,623.7403815,623.0310668,623.7403815,91.83673469,1583450306,1583450307,1.698970795,1583450303,1583450306,,,EK,1,20,female,undergrad,2020_Mar_05_1508,AdjustEyeTrack,3.1.5,60.01269869
114,Stimuli/Morph114.JPG,Stimuli/Morph114.png,Stimuli/BlurLevel5/BlurEditedMorph114,Stimuli/BlurLevel5/BlurEditedMorph114.png,Stimuli/BlurLevel5/NumberedMorphs/BlurEditedMorph114.png,Stimuli/BlurLevel5/OriginalBlur/BlurEditedMorph114.png,Stimuli/BlurMorphTrio/EditedMorph114.png,None,None,,,,,0,0,0,0,0,37,37,113,,,,,,,,,,,,,,,,,,,,,,,15,38,1,318,1.857862064,-1.672826516,114,Experiment,,,,,,,,,6,89,25,25,,,,,,,,,,,,,,,628.0708471,628.7870179,628.0708471,628.7870179,65.98639456,1583450311,1583450314,3.3001647,1583450308,1583450311,,,EK,1,20,female,undergrad,2020_Mar_05_1508,AdjustEyeTrack,3.1.5,60.01269869
86,Stimuli/Morph86.JPG,Stimuli/Morph86.png,Stimuli/BlurLevel5/BlurEditedMorph86,Stimuli/BlurLevel5/BlurEditedMorph86.png,Stimuli/BlurLevel5/NumberedMorphs/BlurEditedMorph86.png,Stimuli/BlurLevel5/OriginalBlur/BlurEditedMorph86.png,Stimuli/BlurMorphTrio/EditedMorph86.png,020266right.gif,Stimuli/normal_thumbnails/86right.gif,,,,,0,0,0,0,0,38,38,85,,,,,,,,,,,,,,,,,,,,,,,42,39,1,128,-1.539153688,1.970026884,86,Experiment,,,,,,,,,129,108,-22,-22,,,,,,,,,,,,,,,635.0052921,635.7382561,635.0052921,635.7382561,70.06802721,1583450318,1583450320,2.296491146,1583450315,1583450318,,,EK,1,20,female,undergrad,2020_Mar_05_1508,AdjustEyeTrack,3.1.5,60.01269869
128,Stimuli/Morph128.JPG,Stimuli/Morph128.png,Stimuli/BlurLevel5/BlurEditedMorph128,Stimuli/BlurLevel5/BlurEditedMorph128.png,Stimuli/BlurLevel5/NumberedMorphs/BlurEditedMorph128.png,Stimuli/BlurLevel5/OriginalBlur/BlurEditedMorph128.png,Stimuli/BlurMorphTrio/EditedMorph128.png,None,None,,,,,0,0,0,0,0,39,39,127,,,,,,,,,,,,,,,,,,,,,,,46,40,1,92,-0.087248742,2.498477068,128,Experiment,,,,,,,,,47,100,28,28,,,,,,,,,,,,,,,640.5645176,641.2692105,640.5645176,641.2692105,61.9047619,1583450323,1583450326,3.296940804,1583450320,1583450323,,,EK,1,20,female,undergrad,2020_Mar_05_1508,AdjustEyeTrack,3.1.5,60.01269869
43,Stimuli/Morph43.JPG,Stimuli/Morph43.png,Stimuli/BlurLevel5/BlurEditedMorph43,Stimuli/BlurLevel5/BlurEditedMorph43.png,Stimuli/BlurLevel5/NumberedMorphs/BlurEditedMorph43.png,Stimuli/BlurLevel5/OriginalBlur/BlurEditedMorph43.png,Stimuli/BlurMorphTrio/EditedMorph43.png,010124right.gif,Stimuli/normal_thumbnails/43right.gif,,,,,0,0,0,0,0,40,40,42,,,,,,,,,,,,,,,,,,,,,,,45,41,1,125,-1.433941091,2.047880111,43,Experiment,,,,,,,,,33,40,3,3,,,,,,,,,,,,,,,647.0773671,647.783974,647.0773671,647.783974,95.91836735,1583450330,1583450331,1.81476903,1583450327,1583450330,,,EK,1,20,female,undergrad,2020_Mar_05_1508,AdjustEyeTrack,3.1.5,60.01269869
115,Stimuli/Morph115.JPG,Stimuli/Morph115.png,Stimuli/BlurLevel5/BlurEditedMorph115,Stimuli/BlurLevel5/BlurEditedMorph115.png,Stimuli/BlurLevel5/NumberedMorphs/BlurEditedMorph115.png,Stimuli/BlurLevel5/OriginalBlur/BlurEditedMorph115.png,Stimuli/BlurMorphTrio/EditedMorph115.png,None,None,,,,,0,0,0,0,0,41,41,114,,,,,,,,,,,,,,,,,,,,,,,80,42,1,109,-0.813920386,2.363796439,115,Experiment,,,,,,,,,120,120,-5,-5,,,,,,,,,,,,,,,652.1416277,652.8602462,652.1416277,652.8602462,93.19727891,1583450335,1583450336,1.096551895,1583450332,1583450335,,,EK,1,20,female,undergrad,2020_Mar_05_1508,AdjustEyeTrack,3.1.5,60.01269869
129,Stimuli/Morph129.JPG,Stimuli/Morph129.png,Stimuli/BlurLevel5/BlurEditedMorph129,Stimuli/BlurLevel5/BlurEditedMorph129.png,Stimuli/BlurLevel5/NumberedMorphs/BlurEditedMorph129.png,Stimuli/BlurLevel5/OriginalBlur/BlurEditedMorph129.png,Stimuli/BlurMorphTrio/EditedMorph129.png,None,None,,,,,0,0,0,0,0,42,42,128,,,,,,,,,,,,,,,,,,,,,,,36,43,1,117,-1.134976249,2.22751631,129,Experiment,,,,,,,,,4,105,24,24,,,,,,,,,,,,,,,656.7351039,657.4603836,656.7351039,657.4603836,67.34693878,1583450339,1583450342,2.283462763,1583450336,1583450339,,,EK,1,20,female,undergrad,2020_Mar_05_1508,AdjustEyeTrack,3.1.5,60.01269869
99,Stimuli/Morph99.JPG,Stimuli/Morph99.png,Stimuli/BlurLevel5/BlurEditedMorph99,Stimuli/BlurLevel5/BlurEditedMorph99.png,Stimuli/BlurLevel5/NumberedMorphs/BlurEditedMorph99.png,Stimuli/BlurLevel5/OriginalBlur/BlurEditedMorph99.png,Stimuli/BlurMorphTrio/EditedMorph99.png,020299right.gif,Stimuli/normal_thumbnails/99right.gif,,,,,0,0,0,0,0,43,43,98,,,,,,,,,,,,,,,,,,,,,,,53,44,1,253,-0.730929262,-2.39076189,99,Experiment,,,,,,,,,19,111,-12,-12,,,,,,,,,,,,,,,662.567767,663.3103116,662.567767,663.3103116,83.67346939,1583450345,1583450347,1.933377028,1583450342,1583450345,,,EK,1,20,female,undergrad,2020_Mar_05_1508,AdjustEyeTrack,3.1.5,60.01269869
29,Stimuli/Morph29.JPG,Stimuli/Morph29.png,Stimuli/BlurLevel5/BlurEditedMorph29,Stimuli/BlurLevel5/BlurEditedMorph29.png,Stimuli/BlurLevel5/NumberedMorphs/BlurEditedMorph29.png,Stimuli/BlurLevel5/OriginalBlur/BlurEditedMorph29.png,Stimuli/BlurMorphTrio/EditedMorph29.png,010074right.gif,Stimuli/normal_thumbnails/29right.gif,,,,,0,0,0,0,0,44,44,28,,,,,,,,,,,,,,,,,,,,,,,51,45,1,121,-1.287595187,2.142918252,29,Experiment,,,,,,,,,33,33,-4,-4,,,,,,,,,,,,,,,668.0952488,668.842493,668.0952488,668.842493,94.55782313,1583450351,1583450352,1.280821085,1583450348,1583450351,,,EK,1,20,female,undergrad,2020_Mar_05_1508,AdjustEyeTrack,3.1.5,60.01269869
81,Stimuli/Morph81.JPG,Stimuli/Morph81.png,Stimuli/BlurLevel5/BlurEditedMorph81,Stimuli/BlurLevel5/BlurEditedMorph81.png,Stimuli/BlurLevel5/NumberedMorphs/BlurEditedMorph81.png,Stimuli/BlurLevel5/OriginalBlur/BlurEditedMorph81.png,Stimuli/BlurMorphTrio/EditedMorph81.png,020245right.gif,Stimuli/normal_thumbnails/81right.gif,,,,,0,0,0,0,0,45,45,80,,,,,,,,,,,,,,,,,,,,,,,75,46,1,208,-2.207368982,-1.173678907,81,Experiment,,,,,,,,,78,78,3,3,,,,,,,,,,,,,,,672.6368754,673.3444857,672.6368754,673.3444857,95.91836735,1583450355,1583450356,0.732979059,1583450353,1583450355,,,EK,1,20,female,undergrad,2020_Mar_05_1508,AdjustEyeTrack,3.1.5,60.01269869
101,Stimuli/Morph101.JPG,Stimuli/Morph101.png,Stimuli/BlurLevel5/BlurEditedMorph101,Stimuli/BlurLevel5/BlurEditedMorph101.png,Stimuli/BlurLevel5/NumberedMorphs/BlurEditedMorph101.png,Stimuli/BlurLevel5/OriginalBlur/BlurEditedMorph101.png,Stimuli/BlurMorphTrio/EditedMorph101.png,None,None,,,,,0,0,0,0,0,46,46,100,,,,,,,,,,,,,,,,,,,,,,,99,47,1,333,2.22751631,-1.134976249,101,Experiment,,,,,,,,,116,106,-5,-5,,,,,,,,,,,,,,,676.5021398,677.2109768,676.5021398,677.2109768,93.19727891,1583450359,1583450365,6.115848064,1583450357,1583450359,,,EK,1,20,female,undergrad,2020_Mar_05_1508,AdjustEyeTrack,3.1.5,60.01269869
54,Stimuli/Morph54.JPG,Stimuli/Morph54.png,Stimuli/BlurLevel5/BlurEditedMorph54,Stimuli/BlurLevel5/BlurEditedMorph54.png,Stimuli/BlurLevel5/NumberedMorphs/BlurEditedMorph54.png,Stimuli/BlurLevel5/OriginalBlur/BlurEditedMorph54.png,Stimuli/BlurMorphTrio/EditedMorph54.png,010150right.gif,Stimuli/normal_thumbnails/54right.gif,,,,,0,0,0,0,0,47,47,53,,,,,,,,,,,,,,,,,,,,,,,64,48,1,72,0.772542486,2.377641291,54,Experiment,,,,,,,,,141,49,5,5,,,,,,,,,,,,,,,685.8924603,686.6041058,685.8924603,686.6041058,93.19727891,1583450368,1583450371,2.480386019,1583450366,1583450368,,,EK,1,20,female,undergrad,2020_Mar_05_1508,AdjustEyeTrack,3.1.5,60.01269869
132,Stimuli/Morph132.JPG,Stimuli/Morph132.png,Stimuli/BlurLevel5/BlurEditedMorph132,Stimuli/BlurLevel5/BlurEditedMorph132.png,Stimuli/BlurLevel5/NumberedMorphs/BlurEditedMorph132.png,Stimuli/BlurLevel5/OriginalBlur/BlurEditedMorph132.png,Stimuli/BlurMorphTrio/EditedMorph132.png,None,None,,,,,0,0,0,0,0,48,48,131,,,,,,,,,,,,,,,,,,,,,,,11,49,1,160,-2.349231552,0.855050358,132,Experiment,,,,,,,,,107,107,25,25,,,,,,,,,,,,,,,692.0870146,692.8224175,692.0870146,692.8224175,65.98639456,1583450375,1583450375,0.701239109,1583450372,1583450375,,,EK,1,20,female,undergrad,2020_Mar_05_1508,AdjustEyeTrack,3.1.5,60.01269869
91,Stimuli/Morph91.JPG,Stimuli/Morph91.png,Stimuli/BlurLevel5/BlurEditedMorph91,Stimuli/BlurLevel5/BlurEditedMorph91.png,Stimuli/BlurLevel5/NumberedMorphs/BlurEditedMorph91.png,Stimuli/BlurLevel5/OriginalBlur/BlurEditedMorph91.png,Stimuli/BlurMorphTrio/EditedMorph91.png,020276right.gif,Stimuli/normal_thumbnails/91right.gif,,,,,0,0,0,0,0,49,49,90,,,,,,,,,,,,,,,,,,,,,,,70,50,1,257,-0.562377636,-2.435925162,91,Experiment,,,,,,,,,69,96,-5,-5,,,,,,,,,,,,,,,696.1860597,696.9067158,696.1860597,696.9067158,93.19727891,1583450379,1583450381,1.683688164,1583450376,1583450379,,,EK,1,20,female,undergrad,2020_Mar_05_1508,AdjustEyeTrack,3.1.5,60.01269869
50,Stimuli/Morph50.JPG,Stimuli/Morph50.png,Stimuli/BlurLevel5/BlurEditedMorph50,Stimuli/BlurLevel5/BlurEditedMorph50.png,Stimuli/BlurLevel5/NumberedMorphs/BlurEditedMorph50.png,Stimuli/BlurLevel5/OriginalBlur/BlurEditedMorph50.png,Stimuli/BlurMorphTrio/EditedMorph50.png,010142right.gif,Stimuli/normal_thumbnails/50right.gif,,,,,0,0,0,0,0,50,50,49,,,,,,,,,,,,,,,,,,,,,,,63,51,1,155,-2.265769468,1.056545654,50,Experiment,,,,,,,,,94,50,0,0,,,,,,,,,,,,,,,701.2468649,701.9604158,701.2468649,701.9604158,100,1583450384,1583450387,3.566653013,1583450381,1583450384,,,EK,1,20,female,undergrad,2020_Mar_05_1508,AdjustEyeTrack,3.1.5,60.01269869
23,Stimuli/Morph23.JPG,Stimuli/Morph23.png,Stimuli/BlurLevel5/BlurEditedMorph23,Stimuli/BlurLevel5/BlurEditedMorph23.png,Stimuli/BlurLevel5/NumberedMorphs/BlurEditedMorph23.png,Stimuli/BlurLevel5/OriginalBlur/BlurEditedMorph23.png,Stimuli/BlurMorphTrio/EditedMorph23.png,010063right.gif,Stimuli/normal_thumbnails/23right.gif,,,,,0,0,0,0,0,51,51,22,,,,,,,,,,,,,,,,,,,,,,,73,52,1,212,-2.12012024,-1.324798161,23,Experiment,,,,,,,,,123,6,17,17,,,,,,,,,,,,,,,708.1547099,708.871357,708.1547099,708.871357,76.8707483,1583450391,1583450393,1.850537777,1583450388,1583450391,,,EK,1,20,female,undergrad,2020_Mar_05_1508,AdjustEyeTrack,3.1.5,60.01269869
34,Stimuli/Morph34.JPG,Stimuli/Morph34.png,Stimuli/BlurLevel5/BlurEditedMorph34,Stimuli/BlurLevel5/BlurEditedMorph34.png,Stimuli/BlurLevel5/NumberedMorphs/BlurEditedMorph34.png,Stimuli/BlurLevel5/OriginalBlur/BlurEditedMorph34.png,Stimuli/BlurMorphTrio/EditedMorph34.png,010090right.gif,Stimuli/normal_thumbnails/34right.gif,,,,,0,0,0,0,0,52,52,33,,,,,,,,,,,,,,,,,,,,,,,7,53,1,120,-1.25,2.165063509,34,Experiment,,,,,,,,,135,34,0,0,,,,,,,,,,,,,,,713.363433,714.0887548,713.363433,714.0887548,100,1583450396,1583450399,3.449609995,1583450393,1583450396,,,EK,1,20,female,undergrad,2020_Mar_05_1508,AdjustEyeTrack,3.1.5,60.01269869
16,Stimuli/Morph16.JPG,Stimuli/Morph16.png,Stimuli/BlurLevel5/BlurEditedMorph16,Stimuli/BlurLevel5/BlurEditedMorph16.png,Stimuli/BlurLevel5/NumberedMorphs/BlurEditedMorph16.png,Stimuli/BlurLevel5/OriginalBlur/BlurEditedMorph16.png,Stimuli/BlurMorphTrio/EditedMorph16.png,010034right.gif,Stimuli/normal_thumbnails/16right.gif,,,,,0,0,0,0,0,53,53,15,,,,,,,,,,,,,,,,,,,,,,,85,54,1,286,0.68909339,-2.40315424,16,Experiment,,,,,,,,,41,15,1,1,,,,,,,,,,,,,,,720.1193866,720.8315056,720.1193866,720.8315056,98.63945578,1583450403,1583450408,5.06468606,1583450400,1583450403,,,EK,1,20,female,undergrad,2020_Mar_05_1508,AdjustEyeTrack,3.1.5,60.01269869
55,Stimuli/Morph55.JPG,Stimuli/Morph55.png,Stimuli/BlurLevel5/BlurEditedMorph55,Stimuli/BlurLevel5/BlurEditedMorph55.png,Stimuli/BlurLevel5/NumberedMorphs/BlurEditedMorph55.png,Stimuli/BlurLevel5/OriginalBlur/BlurEditedMorph55.png,Stimuli/BlurMorphTrio/EditedMorph55.png,010151right.gif,Stimuli/normal_thumbnails/55right.gif,,,,,0,0,0,0,0,54,54,54,,,,,,,,,,,,,,,,,,,,,,,17,55,1,134,-1.736645926,1.798349501,55,Experiment,,,,,,,,,100,59,-4,-4,,,,,,,,,,,,,,,728.734,729.4521777,728.734,729.4521777,94.55782313,1583450411,1583450415,3.815742016,1583450408,1583450411,,,EK,1,20,female,undergrad,2020_Mar_05_1508,AdjustEyeTrack,3.1.5,60.01269869
84,Stimuli/Morph84.JPG,Stimuli/Morph84.png,Stimuli/BlurLevel5/BlurEditedMorph84,Stimuli/BlurLevel5/BlurEditedMorph84.png,Stimuli/BlurLevel5/NumberedMorphs/BlurEditedMorph84.png,Stimuli/BlurLevel5/OriginalBlur/BlurEditedMorph84.png,Stimuli/BlurMorphTrio/EditedMorph84.png,020261right.gif,Stimuli/normal_thumbnails/84right.gif,,,,,0,0,0,0,0,55,55,83,,,,,,,,,,,,,,,,,,,,,,,41,56,1,90,1.53E-16,2.5,84,Experiment,,,,,,,,,98,92,-8,-8,,,,,,,,,,,,,,,735.9925738,736.7080301,735.9925738,736.7080301,89.11564626,1583450419,1583450424,5.080660343,1583450416,1583450419,,,EK,1,20,female,undergrad,2020_Mar_05_1508,AdjustEyeTrack,3.1.5,60.01269869
28,Stimuli/Morph28.JPG,Stimuli/Morph28.png,Stimuli/BlurLevel5/BlurEditedMorph28,Stimuli/BlurLevel5/BlurEditedMorph28.png,Stimuli/BlurLevel5/NumberedMorphs/BlurEditedMorph28.png,Stimuli/BlurLevel5/OriginalBlur/BlurEditedMorph28.png,Stimuli/BlurMorphTrio/EditedMorph28.png,010073right.gif,Stimuli/normal_thumbnails/28right.gif,,,,,0,0,0,0,0,56,56,27,,,,,,,,,,,,,,,,,,,,,,,13,57,1,102,-0.519779227,2.445369002,28,Experiment,,,,,,,,,47,25,3,3,,,,,,,,,,,,,,,744.6979033,745.4220516,744.6979033,745.4220516,95.91836735,1583450427,1583450431,3.848760843,1583450424,1583450427,,,EK,1,20,female,undergrad,2020_Mar_05_1508,AdjustEyeTrack,3.1.5,60.01269869
131,Stimuli/Morph131.JPG,Stimuli/Morph131.png,Stimuli/BlurLevel5/BlurEditedMorph131,Stimuli/BlurLevel5/BlurEditedMorph131.png,Stimuli/BlurLevel5/NumberedMorphs/BlurEditedMorph131.png,Stimuli/BlurLevel5/OriginalBlur/BlurEditedMorph131.png,Stimuli/BlurMorphTrio/EditedMorph131.png,None,None,,,,,0,0,0,0,0,57,57,130,,,,,,,,,,,,,,,,,,,,,,,13,58,1,173,-2.481365379,0.304673359,131,Experiment,,,,,,,,,57,129,2,2,,,,,,,,,,,,,,,751.8788294,752.5980285,751.8788294,752.5980285,97.27891156,1583450434,1583450437,2.699293137,1583450432,1583450434,,,EK,1,20,female,undergrad,2020_Mar_05_1508,AdjustEyeTrack,3.1.5,60.01269869
51,Stimuli/Morph51.JPG,Stimuli/Morph51.png,Stimuli/BlurLevel5/BlurEditedMorph51,Stimuli/BlurLevel5/BlurEditedMorph51.png,Stimuli/BlurLevel5/NumberedMorphs/BlurEditedMorph51.png,Stimuli/BlurLevel5/OriginalBlur/BlurEditedMorph51.png,Stimuli/BlurMorphTrio/EditedMorph51.png,010146right.gif,Stimuli/normal_thumbnails/51right.gif,,,,,0,0,0,0,0,58,58,50,,,,,,,,,,,,,,,,,,,,,,,8,59,1,132,-1.672826516,1.857862064,51,Experiment,,,,,,,,,1,48,3,3,,,,,,,,,,,,,,,758.0675247,758.7938753,758.0675247,758.7938753,95.91836735,1583450441,1583450442,1.679800987,1583450438,1583450441,,,EK,1,20,female,undergrad,2020_Mar_05_1508,AdjustEyeTrack,3.1.5,60.01269869
2,Stimuli/Morph2.JPG,Stimuli/Morph2.png,Stimuli/BlurLevel5/BlurEditedMorph2,Stimuli/BlurLevel5/BlurEditedMorph2.png,Stimuli/BlurLevel5/NumberedMorphs/BlurEditedMorph2.png,Stimuli/BlurLevel5/OriginalBlur/BlurEditedMorph2.png,Stimuli/BlurMorphTrio/EditedMorph2.png,010006right.gif,Stimuli/normal_thumbnails/2right.gif,,,,,0,0,0,0,0,59,59,1,,,,,,,,,,,,,,,,,,,,,,,99,60,1,257,-0.562377636,-2.435925162,2,Experiment,,,,,,,,,84,141,-139,8,,,,,,,,,,,,,,,762.9703411,763.6810245,762.9703411,763.6810245,89.11564626,1583450446,1583450450,3.981265306,1583450443,1583450446,,,EK,1,20,female,undergrad,2020_Mar_05_1508,AdjustEyeTrack,3.1.5,60.01269869
5,Stimuli/Morph5.JPG,Stimuli/Morph5.png,Stimuli/BlurLevel5/BlurEditedMorph5,Stimuli/BlurLevel5/BlurEditedMorph5.png,Stimuli/BlurLevel5/NumberedMorphs/BlurEditedMorph5.png,Stimuli/BlurLevel5/OriginalBlur/BlurEditedMorph5.png,Stimuli/BlurMorphTrio/EditedMorph5.png,010011right.gif,Stimuli/normal_thumbnails/5right.gif,,,,,0,0,0,0,0,60,60,4,,,,,,,,,,,,,,,,,,,,,,,40,61,1,247,-0.976827821,-2.301262134,5,Experiment,,,,,,,,,11,139,-134,13,,,,,,,,,,,,,,,770.4054378,771.1403002,770.4054378,771.1403002,82.31292517,1583450453,1583450457,4.283142805,1583450450,1583450453,,,EK,1,20,female,undergrad,2020_Mar_05_1508,AdjustEyeTrack,3.1.5,60.01269869
70,Stimuli/Morph70.JPG,Stimuli/Morph70.png,Stimuli/BlurLevel5/BlurEditedMorph70,Stimuli/BlurLevel5/BlurEditedMorph70.png,Stimuli/BlurLevel5/NumberedMorphs/BlurEditedMorph70.png,Stimuli/BlurLevel5/OriginalBlur/BlurEditedMorph70.png,Stimuli/BlurMorphTrio/EditedMorph70.png,020221right.gif,Stimuli/normal_thumbnails/70right.gif,,,,,0,0,0,0,0,61,61,69,,,,,,,,,,,,,,,,,,,,,,,98,62,1,305,1.433941091,-2.047880111,70,Experiment,,,,,,,,,126,59,11,11,,,,,,,,,,,,,,,778.2295316,778.9566813,778.2295316,778.9566813,85.03401361,1583450461,1583450463,2.534272909,1583450458,1583450461,,,EK,1,20,female,undergrad,2020_Mar_05_1508,AdjustEyeTrack,3.1.5,60.01269869
105,Stimuli/Morph105.JPG,Stimuli/Morph105.png,Stimuli/BlurLevel5/BlurEditedMorph105,Stimuli/BlurLevel5/BlurEditedMorph105.png,Stimuli/BlurLevel5/NumberedMorphs/BlurEditedMorph105.png,Stimuli/BlurLevel5/OriginalBlur/BlurEditedMorph105.png,Stimuli/BlurMorphTrio/EditedMorph105.png,None,None,,,,,0,0,0,0,0,62,62,104,,,,,,,,,,,,,,,,,,,,,,,93,63,1,107,-0.730929262,2.39076189,105,Experiment,,,,,,,,,79,101,4,4,,,,,,,,,,,,,,,784.8100266,785.56527,784.8100266,785.56527,94.55782313,1583450467,1583450469,1.383157015,1583450464,1583450467,,,EK,1,20,female,undergrad,2020_Mar_05_1508,AdjustEyeTrack,3.1.5,60.01269869
52,Stimuli/Morph52.JPG,Stimuli/Morph52.png,Stimuli/BlurLevel5/BlurEditedMorph52,Stimuli/BlurLevel5/BlurEditedMorph52.png,Stimuli/BlurLevel5/NumberedMorphs/BlurEditedMorph52.png,Stimuli/BlurLevel5/OriginalBlur/BlurEditedMorph52.png,Stimuli/BlurMorphTrio/EditedMorph52.png,010148right.gif,Stimuli/normal_thumbnails/52right.gif,,,,,0,0,0,0,0,63,63,51,,,,,,,,,,,,,,,,,,,,,,,49,64,1,165,-2.414814566,0.647047613,52,Experiment,,,,,,,,,90,55,-3,-3,,,,,,,,,,,,,,,789.7347215,790.4503435,789.7347215,790.4503435,95.91836735,1583450472,1583450475,2.784337044,1583450469,1583450472,,,EK,1,20,female,undergrad,2020_Mar_05_1508,AdjustEyeTrack,3.1.5,60.01269869
94,Stimuli/Morph94.JPG,Stimuli/Morph94.png,Stimuli/BlurLevel5/BlurEditedMorph94,Stimuli/BlurLevel5/BlurEditedMorph94.png,Stimuli/BlurLevel5/NumberedMorphs/BlurEditedMorph94.png,Stimuli/BlurLevel5/OriginalBlur/BlurEditedMorph94.png,Stimuli/BlurMorphTrio/EditedMorph94.png,020286right.gif,Stimuli/normal_thumbnails/94right.gif,,,,,0,0,0,0,0,64,64,93,,,,,,,,,,,,,,,,,,,,,,,60,65,1,254,-0.68909339,-2.40315424,94,Experiment,,,,,,,,,14,99,-5,-5,,,,,,,,,,,,,,,796.1325901,796.8869019,796.1325901,796.8869019,93.19727891,1583450479,1583450482,3.233429909,1583450476,1583450479,,,EK,1,20,female,undergrad,2020_Mar_05_1508,AdjustEyeTrack,3.1.5,60.01269869
26,Stimuli/Morph26.JPG,Stimuli/Morph26.png,Stimuli/BlurLevel5/BlurEditedMorph26,Stimuli/BlurLevel5/BlurEditedMorph26.png,Stimuli/BlurLevel5/NumberedMorphs/BlurEditedMorph26.png,Stimuli/BlurLevel5/OriginalBlur/BlurEditedMorph26.png,Stimuli/BlurMorphTrio/EditedMorph26.png,010070right.gif,Stimuli/normal_thumbnails/26right.gif,,,,,0,0,0,0,0,65,65,25,,,,,,,,,,,,,,,,,,,,,,,67,66,1,229,-1.640147572,-1.886773951,26,Experiment,,,,,,,,,3,35,-9,-9,,,,,,,,,,,,,,,802.9278066,803.6550858,802.9278066,803.6550858,87.75510204,1583450486,1583450488,2.133774042,1583450483,1583450486,,,EK,1,20,female,undergrad,2020_Mar_05_1508,AdjustEyeTrack,3.1.5,60.01269869
135,Stimuli/Morph135.JPG,Stimuli/Morph135.png,Stimuli/BlurLevel5/BlurEditedMorph135,Stimuli/BlurLevel5/BlurEditedMorph135.png,Stimuli/BlurLevel5/NumberedMorphs/BlurEditedMorph135.png,Stimuli/BlurLevel5/OriginalBlur/BlurEditedMorph135.png,Stimuli/BlurMorphTrio/EditedMorph135.png,None,None,,,,,0,0,0,0,0,66,66,134,,,,,,,,,,,,,,,,,,,,,,,34,67,1,78,0.519779227,2.445369002,135,Experiment,,,,,,,,,16,134,1,1,,,,,,,,,,,,,,,808.6965072,809.4191763,808.6965072,809.4191763,98.63945578,1583450491,1583450493,1.594987154,1583450488,1583450491,,,EK,1,20,female,undergrad,2020_Mar_05_1508,AdjustEyeTrack,3.1.5,60.01269869
58,Stimuli/Morph58.JPG,Stimuli/Morph58.png,Stimuli/BlurLevel5/BlurEditedMorph58,Stimuli/BlurLevel5/BlurEditedMorph58.png,Stimuli/BlurLevel5/NumberedMorphs/BlurEditedMorph58.png,Stimuli/BlurLevel5/OriginalBlur/BlurEditedMorph58.png,Stimuli/BlurMorphTrio/EditedMorph58.png,010159right.gif,Stimuli/normal_thumbnails/58right.gif,,,,,0,0,0,0,0,67,67,57,,,,,,,,,,,,,,,,,,,,,,,66,68,1,59,1.287595187,2.142918252,58,Experiment,,,,,,,,,22,42,16,16,,,,,,,,,,,,,,,813.6493099,814.3659199,813.6493099,814.3659199,78.23129252,1583450496,1583450498,1.397173166,1583450494,1583450496,,,EK,1,20,female,undergrad,2020_Mar_05_1508,AdjustEyeTrack,3.1.5,60.01269869
122,Stimuli/Morph122.JPG,Stimuli/Morph122.png,Stimuli/BlurLevel5/BlurEditedMorph122,Stimuli/BlurLevel5/BlurEditedMorph122.png,Stimuli/BlurLevel5/NumberedMorphs/BlurEditedMorph122.png,Stimuli/BlurLevel5/OriginalBlur/BlurEditedMorph122.png,Stimuli/BlurMorphTrio/EditedMorph122.png,None,None,,,,,0,0,0,0,0,68,68,121,,,,,,,,,,,,,,,,,,,,,,,6,69,1,131,-1.640147572,1.886773951,122,Experiment,,,,,,,,,39,129,-7,-7,,,,,,,,,,,,,,,818.6251685,819.3541846,818.6251685,819.3541846,90.47619048,1583450501,1583450503,2.220068216,1583450498,1583450501,,,EK,1,20,female,undergrad,2020_Mar_05_1508,AdjustEyeTrack,3.1.5,60.01269869
60,Stimuli/Morph60.JPG,Stimuli/Morph60.png,Stimuli/BlurLevel5/BlurEditedMorph60,Stimuli/BlurLevel5/BlurEditedMorph60.png,Stimuli/BlurLevel5/NumberedMorphs/BlurEditedMorph60.png,Stimuli/BlurLevel5/OriginalBlur/BlurEditedMorph60.png,Stimuli/BlurMorphTrio/EditedMorph60.png,020200right.gif,Stimuli/normal_thumbnails/60right.gif,,,,,0,0,0,0,0,69,69,59,,,,,,,,,,,,,,,,,,,,,,,25,70,1,266,-0.174391184,-2.493910126,60,Experiment,,,,,,,,,46,67,-7,-7,,,,,,,,,,,,,,,824.2099034,824.9212022,824.2099034,824.9212022,90.47619048,1583450507,1583450508,1.500399113,1583450504,1583450507,,,EK,1,20,female,undergrad,2020_Mar_05_1508,AdjustEyeTrack,3.1.5,60.01269869
92,Stimuli/Morph92.JPG,Stimuli/Morph92.png,Stimuli/BlurLevel5/BlurEditedMorph92,Stimuli/BlurLevel5/BlurEditedMorph92.png,Stimuli/BlurLevel5/NumberedMorphs/BlurEditedMorph92.png,Stimuli/BlurLevel5/OriginalBlur/BlurEditedMorph92.png,Stimuli/BlurMorphTrio/EditedMorph92.png,020277right.gif,Stimuli/normal_thumbnails/92right.gif,,,,,0,0,0,0,0,70,70,91,,,,,,,,,,,,,,,,,,,,,,,9,71,1,153,-2.22751631,1.134976249,92,Experiment,,,,,,,,,50,104,-12,-12,,,,,,,,,,,,,,,828.8778348,829.5801045,828.8778348,829.5801045,83.67346939,1583450511,1583450514,2.667977095,1583450509,1583450511,,,EK,1,20,female,undergrad,2020_Mar_05_1508,AdjustEyeTrack,3.1.5,60.01269869
144,Stimuli/Morph144.JPG,Stimuli/Morph144.png,Stimuli/BlurLevel5/BlurEditedMorph144,Stimuli/BlurLevel5/BlurEditedMorph144.png,Stimuli/BlurLevel5/NumberedMorphs/BlurEditedMorph144.png,Stimuli/BlurLevel5/OriginalBlur/BlurEditedMorph144.png,Stimuli/BlurMorphTrio/EditedMorph144.png,None,None,,,,,0,0,0,0,0,71,71,143,,,,,,,,,,,,,,,,,,,,,,,95,72,1,140,-1.915111108,1.606969024,144,Experiment,,,,,,,,,3,3,141,-6,,,,,,,,,,,,,,,835.1611392,835.9068698,835.1611392,835.9068698,91.83673469,1583450518,1583450519,0.866261005,1583450515,1583450518,,,EK,1,20,female,undergrad,2020_Mar_05_1508,AdjustEyeTrack,3.1.5,60.01269869
111,Stimuli/Morph111.JPG,Stimuli/Morph111.png,Stimuli/BlurLevel5/BlurEditedMorph111,Stimuli/BlurLevel5/BlurEditedMorph111.png,Stimuli/BlurLevel5/NumberedMorphs/BlurEditedMorph111.png,Stimuli/BlurLevel5/OriginalBlur/BlurEditedMorph111.png,Stimuli/BlurMorphTrio/EditedMorph111.png,None,None,,,,,0,0,0,0,0,72,72,110,,,,,,,,,,,,,,,,,,,,,,,48,73,1,65,1.056545654,2.265769468,111,Experiment,,,,,,,,,86,86,25,25,,,,,,,,,,,,,,,839.4484763,840.1635368,839.4484763,840.1635368,65.98639456,1583450522,1583450523,1.349499941,1583450519,1583450522,,,EK,1,20,female,undergrad,2020_Mar_05_1508,AdjustEyeTrack,3.1.5,60.01269869
146,Stimuli/Morph146.JPG,Stimuli/Morph146.png,Stimuli/BlurLevel5/BlurEditedMorph146,Stimuli/BlurLevel5/BlurEditedMorph146.png,Stimuli/BlurLevel5/NumberedMorphs/BlurEditedMorph146.png,Stimuli/BlurLevel5/OriginalBlur/BlurEditedMorph146.png,Stimuli/BlurMorphTrio/EditedMorph146.png,None,None,,,,,0,0,0,0,0,73,73,145,,,,,,,,,,,,,,,,,,,,,,,57,74,1,288,0.772542486,-2.377641291,146,Experiment,,,,,,,,,59,147,-1,-1,,,,,,,,,,,,,,,844.2631063,844.9909384,844.2631063,844.9909384,98.63945578,1583450527,1583450530,2.918141127,1583450524,1583450527,,,EK,1,20,female,undergrad,2020_Mar_05_1508,AdjustEyeTrack,3.1.5,60.01269869
57,Stimuli/Morph57.JPG,Stimuli/Morph57.png,Stimuli/BlurLevel5/BlurEditedMorph57,Stimuli/BlurLevel5/BlurEditedMorph57.png,Stimuli/BlurLevel5/NumberedMorphs/BlurEditedMorph57.png,Stimuli/BlurLevel5/OriginalBlur/BlurEditedMorph57.png,Stimuli/BlurMorphTrio/EditedMorph57.png,010158right.gif,Stimuli/normal_thumbnails/57right.gif,,,,,0,0,0,0,0,74,74,56,,,,,,,,,,,,,,,,,,,,,,,28,75,1,60,1.25,2.165063509,57,Experiment,,,,,,,,,139,47,10,10,,,,,,,,,,,,,,,850.7087436,851.441725,850.7087436,851.441725,86.39455782,1583450533,1583450535,1.802803993,1583450530,1583450533,,,EK,1,20,female,undergrad,2020_Mar_05_1508,AdjustEyeTrack,3.1.5,60.01269869
27,Stimuli/Morph27.JPG,Stimuli/Morph27.png,Stimuli/BlurLevel5/BlurEditedMorph27,Stimuli/BlurLevel5/BlurEditedMorph27.png,Stimuli/BlurLevel5/NumberedMorphs/BlurEditedMorph27.png,Stimuli/BlurLevel5/OriginalBlur/BlurEditedMorph27.png,Stimuli/BlurMorphTrio/EditedMorph27.png,010072right.gif,Stimuli/normal_thumbnails/27right.gif,,,,,0,0,0,0,0,75,75,26,,,,,,,,,,,,,,,,,,,,,,,26,76,1,209,-2.186549268,-1.212024051,27,Experiment,,,,,,,,,68,11,16,16,,,,,,,,,,,,,,,855.8599317,856.5708677,855.8599317,856.5708677,78.23129252,1583450538,1583450541,2.598446846,1583450536,1583450538,,,EK,1,20,female,undergrad,2020_Mar_05_1508,AdjustEyeTrack,3.1.5,60.01269869
35,Stimuli/Morph35.JPG,Stimuli/Morph35.png,Stimuli/BlurLevel5/BlurEditedMorph35,Stimuli/BlurLevel5/BlurEditedMorph35.png,Stimuli/BlurLevel5/NumberedMorphs/BlurEditedMorph35.png,Stimuli/BlurLevel5/OriginalBlur/BlurEditedMorph35.png,Stimuli/BlurMorphTrio/EditedMorph35.png,010094right.gif,Stimuli/normal_thumbnails/35right.gif,,,,,0,0,0,0,0,76,76,34,,,,,,,,,,,,,,,,,,,,,,,73,77,1,109,-0.813920386,2.363796439,35,Experiment,,,,,,,,,106,24,11,11,,,,,,,,,,,,,,,861.8027493,862.5204081,861.8027493,862.5204081,85.03401361,1583450544,1583450546,1.967113018,1583450542,1583450544,,,EK,1,20,female,undergrad,2020_Mar_05_1508,AdjustEyeTrack,3.1.5,60.01269869
136,Stimuli/Morph136.JPG,Stimuli/Morph136.png,Stimuli/BlurLevel5/BlurEditedMorph136,Stimuli/BlurLevel5/BlurEditedMorph136.png,Stimuli/BlurLevel5/NumberedMorphs/BlurEditedMorph136.png,Stimuli/BlurLevel5/OriginalBlur/BlurEditedMorph136.png,Stimuli/BlurMorphTrio/EditedMorph136.png,None,None,,,,,0,0,0,0,0,77,77,135,,,,,,,,,,,,,,,,,,,,,,,91,78,1,343,2.39076189,-0.730929262,136,Experiment,,,,,,,,,93,15,121,-26,,,,,,,,,,,,,,,867.2777362,868.0173852,867.2777362,868.0173852,64.62585034,1583450550,1583450552,2.348278999,1583450547,1583450550,,,EK,1,20,female,undergrad,2020_Mar_05_1508,AdjustEyeTrack,3.1.5,60.01269869
124,Stimuli/Morph124.JPG,Stimuli/Morph124.png,Stimuli/BlurLevel5/BlurEditedMorph124,Stimuli/BlurLevel5/BlurEditedMorph124.png,Stimuli/BlurLevel5/NumberedMorphs/BlurEditedMorph124.png,Stimuli/BlurLevel5/OriginalBlur/BlurEditedMorph124.png,Stimuli/BlurMorphTrio/EditedMorph124.png,None,None,,,,,0,0,0,0,0,78,78,123,,,,,,,,,,,,,,,,,,,,,,,14,79,1,248,-0.936516484,-2.317959636,124,Experiment,,,,,,,,,21,124,0,0,,,,,,,,,,,,,,,873.1617603,873.9015862,873.1617603,873.9015862,100,1583450556,1583450557,1.462328911,1583450553,1583450556,,,EK,1,20,female,undergrad,2020_Mar_05_1508,AdjustEyeTrack,3.1.5,60.01269869
139,Stimuli/Morph139.JPG,Stimuli/Morph139.png,Stimuli/BlurLevel5/BlurEditedMorph139,Stimuli/BlurLevel5/BlurEditedMorph139.png,Stimuli/BlurLevel5/NumberedMorphs/BlurEditedMorph139.png,Stimuli/BlurLevel5/OriginalBlur/BlurEditedMorph139.png,Stimuli/BlurMorphTrio/EditedMorph139.png,None,None,,,,,0,0,0,0,0,79,79,138,,,,,,,,,,,,,,,,,,,,,,,3,80,1,16,2.40315424,0.68909339,139,Experiment,,,,,,,,,9,133,6,6,,,,,,,,,,,,,,,878.1777944,878.9127911,878.1777944,878.9127911,91.83673469,1583450561,1583450563,1.882121325,1583450558,1583450561,,,EK,1,20,female,undergrad,2020_Mar_05_1508,AdjustEyeTrack,3.1.5,60.01269869
33,Stimuli/Morph33.JPG,Stimuli/Morph33.png,Stimuli/BlurLevel5/BlurEditedMorph33,Stimuli/BlurLevel5/BlurEditedMorph33.png,Stimuli/BlurLevel5/NumberedMorphs/BlurEditedMorph33.png,Stimuli/BlurLevel5/OriginalBlur/BlurEditedMorph33.png,Stimuli/BlurMorphTrio/EditedMorph33.png,010089right.gif,Stimuli/normal_thumbnails/33right.gif,,,,,0,0,0,0,0,80,80,32,,,,,,,,,,,,,,,,,,,,,,,90,81,1,171,-2.469220851,0.391086163,33,Experiment,,,,,,,,,72,28,5,5,,,,,,,,,,,,,,,883.4213337,884.1354388,883.4213337,884.1354388,93.19727891,1583450566,1583450570,4.187093973,1583450563,1583450566,,,EK,1,20,female,undergrad,2020_Mar_05_1508,AdjustEyeTrack,3.1.5,60.01269869
31,Stimuli/Morph31.JPG,Stimuli/Morph31.png,Stimuli/BlurLevel5/BlurEditedMorph31,Stimuli/BlurLevel5/BlurEditedMorph31.png,Stimuli/BlurLevel5/NumberedMorphs/BlurEditedMorph31.png,Stimuli/BlurLevel5/OriginalBlur/BlurEditedMorph31.png,Stimuli/BlurMorphTrio/EditedMorph31.png,010079right.gif,Stimuli/normal_thumbnails/31right.gif,,,,,0,0,0,0,0,81,81,30,,,,,,,,,,,,,,,,,,,,,,,99,82,1,167,-2.435925162,0.562377636,31,Experiment,,,,,,,,,136,21,10,10,,,,,,,,,,,,,,,890.8159505,891.5171698,890.8159505,891.5171698,86.39455782,1583450573,1583450575,1.865705967,1583450571,1583450573,,,EK,1,20,female,undergrad,2020_Mar_05_1508,AdjustEyeTrack,3.1.5,60.01269869
119,Stimuli/Morph119.JPG,Stimuli/Morph119.png,Stimuli/BlurLevel5/BlurEditedMorph119,Stimuli/BlurLevel5/BlurEditedMorph119.png,Stimuli/BlurLevel5/NumberedMorphs/BlurEditedMorph119.png,Stimuli/BlurLevel5/OriginalBlur/BlurEditedMorph119.png,Stimuli/BlurMorphTrio/EditedMorph119.png,None,None,,,,,0,0,0,0,0,82,82,118,,,,,,,,,,,,,,,,,,,,,,,37,83,1,171,-2.469220851,0.391086163,119,Experiment,,,,,,,,,38,114,5,5,,,,,,,,,,,,,,,896.0553075,896.7766888,896.0553075,896.7766888,93.19727891,1583450579,1583450581,2.718982697,1583450576,1583450579,,,EK,1,20,female,undergrad,2020_Mar_05_1508,AdjustEyeTrack,3.1.5,60.01269869
107,Stimuli/Morph107.JPG,Stimuli/Morph107.png,Stimuli/BlurLevel5/BlurEditedMorph107,Stimuli/BlurLevel5/BlurEditedMorph107.png,Stimuli/BlurLevel5/NumberedMorphs/BlurEditedMorph107.png,Stimuli/BlurLevel5/OriginalBlur/BlurEditedMorph107.png,Stimuli/BlurMorphTrio/EditedMorph107.png,None,None,,,,,0,0,0,0,0,83,83,106,,,,,,,,,,,,,,,,,,,,,,,73,84,1,52,1.539153688,1.970026884,107,Experiment,,,,,,,,,36,94,13,13,,,,,,,,,,,,,,,902.0916371,902.8044682,902.0916371,902.8044682,82.31292517,1583450585,1583450588,3.382360935,1583450582,1583450585,,,EK,1,20,female,undergrad,2020_Mar_05_1508,AdjustEyeTrack,3.1.5,60.01269869
89,Stimuli/Morph89.JPG,Stimuli/Morph89.png,Stimuli/BlurLevel5/BlurEditedMorph89,Stimuli/BlurLevel5/BlurEditedMorph89.png,Stimuli/BlurLevel5/NumberedMorphs/BlurEditedMorph89.png,Stimuli/BlurLevel5/OriginalBlur/BlurEditedMorph89.png,Stimuli/BlurMorphTrio/EditedMorph89.png,020273right.gif,Stimuli/normal_thumbnails/89right.gif,,,,,0,0,0,0,0,84,84,88,,,,,,,,,,,,,,,,,,,,,,,7,85,1,224,-1.798349501,-1.736645926,89,Experiment,,,,,,,,,36,98,-9,-9,,,,,,,,,,,,,,,908.8213666,909.5338609,908.8213666,909.5338609,87.75510204,1583450591,1583450594,2.548205137,1583450589,1583450591,,,EK,1,20,female,undergrad,2020_Mar_05_1508,AdjustEyeTrack,3.1.5,60.01269869
114,Stimuli/Morph114.JPG,Stimuli/Morph114.png,Stimuli/BlurLevel5/BlurEditedMorph114,Stimuli/BlurLevel5/BlurEditedMorph114.png,Stimuli/BlurLevel5/NumberedMorphs/BlurEditedMorph114.png,Stimuli/BlurLevel5/OriginalBlur/BlurEditedMorph114.png,Stimuli/BlurMorphTrio/EditedMorph114.png,None,None,,,,,1,0,1,0,0,0,0,113,,,,,,,,,,,,,,,,,,,,,,,6,1,2,62,1.173678907,2.207368982,114,Experiment,,,,,,,,,110,105,9,9,,,,,,,,,,,,,,,938.9379941,939.6894599,938.9379941,939.6894599,87.75510204,1583450622,1583450627,5.41799593,1583450619,1583450622,space,23.38183809,EK,1,20,female,undergrad,2020_Mar_05_1508,AdjustEyeTrack,3.1.5,60.01269869
146,Stimuli/Morph146.JPG,Stimuli/Morph146.png,Stimuli/BlurLevel5/BlurEditedMorph146,Stimuli/BlurLevel5/BlurEditedMorph146.png,Stimuli/BlurLevel5/NumberedMorphs/BlurEditedMorph146.png,Stimuli/BlurLevel5/OriginalBlur/BlurEditedMorph146.png,Stimuli/BlurMorphTrio/EditedMorph146.png,None,None,,,,,1,0,1,0,0,1,1,145,,,,,,,,,,,,,,,,,,,,,,,54,2,2,315,1.767766953,-1.767766953,146,Experiment,,,,,,,,,52,1,145,-2,,,,,,,,,,,,,,,947.7524919,948.462265,947.7524919,948.462265,97.27891156,1583450630,1583450633,2.69015336,1583450628,1583450630,,,EK,1,20,female,undergrad,2020_Mar_05_1508,AdjustEyeTrack,3.1.5,60.01269869
96,Stimuli/Morph96.JPG,Stimuli/Morph96.png,Stimuli/BlurLevel5/BlurEditedMorph96,Stimuli/BlurLevel5/BlurEditedMorph96.png,Stimuli/BlurLevel5/NumberedMorphs/BlurEditedMorph96.png,Stimuli/BlurLevel5/OriginalBlur/BlurEditedMorph96.png,Stimuli/BlurMorphTrio/EditedMorph96.png,020292right.gif,Stimuli/normal_thumbnails/96right.gif,,,,,1,0,1,0,0,2,2,95,,,,,,,,,,,,,,,,,,,,,,,87,3,2,77,0.562377636,2.435925162,96,Experiment,,,,,,,,,9,96,0,0,,,,,,,,,,,,,,,953.8121566,954.5283019,953.8121566,954.5283019,100,1583450636,1583450639,2.639481783,1583450634,1583450636,,,EK,1,20,female,undergrad,2020_Mar_05_1508,AdjustEyeTrack,3.1.5,60.01269869
77,Stimuli/Morph77.JPG,Stimuli/Morph77.png,Stimuli/BlurLevel5/BlurEditedMorph77,Stimuli/BlurLevel5/BlurEditedMorph77.png,Stimuli/BlurLevel5/NumberedMorphs/BlurEditedMorph77.png,Stimuli/BlurLevel5/OriginalBlur/BlurEditedMorph77.png,Stimuli/BlurMorphTrio/EditedMorph77.png,020235right.gif,Stimuli/normal_thumbnails/77right.gif,,,,,1,0,1,0,0,3,3,76,,,,,,,,,,,,,,,,,,,,,,,55,4,2,234,-1.469463131,-2.022542486,77,Experiment,,,,,,,,,103,44,33,33,,,,,,,,,,,,,,,959.7910281,960.4964881,959.7910281,960.4964881,55.10204082,1583450642,1583450645,2.686998129,1583450640,1583450642,,,EK,1,20,female,undergrad,2020_Mar_05_1508,AdjustEyeTrack,3.1.5,60.01269869
41,Stimuli/Morph41.JPG,Stimuli/Morph41.png,Stimuli/BlurLevel5/BlurEditedMorph41,Stimuli/BlurLevel5/BlurEditedMorph41.png,Stimuli/BlurLevel5/NumberedMorphs/BlurEditedMorph41.png,Stimuli/BlurLevel5/OriginalBlur/BlurEditedMorph41.png,Stimuli/BlurMorphTrio/EditedMorph41.png,010112right.gif,Stimuli/normal_thumbnails/41right.gif,,,,,1,0,1,0,0,4,4,40,,,,,,,,,,,,,,,,,,,,,,,9,5,2,212,-2.12012024,-1.324798161,41,Experiment,,,,,,,,,129,35,6,6,,,,,,,,,,,,,,,965.5609423,966.2474735,965.5609423,966.2474735,91.83673469,1583450648,1583450650,1.552289009,1583450646,1583450648,,,EK,1,20,female,undergrad,2020_Mar_05_1508,AdjustEyeTrack,3.1.5,60.01269869
128,Stimuli/Morph128.JPG,Stimuli/Morph128.png,Stimuli/BlurLevel5/BlurEditedMorph128,Stimuli/BlurLevel5/BlurEditedMorph128.png,Stimuli/BlurLevel5/NumberedMorphs/BlurEditedMorph128.png,Stimuli/BlurLevel5/OriginalBlur/BlurEditedMorph128.png,Stimuli/BlurMorphTrio/EditedMorph128.png,None,None,,,,,1,0,1,0,0,5,5,127,,,,,,,,,,,,,,,,,,,,,,,34,6,2,167,-2.435925162,0.562377636,128,Experiment,,,,,,,,,78,116,12,12,,,,,,,,,,,,,,,970.5877729,971.312322,970.5877729,971.312322,83.67346939,1583450653,1583450655,1.547734022,1583450650,1583450653,,,EK,1,20,female,undergrad,2020_Mar_05_1508,AdjustEyeTrack,3.1.5,60.01269869
84,Stimuli/Morph84.JPG,Stimuli/Morph84.png,Stimuli/BlurLevel5/BlurEditedMorph84,Stimuli/BlurLevel5/BlurEditedMorph84.png,Stimuli/BlurLevel5/NumberedMorphs/BlurEditedMorph84.png,Stimuli/BlurLevel5/OriginalBlur/BlurEditedMorph84.png,Stimuli/BlurMorphTrio/EditedMorph84.png,020261right.gif,Stimuli/normal_thumbnails/84right.gif,,,,,1,0,1,0,0,6,6,83,,,,,,,,,,,,,,,,,,,,,,,10,7,2,117,-1.134976249,2.22751631,84,Experiment,,,,,,,,,25,93,-9,-9,,,,,,,,,,,,,,,975.5055128,976.2126026,975.5055128,976.2126026,87.75510204,1583450658,1583450660,2.136974096,1583450655,1583450658,,,EK,1,20,female,undergrad,2020_Mar_05_1508,AdjustEyeTrack,3.1.5,60.01269869
44,Stimuli/Morph44.JPG,Stimuli/Morph44.png,Stimuli/BlurLevel5/BlurEditedMorph44,Stimuli/BlurLevel5/BlurEditedMorph44.png,Stimuli/BlurLevel5/NumberedMorphs/BlurEditedMorph44.png,Stimuli/BlurLevel5/OriginalBlur/BlurEditedMorph44.png,Stimuli/BlurMorphTrio/EditedMorph44.png,010126right.gif,Stimuli/normal_thumbnails/44right.gif,,,,,1,0,1,0,0,7,7,43,,,,,,,,,,,,,,,,,,,,,,,55,8,2,151,-2.186549268,1.212024051,44,Experiment,,,,,,,,,68,46,-2,-2,,,,,,,,,,,,,,,980.9550202,981.6682069,980.9550202,981.6682069,97.27891156,1583450664,1583450665,1.385525942,1583450661,1583450664,,,EK,1,20,female,undergrad,2020_Mar_05_1508,AdjustEyeTrack,3.1.5,60.01269869
45,Stimuli/Morph45.JPG,Stimuli/Morph45.png,Stimuli/BlurLevel5/BlurEditedMorph45,Stimuli/BlurLevel5/BlurEditedMorph45.png,Stimuli/BlurLevel5/NumberedMorphs/BlurEditedMorph45.png,Stimuli/BlurLevel5/OriginalBlur/BlurEditedMorph45.png,Stimuli/BlurMorphTrio/EditedMorph45.png,010127right.gif,Stimuli/normal_thumbnails/45right.gif,,,,,1,0,1,0,0,8,8,44,,,,,,,,,,,,,,,,,,,,,,,62,9,2,212,-2.12012024,-1.324798161,45,Experiment,,,,,,,,,117,60,-15,-15,,,,,,,,,,,,,,,985.8231738,986.5340577,985.8231738,986.5340577,79.59183673,1583450668,1583450670,1.866307974,1583450665,1583450668,,,EK,1,20,female,undergrad,2020_Mar_05_1508,AdjustEyeTrack,3.1.5,60.01269869
121,Stimuli/Morph121.JPG,Stimuli/Morph121.png,Stimuli/BlurLevel5/BlurEditedMorph121,Stimuli/BlurLevel5/BlurEditedMorph121.png,Stimuli/BlurLevel5/NumberedMorphs/BlurEditedMorph121.png,Stimuli/BlurLevel5/OriginalBlur/BlurEditedMorph121.png,Stimuli/BlurMorphTrio/EditedMorph121.png,None,None,,,,,1,0,1,0,0,9,9,120,,,,,,,,,,,,,,,,,,,,,,,69,10,2,274,0.174391184,-2.493910126,121,Experiment,,,,,,,,,85,122,-1,-1,,,,,,,,,,,,,,,991.254454,991.9883853,991.254454,991.9883853,98.63945578,1583450674,1583450676,2.016319036,1583450671,1583450674,,,EK,1,20,female,undergrad,2020_Mar_05_1508,AdjustEyeTrack,3.1.5,60.01269869
75,Stimuli/Morph75.JPG,Stimuli/Morph75.png,Stimuli/BlurLevel5/BlurEditedMorph75,Stimuli/BlurLevel5/BlurEditedMorph75.png,Stimuli/BlurLevel5/NumberedMorphs/BlurEditedMorph75.png,Stimuli/BlurLevel5/OriginalBlur/BlurEditedMorph75.png,Stimuli/BlurMorphTrio/EditedMorph75.png,020233right.gif,Stimuli/normal_thumbnails/75right.gif,,,,,1,0,1,0,0,10,10,74,,,,,,,,,,,,,,,,,,,,,,,54,11,2,92,-0.087248742,2.498477068,75,Experiment,,,,,,,,,45,78,-3,-3,,,,,,,,,,,,,,,996.6495041,997.3614448,996.6495041,997.3614448,95.91836735,1583450679,1583450681,1.465472937,1583450676,1583450679,,,EK,1,20,female,undergrad,2020_Mar_05_1508,AdjustEyeTrack,3.1.5,60.01269869
50,Stimuli/Morph50.JPG,Stimuli/Morph50.png,Stimuli/BlurLevel5/BlurEditedMorph50,Stimuli/BlurLevel5/BlurEditedMorph50.png,Stimuli/BlurLevel5/NumberedMorphs/BlurEditedMorph50.png,Stimuli/BlurLevel5/OriginalBlur/BlurEditedMorph50.png,Stimuli/BlurMorphTrio/EditedMorph50.png,010142right.gif,Stimuli/normal_thumbnails/50right.gif,,,,,1,0,1,0,0,11,11,49,,,,,,,,,,,,,,,,,,,,,,,25,12,2,30,2.165063509,1.25,50,Experiment,,,,,,,,,119,59,-9,-9,,,,,,,,,,,,,,,1001.417047,1002.13343,1001.417047,1002.13343,87.75510204,1583450684,1583450686,2.062860966,1583450681,1583450684,,,EK,1,20,female,undergrad,2020_Mar_05_1508,AdjustEyeTrack,3.1.5,60.01269869
49,Stimuli/Morph49.JPG,Stimuli/Morph49.png,Stimuli/BlurLevel5/BlurEditedMorph49,Stimuli/BlurLevel5/BlurEditedMorph49.png,Stimuli/BlurLevel5/NumberedMorphs/BlurEditedMorph49.png,Stimuli/BlurLevel5/OriginalBlur/BlurEditedMorph49.png,Stimuli/BlurMorphTrio/EditedMorph49.png,010135right.gif,Stimuli/normal_thumbnails/49right.gif,,,,,1,0,1,0,0,12,12,48,,,,,,,,,,,,,,,,,,,,,,,23,13,2,207,-2.22751631,-1.134976249,49,Experiment,,,,,,,,,59,59,-10,-10,,,,,,,,,,,,,,,1006.857781,1007.567209,1006.857781,1007.567209,86.39455782,1583450689,1583450690,0.680099964,1583450687,1583450689,,,EK,1,20,female,undergrad,2020_Mar_05_1508,AdjustEyeTrack,3.1.5,60.01269869
129,Stimuli/Morph129.JPG,Stimuli/Morph129.png,Stimuli/BlurLevel5/BlurEditedMorph129,Stimuli/BlurLevel5/BlurEditedMorph129.png,Stimuli/BlurLevel5/NumberedMorphs/BlurEditedMorph129.png,Stimuli/BlurLevel5/OriginalBlur/BlurEditedMorph129.png,Stimuli/BlurMorphTrio/EditedMorph129.png,None,None,,,,,1,0,1,0,0,13,13,128,,,,,,,,,,,,,,,,,,,,,,,49,14,2,344,2.40315424,-0.68909339,129,Experiment,,,,,,,,,14,86,43,43,,,,,,,,,,,,,,,1010.970295,1011.695723,1010.970295,1011.695723,41.49659864,1583450694,1583450696,2.811410904,1583450691,1583450694,,,EK,1,20,female,undergrad,2020_Mar_05_1508,AdjustEyeTrack,3.1.5,60.01269869
92,Stimuli/Morph92.JPG,Stimuli/Morph92.png,Stimuli/BlurLevel5/BlurEditedMorph92,Stimuli/BlurLevel5/BlurEditedMorph92.png,Stimuli/BlurLevel5/NumberedMorphs/BlurEditedMorph92.png,Stimuli/BlurLevel5/OriginalBlur/BlurEditedMorph92.png,Stimuli/BlurMorphTrio/EditedMorph92.png,020277right.gif,Stimuli/normal_thumbnails/92right.gif,,,,,1,0,1,0,0,14,14,91,,,,,,,,,,,,,,,,,,,,,,,12,15,2,18,2.377641291,0.772542486,92,Experiment,,,,,,,,,23,103,-11,-11,,,,,,,,,,,,,,,1017.395439,1018.125724,1017.395439,1018.125724,85.03401361,1583450700,1583450703,2.489012957,1583450697,1583450700,,,EK,1,20,female,undergrad,2020_Mar_05_1508,AdjustEyeTrack,3.1.5,60.01269869
120,Stimuli/Morph120.JPG,Stimuli/Morph120.png,Stimuli/BlurLevel5/BlurEditedMorph120,Stimuli/BlurLevel5/BlurEditedMorph120.png,Stimuli/BlurLevel5/NumberedMorphs/BlurEditedMorph120.png,Stimuli/BlurLevel5/OriginalBlur/BlurEditedMorph120.png,Stimuli/BlurMorphTrio/EditedMorph120.png,None,None,,,,,1,0,1,0,0,15,15,119,,,,,,,,,,,,,,,,,,,,,,,98,16,2,26,2.246985116,1.095927867,120,Experiment,,,,,,,,,42,99,21,21,,,,,,,,,,,,,,,1023.409971,1024.144213,1023.409971,1024.144213,71.42857143,1583450706,1583450708,2.138934135,1583450703,1583450706,,,EK,1,20,female,undergrad,2020_Mar_05_1508,AdjustEyeTrack,3.1.5,60.01269869
123,Stimuli/Morph123.JPG,Stimuli/Morph123.png,Stimuli/BlurLevel5/BlurEditedMorph123,Stimuli/BlurLevel5/BlurEditedMorph123.png,Stimuli/BlurLevel5/NumberedMorphs/BlurEditedMorph123.png,Stimuli/BlurLevel5/OriginalBlur/BlurEditedMorph123.png,Stimuli/BlurMorphTrio/EditedMorph123.png,None,None,,,,,1,0,1,0,0,16,16,122,,,,,,,,,,,,,,,,,,,,,,,68,17,2,226,-1.736645926,-1.798349501,123,Experiment,,,,,,,,,144,110,13,13,,,,,,,,,,,,,,,1028.976844,1029.694667,1028.976844,1029.694667,82.31292517,1583450712,1583450715,3.050432682,1583450709,1583450712,,,EK,1,20,female,undergrad,2020_Mar_05_1508,AdjustEyeTrack,3.1.5,60.01269869
107,Stimuli/Morph107.JPG,Stimuli/Morph107.png,Stimuli/BlurLevel5/BlurEditedMorph107,Stimuli/BlurLevel5/BlurEditedMorph107.png,Stimuli/BlurLevel5/NumberedMorphs/BlurEditedMorph107.png,Stimuli/BlurLevel5/OriginalBlur/BlurEditedMorph107.png,Stimuli/BlurMorphTrio/EditedMorph107.png,None,None,,,,,1,0,1,0,0,17,17,106,,,,,,,,,,,,,,,,,,,,,,,95,18,2,166,-2.425739316,0.604804739,107,Experiment,,,,,,,,,16,104,3,3,,,,,,,,,,,,,,,1035.709298,1036.439677,1035.709298,1036.439677,95.91836735,1583450718,1583450721,2.683491945,1583450715,1583450718,,,EK,1,20,female,undergrad,2020_Mar_05_1508,AdjustEyeTrack,3.1.5,60.01269869
64,Stimuli/Morph64.JPG,Stimuli/Morph64.png,Stimuli/BlurLevel5/BlurEditedMorph64,Stimuli/BlurLevel5/BlurEditedMorph64.png,Stimuli/BlurLevel5/NumberedMorphs/BlurEditedMorph64.png,Stimuli/BlurLevel5/OriginalBlur/BlurEditedMorph64.png,Stimuli/BlurMorphTrio/EditedMorph64.png,020208right.gif,Stimuli/normal_thumbnails/64right.gif,,,,,1,0,1,0,0,18,18,63,,,,,,,,,,,,,,,,,,,,,,,57,19,2,37,1.996588775,1.504537558,64,Experiment,,,,,,,,,28,60,4,4,,,,,,,,,,,,,,,1041.912168,1042.636302,1041.912168,1042.636302,94.55782313,1583450725,1583450728,2.987754822,1583450722,1583450725,,,EK,1,20,female,undergrad,2020_Mar_05_1508,AdjustEyeTrack,3.1.5,60.01269869
47,Stimuli/Morph47.JPG,Stimuli/Morph47.png,Stimuli/BlurLevel5/BlurEditedMorph47,Stimuli/BlurLevel5/BlurEditedMorph47.png,Stimuli/BlurLevel5/NumberedMorphs/BlurEditedMorph47.png,Stimuli/BlurLevel5/OriginalBlur/BlurEditedMorph47.png,Stimuli/BlurMorphTrio/EditedMorph47.png,010130right.gif,Stimuli/normal_thumbnails/47right.gif,,,,,1,0,1,0,0,19,19,46,,,,,,,,,,,,,,,,,,,,,,,87,20,2,120,-1.25,2.165063509,47,Experiment,,,,,,,,,37,37,10,10,,,,,,,,,,,,,,,1048.26942,1048.976918,1048.26942,1048.976918,86.39455782,1583450731,1583450732,0.982861042,1583450728,1583450731,,,EK,1,20,female,undergrad,2020_Mar_05_1508,AdjustEyeTrack,3.1.5,60.01269869
25,Stimuli/Morph25.JPG,Stimuli/Morph25.png,Stimuli/BlurLevel5/BlurEditedMorph25,Stimuli/BlurLevel5/BlurEditedMorph25.png,Stimuli/BlurLevel5/NumberedMorphs/BlurEditedMorph25.png,Stimuli/BlurLevel5/OriginalBlur/BlurEditedMorph25.png,Stimuli/BlurMorphTrio/EditedMorph25.png,010069right.gif,Stimuli/normal_thumbnails/25right.gif,,,,,1,0,1,0,0,20,20,24,,,,,,,,,,,,,,,,,,,,,,,71,21,2,336,2.283863644,-1.016841608,25,Experiment,,,,,,,,,106,28,-3,-3,,,,,,,,,,,,,,,1052.52912,1053.239269,1052.52912,1053.239269,95.91836735,1583450735,1583450738,2.354503393,1583450732,1583450735,,,EK,1,20,female,undergrad,2020_Mar_05_1508,AdjustEyeTrack,3.1.5,60.01269869
54,Stimuli/Morph54.JPG,Stimuli/Morph54.png,Stimuli/BlurLevel5/BlurEditedMorph54,Stimuli/BlurLevel5/BlurEditedMorph54.png,Stimuli/BlurLevel5/NumberedMorphs/BlurEditedMorph54.png,Stimuli/BlurLevel5/OriginalBlur/BlurEditedMorph54.png,Stimuli/BlurMorphTrio/EditedMorph54.png,010150right.gif,Stimuli/normal_thumbnails/54right.gif,,,,,1,0,1,0,0,21,21,53,,,,,,,,,,,,,,,,,,,,,,,44,22,2,149,-2.142918252,1.287595187,54,Experiment,,,,,,,,,131,50,4,4,,,,,,,,,,,,,,,1058.296117,1059.010269,1058.296117,1059.010269,94.55782313,1583450741,1583450744,3.313504934,1583450738,1583450741,,,EK,1,20,female,undergrad,2020_Mar_05_1508,AdjustEyeTrack,3.1.5,60.01269869
109,Stimuli/Morph109.JPG,Stimuli/Morph109.png,Stimuli/BlurLevel5/BlurEditedMorph109,Stimuli/BlurLevel5/BlurEditedMorph109.png,Stimuli/BlurLevel5/NumberedMorphs/BlurEditedMorph109.png,Stimuli/BlurLevel5/OriginalBlur/BlurEditedMorph109.png,Stimuli/BlurMorphTrio/EditedMorph109.png,None,None,,,,,1,0,1,0,0,22,22,108,,,,,,,,,,,,,,,,,,,,,,,44,23,2,60,1.25,2.165063509,109,Experiment,,,,,,,,,6,101,8,8,,,,,,,,,,,,,,,1064.821573,1065.547549,1064.821573,1065.547549,89.11564626,1583450747,1583450750,2.333791018,1583450745,1583450747,,,EK,1,20,female,undergrad,2020_Mar_05_1508,AdjustEyeTrack,3.1.5,60.01269869
122,Stimuli/Morph122.JPG,Stimuli/Morph122.png,Stimuli/BlurLevel5/BlurEditedMorph122,Stimuli/BlurLevel5/BlurEditedMorph122.png,Stimuli/BlurLevel5/NumberedMorphs/BlurEditedMorph122.png,Stimuli/BlurLevel5/OriginalBlur/BlurEditedMorph122.png,Stimuli/BlurMorphTrio/EditedMorph122.png,None,None,,,,,1,0,1,0,0,23,23,121,,,,,,,,,,,,,,,,,,,,,,,77,24,2,274,0.174391184,-2.493910126,122,Experiment,,,,,,,,,89,117,5,5,,,,,,,,,,,,,,,1070.49191,1071.214084,1070.49191,1071.214084,93.19727891,1583450753,1583450755,1.432615042,1583450750,1583450753,,,EK,1,20,female,undergrad,2020_Mar_05_1508,AdjustEyeTrack,3.1.5,60.01269869
78,Stimuli/Morph78.JPG,Stimuli/Morph78.png,Stimuli/BlurLevel5/BlurEditedMorph78,Stimuli/BlurLevel5/BlurEditedMorph78.png,Stimuli/BlurLevel5/NumberedMorphs/BlurEditedMorph78.png,Stimuli/BlurLevel5/OriginalBlur/BlurEditedMorph78.png,Stimuli/BlurMorphTrio/EditedMorph78.png,020238right.gif,Stimuli/normal_thumbnails/78right.gif,,,,,1,0,1,0,0,24,24,77,,,,,,,,,,,,,,,,,,,,,,,81,25,2,237,-1.361597588,-2.09667642,78,Experiment,,,,,,,,,23,105,-27,-27,,,,,,,,,,,,,,,1075.19514,1075.904751,1075.19514,1075.904751,63.26530612,1583450758,1583450763,5.362215042,1583450755,1583450758,,,EK,1,20,female,undergrad,2020_Mar_05_1508,AdjustEyeTrack,3.1.5,60.01269869
72,Stimuli/Morph72.JPG,Stimuli/Morph72.png,Stimuli/BlurLevel5/BlurEditedMorph72,Stimuli/BlurLevel5/BlurEditedMorph72.png,Stimuli/BlurLevel5/NumberedMorphs/BlurEditedMorph72.png,Stimuli/BlurLevel5/OriginalBlur/BlurEditedMorph72.png,Stimuli/BlurMorphTrio/EditedMorph72.png,020227right.gif,Stimuli/normal_thumbnails/72right.gif,,,,,1,0,1,0,0,25,25,71,,,,,,,,,,,,,,,,,,,,,,,70,26,2,1,2.499619238,0.043631016,72,Experiment,,,,,,,,,26,75,-3,-3,,,,,,,,,,,,,,,1083.806079,1084.516357,1083.806079,1084.516357,95.91836735,1583450766,1583450770,3.599983215,1583450764,1583450766,,,EK,1,20,female,undergrad,2020_Mar_05_1508,AdjustEyeTrack,3.1.5,60.01269869
74,Stimuli/Morph74.JPG,Stimuli/Morph74.png,Stimuli/BlurLevel5/BlurEditedMorph74,Stimuli/BlurLevel5/BlurEditedMorph74.png,Stimuli/BlurLevel5/NumberedMorphs/BlurEditedMorph74.png,Stimuli/BlurLevel5/OriginalBlur/BlurEditedMorph74.png,Stimuli/BlurMorphTrio/EditedMorph74.png,020232right.gif,Stimuli/normal_thumbnails/74right.gif,,,,,1,0,1,0,0,26,26,73,,,,,,,,,,,,,,,,,,,,,,,95,27,2,143,-1.996588775,1.504537558,74,Experiment,,,,,,,,,44,76,-2,-2,,,,,,,,,,,,,,,1091.065445,1091.793085,1091.065445,1091.793085,97.27891156,1583450774,1583450777,3.119011164,1583450771,1583450774,,,EK,1,20,female,undergrad,2020_Mar_05_1508,AdjustEyeTrack,3.1.5,60.01269869
104,Stimuli/Morph104.JPG,Stimuli/Morph104.png,Stimuli/BlurLevel5/BlurEditedMorph104,Stimuli/BlurLevel5/BlurEditedMorph104.png,Stimuli/BlurLevel5/NumberedMorphs/BlurEditedMorph104.png,Stimuli/BlurLevel5/OriginalBlur/BlurEditedMorph104.png,Stimuli/BlurMorphTrio/EditedMorph104.png,None,None,,,,,1,0,1,0,0,27,27,103,,,,,,,,,,,,,,,,,,,,,,,96,28,2,142,-1.970026884,1.539153688,104,Experiment,,,,,,,,,51,100,4,4,,,,,,,,,,,,,,,1098.212586,1098.964262,1098.212586,1098.964262,94.55782313,1583450781,1583450784,3.215475798,1583450777,1583450781,,,EK,1,20,female,undergrad,2020_Mar_05_1508,AdjustEyeTrack,3.1.5,60.01269869
3,Stimuli/Morph3.JPG,Stimuli/Morph3.png,Stimuli/BlurLevel5/BlurEditedMorph3,Stimuli/BlurLevel5/BlurEditedMorph3.png,Stimuli/BlurLevel5/NumberedMorphs/BlurEditedMorph3.png,Stimuli/BlurLevel5/OriginalBlur/BlurEditedMorph3.png,Stimuli/BlurMorphTrio/EditedMorph3.png,010009right.gif,Stimuli/normal_thumbnails/3right.gif,,,,,1,0,1,0,0,28,28,2,,,,,,,,,,,,,,,,,,,,,,,76,29,2,126,-1.469463131,2.022542486,3,Experiment,,,,,,,,,33,2,1,1,,,,,,,,,,,,,,,1104.552743,1105.237424,1104.552743,1105.237424,98.63945578,1583450787,1583450790,3.233221769,1583450785,1583450787,,,EK,1,20,female,undergrad,2020_Mar_05_1508,AdjustEyeTrack,3.1.5,60.01269869
29,Stimuli/Morph29.JPG,Stimuli/Morph29.png,Stimuli/BlurLevel5/BlurEditedMorph29,Stimuli/BlurLevel5/BlurEditedMorph29.png,Stimuli/BlurLevel5/NumberedMorphs/BlurEditedMorph29.png,Stimuli/BlurLevel5/OriginalBlur/BlurEditedMorph29.png,Stimuli/BlurMorphTrio/EditedMorph29.png,010074right.gif,Stimuli/normal_thumbnails/29right.gif,,,,,1,0,1,0,0,29,29,28,,,,,,,,,,,,,,,,,,,,,,,56,30,2,181,-2.499619238,-0.043631016,29,Experiment,,,,,,,,,146,26,3,3,,,,,,,,,,,,,,,1111.321785,1112.045688,1111.321785,1112.045688,95.91836735,1583450794,1583450795,1.284649134,1583450791,1583450794,,,EK,1,20,female,undergrad,2020_Mar_05_1508,AdjustEyeTrack,3.1.5,60.01269869
30,Stimuli/Morph30.JPG,Stimuli/Morph30.png,Stimuli/BlurLevel5/BlurEditedMorph30,Stimuli/BlurLevel5/BlurEditedMorph30.png,Stimuli/BlurLevel5/NumberedMorphs/BlurEditedMorph30.png,Stimuli/BlurLevel5/OriginalBlur/BlurEditedMorph30.png,Stimuli/BlurMorphTrio/EditedMorph30.png,010076right.gif,Stimuli/normal_thumbnails/30right.gif,,,,,1,0,1,0,0,30,30,29,,,,,,,,,,,,,,,,,,,,,,,94,31,2,22,2.317959636,0.936516484,30,Experiment,,,,,,,,,57,26,4,4,,,,,,,,,,,,,,,1116.216895,1116.9622,1116.216895,1116.9622,94.55782313,1583450799,1583450803,3.649783134,1583450796,1583450799,,,EK,1,20,female,undergrad,2020_Mar_05_1508,AdjustEyeTrack,3.1.5,60.01269869
144,Stimuli/Morph144.JPG,Stimuli/Morph144.png,Stimuli/BlurLevel5/BlurEditedMorph144,Stimuli/BlurLevel5/BlurEditedMorph144.png,Stimuli/BlurLevel5/NumberedMorphs/BlurEditedMorph144.png,Stimuli/BlurLevel5/OriginalBlur/BlurEditedMorph144.png,Stimuli/BlurMorphTrio/EditedMorph144.png,None,None,,,,,1,0,1,0,0,31,31,143,,,,,,,,,,,,,,,,,,,,,,,100,32,2,231,-1.573300978,-1.942864904,144,Experiment,,,,,,,,,9,144,0,0,,,,,,,,,,,,,,,1123.28166,1123.988186,1123.28166,1123.988186,100,1583450806,1583450808,2.08477211,1583450803,1583450806,,,EK,1,20,female,undergrad,2020_Mar_05_1508,AdjustEyeTrack,3.1.5,60.01269869
7,Stimuli/Morph7.JPG,Stimuli/Morph7.png,Stimuli/BlurLevel5/BlurEditedMorph7,Stimuli/BlurLevel5/BlurEditedMorph7.png,Stimuli/BlurLevel5/NumberedMorphs/BlurEditedMorph7.png,Stimuli/BlurLevel5/OriginalBlur/BlurEditedMorph7.png,Stimuli/BlurMorphTrio/EditedMorph7.png,010013right.gif,Stimuli/normal_thumbnails/7right.gif,,,,,1,0,1,0,0,32,32,6,,,,,,,,,,,,,,,,,,,,,,,95,33,2,259,-0.477022488,-2.454067959,7,Experiment,,,,,,,,,22,139,-132,15,,,,,,,,,,,,,,,1129.005892,1129.765397,1129.005892,1129.765397,79.59183673,1583450812,1583450814,2.015799999,1583450808,1583450812,,,EK,1,20,female,undergrad,2020_Mar_05_1508,AdjustEyeTrack,3.1.5,60.01269869
90,Stimuli/Morph90.JPG,Stimuli/Morph90.png,Stimuli/BlurLevel5/BlurEditedMorph90,Stimuli/BlurLevel5/BlurEditedMorph90.png,Stimuli/BlurLevel5/NumberedMorphs/BlurEditedMorph90.png,Stimuli/BlurLevel5/OriginalBlur/BlurEditedMorph90.png,Stimuli/BlurMorphTrio/EditedMorph90.png,020275right.gif,Stimuli/normal_thumbnails/90right.gif,,,,,1,0,1,0,0,33,33,89,,,,,,,,,,,,,,,,,,,,,,,68,34,2,11,2.454067959,0.477022488,90,Experiment,,,,,,,,,26,88,2,2,,,,,,,,,,,,,,,1134.438793,1135.192705,1134.438793,1135.192705,97.27891156,1583450817,1583450821,3.698848724,1583450814,1583450817,,,EK,1,20,female,undergrad,2020_Mar_05_1508,AdjustEyeTrack,3.1.5,60.01269869
102,Stimuli/Morph102.JPG,Stimuli/Morph102.png,Stimuli/BlurLevel5/BlurEditedMorph102,Stimuli/BlurLevel5/BlurEditedMorph102.png,Stimuli/BlurLevel5/NumberedMorphs/BlurEditedMorph102.png,Stimuli/BlurLevel5/OriginalBlur/BlurEditedMorph102.png,Stimuli/BlurMorphTrio/EditedMorph102.png,None,None,,,,,1,0,1,0,0,34,34,101,,,,,,,,,,,,,,,,,,,,,,,6,35,2,12,2.445369002,0.519779227,102,Experiment,,,,,,,,,23,98,4,4,,,,,,,,,,,,,,,1141.742826,1142.492758,1141.742826,1142.492758,94.55782313,1583450824,1583450828,3.613344669,1583450821,1583450824,,,EK,1,20,female,undergrad,2020_Mar_05_1508,AdjustEyeTrack,3.1.5,60.01269869
48,Stimuli/Morph48.JPG,Stimuli/Morph48.png,Stimuli/BlurLevel5/BlurEditedMorph48,Stimuli/BlurLevel5/BlurEditedMorph48.png,Stimuli/BlurLevel5/NumberedMorphs/BlurEditedMorph48.png,Stimuli/BlurLevel5/OriginalBlur/BlurEditedMorph48.png,Stimuli/BlurMorphTrio/EditedMorph48.png,010131right.gif,Stimuli/normal_thumbnails/48right.gif,,,,,1,0,1,0,0,35,35,47,,,,,,,,,,,,,,,,,,,,,,,3,36,2,135,-1.767766953,1.767766953,48,Experiment,,,,,,,,,37,53,-5,-5,,,,,,,,,,,,,,,1148.886312,1149.609419,1148.886312,1149.609419,93.19727891,1583450832,1583450835,3.363106966,1583450829,1583450832,,,EK,1,20,female,undergrad,2020_Mar_05_1508,AdjustEyeTrack,3.1.5,60.01269869
22,Stimuli/Morph22.JPG,Stimuli/Morph22.png,Stimuli/BlurLevel5/BlurEditedMorph22,Stimuli/BlurLevel5/BlurEditedMorph22.png,Stimuli/BlurLevel5/NumberedMorphs/BlurEditedMorph22.png,Stimuli/BlurLevel5/OriginalBlur/BlurEditedMorph22.png,Stimuli/BlurMorphTrio/EditedMorph22.png,010055right.gif,Stimuli/normal_thumbnails/22right.gif,,,,,1,0,1,0,0,36,36,21,,,,,,,,,,,,,,,,,,,,,,,70,37,2,44,1.798349501,1.736645926,22,Experiment,,,,,,,,,144,21,1,1,,,,,,,,,,,,,,,1155.559408,1156.272012,1155.559408,1156.272012,98.63945578,1583450838,1583450840,1.58356595,1583450835,1583450838,,,EK,1,20,female,undergrad,2020_Mar_05_1508,AdjustEyeTrack,3.1.5,60.01269869
4,Stimuli/Morph4.JPG,Stimuli/Morph4.png,Stimuli/BlurLevel5/BlurEditedMorph4,Stimuli/BlurLevel5/BlurEditedMorph4.png,Stimuli/BlurLevel5/NumberedMorphs/BlurEditedMorph4.png,Stimuli/BlurLevel5/OriginalBlur/BlurEditedMorph4.png,Stimuli/BlurMorphTrio/EditedMorph4.png,010010right.gif,Stimuli/normal_thumbnails/4right.gif,,,,,1,0,1,0,0,37,37,3,,,,,,,,,,,,,,,,,,,,,,,39,38,2,350,2.462019383,-0.434120444,4,Experiment,,,,,,,,,59,8,-4,-4,,,,,,,,,,,,,,,1160.571111,1161.301693,1160.571111,1161.301693,94.55782313,1583450843,1583450846,2.983081818,1583450840,1583450843,,,EK,1,20,female,undergrad,2020_Mar_05_1508,AdjustEyeTrack,3.1.5,60.01269869
60,Stimuli/Morph60.JPG,Stimuli/Morph60.png,Stimuli/BlurLevel5/BlurEditedMorph60,Stimuli/BlurLevel5/BlurEditedMorph60.png,Stimuli/BlurLevel5/NumberedMorphs/BlurEditedMorph60.png,Stimuli/BlurLevel5/OriginalBlur/BlurEditedMorph60.png,Stimuli/BlurMorphTrio/EditedMorph60.png,020200right.gif,Stimuli/normal_thumbnails/60right.gif,,,,,1,0,1,0,0,38,38,59,,,,,,,,,,,,,,,,,,,,,,,20,39,2,239,-1.287595187,-2.142918252,60,Experiment,,,,,,,,,144,62,-2,-2,,,,,,,,,,,,,,,1166.980977,1167.704051,1166.980977,1167.704051,97.27891156,1583450850,1583450853,2.884260893,1583450847,1583450850,,,EK,1,20,female,undergrad,2020_Mar_05_1508,AdjustEyeTrack,3.1.5,60.01269869
19,Stimuli/Morph19.JPG,Stimuli/Morph19.png,Stimuli/BlurLevel5/BlurEditedMorph19,Stimuli/BlurLevel5/BlurEditedMorph19.png,Stimuli/BlurLevel5/NumberedMorphs/BlurEditedMorph19.png,Stimuli/BlurLevel5/OriginalBlur/BlurEditedMorph19.png,Stimuli/BlurMorphTrio/EditedMorph19.png,010045right.gif,Stimuli/normal_thumbnails/19right.gif,,,,,1,0,1,0,0,39,39,18,,,,,,,,,,,,,,,,,,,,,,,44,40,2,76,0.604804739,2.425739316,19,Experiment,,,,,,,,,65,21,-2,-2,,,,,,,,,,,,,,,1173.329703,1174.051839,1173.329703,1174.051839,97.27891156,1583450856,1583450859,3.047708273,1583450853,1583450856,,,EK,1,20,female,undergrad,2020_Mar_05_1508,AdjustEyeTrack,3.1.5,60.01269869
40,Stimuli/Morph40.JPG,Stimuli/Morph40.png,Stimuli/BlurLevel5/BlurEditedMorph40,Stimuli/BlurLevel5/BlurEditedMorph40.png,Stimuli/BlurLevel5/NumberedMorphs/BlurEditedMorph40.png,Stimuli/BlurLevel5/OriginalBlur/BlurEditedMorph40.png,Stimuli/BlurMorphTrio/EditedMorph40.png,010110right.gif,Stimuli/normal_thumbnails/40right.gif,,,,,1,0,1,0,0,40,40,39,,,,,,,,,,,,,,,,,,,,,,,90,41,2,69,0.895919874,2.333951066,40,Experiment,,,,,,,,,19,43,-3,-3,,,,,,,,,,,,,,,1179.679634,1180.402454,1179.679634,1180.402454,95.91836735,1583450862,1583450863,1.097508907,1583450860,1583450862,,,EK,1,20,female,undergrad,2020_Mar_05_1508,AdjustEyeTrack,3.1.5,60.01269869
130,Stimuli/Morph130.JPG,Stimuli/Morph130.png,Stimuli/BlurLevel5/BlurEditedMorph130,Stimuli/BlurLevel5/BlurEditedMorph130.png,Stimuli/BlurLevel5/NumberedMorphs/BlurEditedMorph130.png,Stimuli/BlurLevel5/OriginalBlur/BlurEditedMorph130.png,Stimuli/BlurMorphTrio/EditedMorph130.png,None,None,,,,,1,0,1,0,0,41,41,129,,,,,,,,,,,,,,,,,,,,,,,8,42,2,195,-2.414814566,-0.647047613,130,Experiment,,,,,,,,,97,137,-7,-7,,,,,,,,,,,,,,,1184.245781,1184.963641,1184.245781,1184.963641,90.47619048,1583450867,1583450870,3.334861994,1583450864,1583450867,,,EK,1,20,female,undergrad,2020_Mar_05_1508,AdjustEyeTrack,3.1.5,60.01269869
55,Stimuli/Morph55.JPG,Stimuli/Morph55.png,Stimuli/BlurLevel5/BlurEditedMorph55,Stimuli/BlurLevel5/BlurEditedMorph55.png,Stimuli/BlurLevel5/NumberedMorphs/BlurEditedMorph55.png,Stimuli/BlurLevel5/OriginalBlur/BlurEditedMorph55.png,Stimuli/BlurMorphTrio/EditedMorph55.png,010151right.gif,Stimuli/normal_thumbnails/55right.gif,,,,,1,0,1,0,0,42,42,54,,,,,,,,,,,,,,,,,,,,,,,64,43,2,55,1.433941091,2.047880111,55,Experiment,,,,,,,,,18,60,-5,-5,,,,,,,,,,,,,,,1190.956214,1191.679308,1190.956214,1191.679308,93.19727891,1583450874,1583450877,2.932579041,1583450871,1583450874,,,EK,1,20,female,undergrad,2020_Mar_05_1508,AdjustEyeTrack,3.1.5,60.01269869
33,Stimuli/Morph33.JPG,Stimuli/Morph33.png,Stimuli/BlurLevel5/BlurEditedMorph33,Stimuli/BlurLevel5/BlurEditedMorph33.png,Stimuli/BlurLevel5/NumberedMorphs/BlurEditedMorph33.png,Stimuli/BlurLevel5/OriginalBlur/BlurEditedMorph33.png,Stimuli/BlurMorphTrio/EditedMorph33.png,010089right.gif,Stimuli/normal_thumbnails/33right.gif,,,,,1,0,1,0,0,43,43,32,,,,,,,,,,,,,,,,,,,,,,,59,44,2,188,-2.475670172,-0.347932752,33,Experiment,,,,,,,,,53,27,6,6,,,,,,,,,,,,,,,1197.046642,1197.74491,1197.046642,1197.74491,91.83673469,1583450880,1583450883,2.865558863,1583450877,1583450880,,,EK,1,20,female,undergrad,2020_Mar_05_1508,AdjustEyeTrack,3.1.5,60.01269869
112,Stimuli/Morph112.JPG,Stimuli/Morph112.png,Stimuli/BlurLevel5/BlurEditedMorph112,Stimuli/BlurLevel5/BlurEditedMorph112.png,Stimuli/BlurLevel5/NumberedMorphs/BlurEditedMorph112.png,Stimuli/BlurLevel5/OriginalBlur/BlurEditedMorph112.png,Stimuli/BlurMorphTrio/EditedMorph112.png,None,None,,,,,1,0,1,0,0,44,44,111,,,,,,,,,,,,,,,,,,,,,,,43,45,2,266,-0.174391184,-2.493910126,112,Experiment,,,,,,,,,43,100,12,12,,,,,,,,,,,,,,,1203.25634,1203.980857,1203.25634,1203.980857,83.67346939,1583450886,1583450888,1.948363781,1583450883,1583450886,,,EK,1,20,female,undergrad,2020_Mar_05_1508,AdjustEyeTrack,3.1.5,60.01269869
52,Stimuli/Morph52.JPG,Stimuli/Morph52.png,Stimuli/BlurLevel5/BlurEditedMorph52,Stimuli/BlurLevel5/BlurEditedMorph52.png,Stimuli/BlurLevel5/NumberedMorphs/BlurEditedMorph52.png,Stimuli/BlurLevel5/OriginalBlur/BlurEditedMorph52.png,Stimuli/BlurMorphTrio/EditedMorph52.png,010148right.gif,Stimuli/normal_thumbnails/52right.gif,,,,,1,0,1,0,0,45,45,51,,,,,,,,,,,,,,,,,,,,,,,69,46,2,61,1.212024051,2.186549268,52,Experiment,,,,,,,,,51,41,11,11,,,,,,,,,,,,,,,1208.802989,1209.541582,1208.802989,1209.541582,85.03401361,1583450891,1583450894,2.250198126,1583450888,1583450891,,,EK,1,20,female,undergrad,2020_Mar_05_1508,AdjustEyeTrack,3.1.5,60.01269869
115,Stimuli/Morph115.JPG,Stimuli/Morph115.png,Stimuli/BlurLevel5/BlurEditedMorph115,Stimuli/BlurLevel5/BlurEditedMorph115.png,Stimuli/BlurLevel5/NumberedMorphs/BlurEditedMorph115.png,Stimuli/BlurLevel5/OriginalBlur/BlurEditedMorph115.png,Stimuli/BlurMorphTrio/EditedMorph115.png,None,None,,,,,1,0,1,0,0,46,46,114,,,,,,,,,,,,,,,,,,,,,,,31,47,2,335,2.265769468,-1.056545654,115,Experiment,,,,,,,,,122,106,9,9,,,,,,,,,,,,,,,1214.554236,1215.263134,1214.554236,1215.263134,87.75510204,1583450897,1583450900,3.116435051,1583450894,1583450897,,,EK,1,20,female,undergrad,2020_Mar_05_1508,AdjustEyeTrack,3.1.5,60.01269869
143,Stimuli/Morph143.JPG,Stimuli/Morph143.png,Stimuli/BlurLevel5/BlurEditedMorph143,Stimuli/BlurLevel5/BlurEditedMorph143.png,Stimuli/BlurLevel5/NumberedMorphs/BlurEditedMorph143.png,Stimuli/BlurLevel5/OriginalBlur/BlurEditedMorph143.png,Stimuli/BlurMorphTrio/EditedMorph143.png,None,None,,,,,1,0,1,0,0,47,47,142,,,,,,,,,,,,,,,,,,,,,,,97,48,2,73,0.730929262,2.39076189,143,Experiment,,,,,,,,,52,138,5,5,,,,,,,,,,,,,,,1221.228467,1221.960213,1221.228467,1221.960213,93.19727891,1583450904,1583450907,2.899517059,1583450901,1583450904,,,EK,1,20,female,undergrad,2020_Mar_05_1508,AdjustEyeTrack,3.1.5,60.01269869
85,Stimuli/Morph85.JPG,Stimuli/Morph85.png,Stimuli/BlurLevel5/BlurEditedMorph85,Stimuli/BlurLevel5/BlurEditedMorph85.png,Stimuli/BlurLevel5/NumberedMorphs/BlurEditedMorph85.png,Stimuli/BlurLevel5/OriginalBlur/BlurEditedMorph85.png,Stimuli/BlurMorphTrio/EditedMorph85.png,020264right.gif,Stimuli/normal_thumbnails/85right.gif,,,,,1,0,1,0,0,48,48,84,,,,,,,,,,,,,,,,,,,,,,,78,49,2,176,-2.493910126,0.174391184,85,Experiment,,,,,,,,,103,85,0,0,,,,,,,,,,,,,,,1227.412928,1228.124683,1227.412928,1228.124683,100,1583450910,1583450913,2.86292696,1583450907,1583450910,,,EK,1,20,female,undergrad,2020_Mar_05_1508,AdjustEyeTrack,3.1.5,60.01269869
103,Stimuli/Morph103.JPG,Stimuli/Morph103.png,Stimuli/BlurLevel5/BlurEditedMorph103,Stimuli/BlurLevel5/BlurEditedMorph103.png,Stimuli/BlurLevel5/NumberedMorphs/BlurEditedMorph103.png,Stimuli/BlurLevel5/OriginalBlur/BlurEditedMorph103.png,Stimuli/BlurMorphTrio/EditedMorph103.png,None,None,,,,,1,0,1,0,0,49,49,102,,,,,,,,,,,,,,,,,,,,,,,90,50,2,233,-1.504537558,-1.996588775,103,Experiment,,,,,,,,,36,95,8,8,,,,,,,,,,,,,,,1233.558249,1234.265667,1233.558249,1234.265667,89.11564626,1583450916,1583450920,4.031122923,1583450913,1583450916,,,EK,1,20,female,undergrad,2020_Mar_05_1508,AdjustEyeTrack,3.1.5,60.01269869
5,Stimuli/Morph5.JPG,Stimuli/Morph5.png,Stimuli/BlurLevel5/BlurEditedMorph5,Stimuli/BlurLevel5/BlurEditedMorph5.png,Stimuli/BlurLevel5/NumberedMorphs/BlurEditedMorph5.png,Stimuli/BlurLevel5/OriginalBlur/BlurEditedMorph5.png,Stimuli/BlurMorphTrio/EditedMorph5.png,010011right.gif,Stimuli/normal_thumbnails/5right.gif,,,,,1,0,1,0,0,50,50,4,,,,,,,,,,,,,,,,,,,,,,,92,51,2,173,-2.481365379,0.304673359,5,Experiment,,,,,,,,,75,146,-141,6,,,,,,,,,,,,,,,1241.322599,1242.061637,1241.322599,1242.061637,91.83673469,1583450924,1583450927,2.648238182,1583450921,1583450924,,,EK,1,20,female,undergrad,2020_Mar_05_1508,AdjustEyeTrack,3.1.5,60.01269869
124,Stimuli/Morph124.JPG,Stimuli/Morph124.png,Stimuli/BlurLevel5/BlurEditedMorph124,Stimuli/BlurLevel5/BlurEditedMorph124.png,Stimuli/BlurLevel5/NumberedMorphs/BlurEditedMorph124.png,Stimuli/BlurLevel5/OriginalBlur/BlurEditedMorph124.png,Stimuli/BlurMorphTrio/EditedMorph124.png,None,None,,,,,1,0,1,0,0,51,51,123,,,,,,,,,,,,,,,,,,,,,,,66,52,2,168,-2.445369002,0.519779227,124,Experiment,,,,,,,,,82,116,8,8,,,,,,,,,,,,,,,1247.403058,1248.108473,1247.403058,1248.108473,89.11564626,1583450930,1583450932,1.717118979,1583450927,1583450930,,,EK,1,20,female,undergrad,2020_Mar_05_1508,AdjustEyeTrack,3.1.5,60.01269869
38,Stimuli/Morph38.JPG,Stimuli/Morph38.png,Stimuli/BlurLevel5/BlurEditedMorph38,Stimuli/BlurLevel5/BlurEditedMorph38.png,Stimuli/BlurLevel5/NumberedMorphs/BlurEditedMorph38.png,Stimuli/BlurLevel5/OriginalBlur/BlurEditedMorph38.png,Stimuli/BlurMorphTrio/EditedMorph38.png,010108right.gif,Stimuli/normal_thumbnails/38right.gif,,,,,1,0,1,0,0,52,52,37,,,,,,,,,,,,,,,,,,,,,,,42,53,2,257,-0.562377636,-2.435925162,38,Experiment,,,,,,,,,108,43,-5,-5,,,,,,,,,,,,,,,1252.79222,1253.531135,1252.79222,1253.531135,93.19727891,1583450935,1583450938,2.28278017,1583450932,1583450935,,,EK,1,20,female,undergrad,2020_Mar_05_1508,AdjustEyeTrack,3.1.5,60.01269869
108,Stimuli/Morph108.JPG,Stimuli/Morph108.png,Stimuli/BlurLevel5/BlurEditedMorph108,Stimuli/BlurLevel5/BlurEditedMorph108.png,Stimuli/BlurLevel5/NumberedMorphs/BlurEditedMorph108.png,Stimuli/BlurLevel5/OriginalBlur/BlurEditedMorph108.png,Stimuli/BlurMorphTrio/EditedMorph108.png,None,None,,,,,1,0,1,0,0,53,53,107,,,,,,,,,,,,,,,,,,,,,,,3,54,2,263,-0.304673359,-2.481365379,108,Experiment,,,,,,,,,5,119,-11,-11,,,,,,,,,,,,,,,1258.610224,1259.357674,1258.610224,1259.357674,85.03401361,1583450941,1583450943,1.634737253,1583450938,1583450941,,,EK,1,20,female,undergrad,2020_Mar_05_1508,AdjustEyeTrack,3.1.5,60.01269869
28,Stimuli/Morph28.JPG,Stimuli/Morph28.png,Stimuli/BlurLevel5/BlurEditedMorph28,Stimuli/BlurLevel5/BlurEditedMorph28.png,Stimuli/BlurLevel5/NumberedMorphs/BlurEditedMorph28.png,Stimuli/BlurLevel5/OriginalBlur/BlurEditedMorph28.png,Stimuli/BlurMorphTrio/EditedMorph28.png,010073right.gif,Stimuli/normal_thumbnails/28right.gif,,,,,1,0,1,0,0,54,54,27,,,,,,,,,,,,,,,,,,,,,,,59,55,2,255,-0.647047613,-2.414814566,28,Experiment,,,,,,,,,7,35,-7,-7,,,,,,,,,,,,,,,1263.426245,1264.130864,1263.426245,1264.130864,90.47619048,1583450946,1583450948,1.815641642,1583450943,1583450946,,,EK,1,20,female,undergrad,2020_Mar_05_1508,AdjustEyeTrack,3.1.5,60.01269869
16,Stimuli/Morph16.JPG,Stimuli/Morph16.png,Stimuli/BlurLevel5/BlurEditedMorph16,Stimuli/BlurLevel5/BlurEditedMorph16.png,Stimuli/BlurLevel5/NumberedMorphs/BlurEditedMorph16.png,Stimuli/BlurLevel5/OriginalBlur/BlurEditedMorph16.png,Stimuli/BlurMorphTrio/EditedMorph16.png,010034right.gif,Stimuli/normal_thumbnails/16right.gif,,,,,1,0,1,0,0,55,55,15,,,,,,,,,,,,,,,,,,,,,,,67,56,2,102,-0.519779227,2.445369002,16,Experiment,,,,,,,,,147,15,1,1,,,,,,,,,,,,,,,1268.704575,1269.424834,1268.704575,1269.424834,98.63945578,1583450951,1583450952,0.947152853,1583450948,1583450951,,,EK,1,20,female,undergrad,2020_Mar_05_1508,AdjustEyeTrack,3.1.5,60.01269869
68,Stimuli/Morph68.JPG,Stimuli/Morph68.png,Stimuli/BlurLevel5/BlurEditedMorph68,Stimuli/BlurLevel5/BlurEditedMorph68.png,Stimuli/BlurLevel5/NumberedMorphs/BlurEditedMorph68.png,Stimuli/BlurLevel5/OriginalBlur/BlurEditedMorph68.png,Stimuli/BlurMorphTrio/EditedMorph68.png,020218right.gif,Stimuli/normal_thumbnails/68right.gif,,,,,1,0,1,0,0,56,56,67,,,,,,,,,,,,,,,,,,,,,,,44,57,2,300,1.25,-2.165063509,68,Experiment,,,,,,,,,109,78,-10,-10,,,,,,,,,,,,,,,1273.10726,1273.870597,1273.10726,1273.870597,86.39455782,1583450956,1583450958,2.449187756,1583450953,1583450956,,,EK,1,20,female,undergrad,2020_Mar_05_1508,AdjustEyeTrack,3.1.5,60.01269869
73,Stimuli/Morph73.JPG,Stimuli/Morph73.png,Stimuli/BlurLevel5/BlurEditedMorph73,Stimuli/BlurLevel5/BlurEditedMorph73.png,Stimuli/BlurLevel5/NumberedMorphs/BlurEditedMorph73.png,Stimuli/BlurLevel5/OriginalBlur/BlurEditedMorph73.png,Stimuli/BlurMorphTrio/EditedMorph73.png,020230right.gif,Stimuli/normal_thumbnails/73right.gif,,,,,1,0,1,0,0,57,57,72,,,,,,,,,,,,,,,,,,,,,,,64,58,2,345,2.414814566,-0.647047613,73,Experiment,,,,,,,,,97,68,5,5,,,,,,,,,,,,,,,1278.933064,1279.652195,1278.933064,1279.652195,93.19727891,1583450962,1583450963,1.546255112,1583450959,1583450962,,,EK,1,20,female,undergrad,2020_Mar_05_1508,AdjustEyeTrack,3.1.5,60.01269869
113,Stimuli/Morph113.JPG,Stimuli/Morph113.png,Stimuli/BlurLevel5/BlurEditedMorph113,Stimuli/BlurLevel5/BlurEditedMorph113.png,Stimuli/BlurLevel5/NumberedMorphs/BlurEditedMorph113.png,Stimuli/BlurLevel5/OriginalBlur/BlurEditedMorph113.png,Stimuli/BlurMorphTrio/EditedMorph113.png,None,None,,,,,1,0,1,0,0,58,58,112,,,,,,,,,,,,,,,,,,,,,,,92,59,2,181,-2.499619238,-0.043631016,113,Experiment,,,,,,,,,3,101,12,12,,,,,,,,,,,,,,,1284.289814,1285.02569,1284.289814,1285.02569,83.67346939,1583450967,1583450969,1.682943821,1583450964,1583450967,,,EK,1,20,female,undergrad,2020_Mar_05_1508,AdjustEyeTrack,3.1.5,60.01269869
