stimulusID,stimulus_JPG,stimulusPath,stimulusPath2,stimulusPath3,stimulusPath4,stimulusPath5,stimulusPath6,xRayOriginal,xRayPath,Training.thisRepN,Training.thisTrialN,Training.thisN,Training.thisIndex,Blocks.thisRepN,Blocks.thisTrialN,Blocks.thisN,Blocks.thisIndex,Trials.thisRepN,Trials.thisTrialN,Trials.thisN,Trials.thisIndex,text_2.started,text_2.stopped,image.started,image.stopped,image_2.started,image_2.stopped,image_3.started,image_3.stopped,image_4.started,image_4.stopped,image_6.started,image_6.stopped,image_7.started,image_7.stopped,image_8.started,image_8.stopped,image_9.started,image_9.stopped,image_10.started,image_10.stopped,image_12.started,image_12.stopped,xrayID,trialNumber,blockNumber,stimLocationDeg,stimXCoord,stimYCoord,stimulusID,blockType,trainingXray.started,trainingXray.stopped,trainingTumors.started,trainingTumors.stopped,trainingScore%,startTrainingRespTime,endTrainingRespTime,trainingRT,morphTrack,morphID,errorRaw,errorCorrected,startTrainingStimTime,endTrainingStimTime,key_resp_3.keys,key_resp_3.rt,text.started,text.stopped,text_3.started,text_3.stopped,text_4.started,text_4.stopped,key_resp_5.keys,key_resp_5.rt,key_resp_5.started,key_resp_5.stopped,xray1.started,xray1.stopped,tumors.started,tumors.stopped,trialCorrect%,startRespTime,endRespTime,RT,startStimTime,endStimTime,key_resp.keys,key_resp.rt,participant,session,age,gender,status,date,expName,psychopyVersion,frameRate
54,Stimuli/Morph54.JPG,Stimuli/Morph54.png,Stimuli/BlurLevel5/BlurEditedMorph54,Stimuli/BlurLevel5/BlurEditedMorph54.png,Stimuli/BlurLevel5/NumberedMorphs/BlurEditedMorph54.png,Stimuli/BlurLevel5/OriginalBlur/BlurEditedMorph54.png,Stimuli/BlurMorphTrio/EditedMorph54.png,010150right.gif,Stimuli/normal_thumbnails/54right.gif,0,0,0,53,,,,,,,,,59.74103061,None,59.74103061,None,59.74103061,None,59.74103061,None,59.74103061,None,59.74103061,None,59.74103061,None,59.74103061,None,59.74103061,None,59.74103061,None,59.74103061,None,71,-100,-100,70,0.855050358,2.349231552,54,training,129.3667863,130.0633551,129.3667863,130.0633551,97.27891156,1583778479,1583778486,6.865566015,118,52,2,2,1583778476,1583778479,space,3.532133116,,,,,,,,,,,,,,,,,,,,,,,HL,1,21,female,undergrad,2020_Mar_09_1126,AdjustEyeTrack,3.1.5,59.93553023
132,Stimuli/Morph132.JPG,Stimuli/Morph132.png,Stimuli/BlurLevel5/BlurEditedMorph132,Stimuli/BlurLevel5/BlurEditedMorph132.png,Stimuli/BlurLevel5/NumberedMorphs/BlurEditedMorph132.png,Stimuli/BlurLevel5/OriginalBlur/BlurEditedMorph132.png,Stimuli/BlurMorphTrio/EditedMorph132.png,None,None,0,1,1,131,,,,,,,,,,,,,,,,,,,,,,,,,,,,,,,59,-100,-100,176,-2.493910126,0.174391184,132,training,142.9699847,143.6525991,142.9699847,143.6525991,82.31292517,1583778492,1583778497,4.401120186,7,145,-13,-13,1583778490,1583778492,space,2.354045936,,,,,,,,,,,,,,,,,,,,,,,HL,1,21,female,undergrad,2020_Mar_09_1126,AdjustEyeTrack,3.1.5,59.93553023
18,Stimuli/Morph18.JPG,Stimuli/Morph18.png,Stimuli/BlurLevel5/BlurEditedMorph18,Stimuli/BlurLevel5/BlurEditedMorph18.png,Stimuli/BlurLevel5/NumberedMorphs/BlurEditedMorph18.png,Stimuli/BlurLevel5/OriginalBlur/BlurEditedMorph18.png,Stimuli/BlurMorphTrio/EditedMorph18.png,010039right.gif,Stimuli/normal_thumbnails/18right.gif,0,2,2,17,,,,,,,,,,,,,,,,,,,,,,,,,,,,,,,47,-100,-100,162,-2.377641291,0.772542486,18,training,153.7244055,154.4363326,153.7244055,154.4363326,90.47619048,1583778503,1583778507,3.416414976,18,25,-7,-7,1583778500,1583778503,space,13.90768478,,,,,,,,,,,,,,,,,,,,,,,HL,1,21,female,undergrad,2020_Mar_09_1126,AdjustEyeTrack,3.1.5,59.93553023
53,Stimuli/Morph53.JPG,Stimuli/Morph53.png,Stimuli/BlurLevel5/BlurEditedMorph53,Stimuli/BlurLevel5/BlurEditedMorph53.png,Stimuli/BlurLevel5/NumberedMorphs/BlurEditedMorph53.png,Stimuli/BlurLevel5/OriginalBlur/BlurEditedMorph53.png,Stimuli/BlurMorphTrio/EditedMorph53.png,010149right.gif,Stimuli/normal_thumbnails/53right.gif,0,3,3,52,,,,,,,,,,,,,,,,,,,,,,,,,,,,,,,14,-100,-100,268,-0.087248742,-2.498477068,53,training,174.6666791,175.3858925,174.6666791,175.3858925,89.11564626,1583778524,1583778528,4.04903388,112,45,8,8,1583778521,1583778524,space,4.451835269,,,,,,,,,,,,,,,,,,,,,,,HL,1,21,female,undergrad,2020_Mar_09_1126,AdjustEyeTrack,3.1.5,59.93553023
37,Stimuli/Morph37.JPG,Stimuli/Morph37.png,Stimuli/BlurLevel5/BlurEditedMorph37,Stimuli/BlurLevel5/BlurEditedMorph37.png,Stimuli/BlurLevel5/NumberedMorphs/BlurEditedMorph37.png,Stimuli/BlurLevel5/OriginalBlur/BlurEditedMorph37.png,Stimuli/BlurMorphTrio/EditedMorph37.png,010097right.gif,Stimuli/normal_thumbnails/37right.gif,0,4,4,36,,,,,,,,,,,,,,,,,,,,,,,,,,,,,,,59,-100,-100,205,-2.265769468,-1.056545654,37,training,186.4083369,187.0892014,186.4083369,187.0892014,97.27891156,1583778536,1583778539,3.434297085,91,35,2,2,1583778533,1583778536,space,3.822271079,,,,,,,,,,,,,,,,,,,,,,,HL,1,21,female,undergrad,2020_Mar_09_1126,AdjustEyeTrack,3.1.5,59.93553023
144,Stimuli/Morph144.JPG,Stimuli/Morph144.png,Stimuli/BlurLevel5/BlurEditedMorph144,Stimuli/BlurLevel5/BlurEditedMorph144.png,Stimuli/BlurLevel5/NumberedMorphs/BlurEditedMorph144.png,Stimuli/BlurLevel5/OriginalBlur/BlurEditedMorph144.png,Stimuli/BlurMorphTrio/EditedMorph144.png,None,None,0,5,5,143,,,,,,,,,,,,,,,,,,,,,,,,,,,,,,,14,-100,-100,276,0.261321158,-2.486304738,144,training,197.0234995,197.7219426,197.0234995,197.7219426,91.83673469,1583778546,1583778551,4.445886135,14,3,141,-6,1583778544,1583778546,space,0.937884959,,,,,,,,,,,,,,,,,,,,,,,HL,1,21,female,undergrad,2020_Mar_09_1126,AdjustEyeTrack,3.1.5,59.93553023
123,Stimuli/Morph123.JPG,Stimuli/Morph123.png,Stimuli/BlurLevel5/BlurEditedMorph123,Stimuli/BlurLevel5/BlurEditedMorph123.png,Stimuli/BlurLevel5/NumberedMorphs/BlurEditedMorph123.png,Stimuli/BlurLevel5/OriginalBlur/BlurEditedMorph123.png,Stimuli/BlurMorphTrio/EditedMorph123.png,None,None,0,6,6,122,,,,,,,,,,,,,,,,,,,,,,,,,,,,,,,67,-100,-100,170,-2.462019383,0.434120444,123,training,205.8263991,206.5284399,205.8263991,206.5284399,78.23129252,1583778555,1583778558,2.416298866,107,107,16,16,1583778552,1583778555,space,1.795446291,,,,,,,,,,,,,,,,,,,,,,,HL,1,21,female,undergrad,2020_Mar_09_1126,AdjustEyeTrack,3.1.5,59.93553023
30,Stimuli/Morph30.JPG,Stimuli/Morph30.png,Stimuli/BlurLevel5/BlurEditedMorph30,Stimuli/BlurLevel5/BlurEditedMorph30.png,Stimuli/BlurLevel5/NumberedMorphs/BlurEditedMorph30.png,Stimuli/BlurLevel5/OriginalBlur/BlurEditedMorph30.png,Stimuli/BlurMorphTrio/EditedMorph30.png,010076right.gif,Stimuli/normal_thumbnails/30right.gif,0,7,7,29,,,,,,,,,,,,,,,,,,,,,,,,,,,,,,,18,-100,-100,332,2.207368982,-1.173678907,30,training,213.2829985,213.9789274,213.2829985,213.9789274,95.91836735,1583778563,1583778567,4.000287056,1,27,3,3,1583778560,1583778563,space,3.053344128,,,,,,,,,,,,,,,,,,,,,,,HL,1,21,female,undergrad,2020_Mar_09_1126,AdjustEyeTrack,3.1.5,59.93553023
102,Stimuli/Morph102.JPG,Stimuli/Morph102.png,Stimuli/BlurLevel5/BlurEditedMorph102,Stimuli/BlurLevel5/BlurEditedMorph102.png,Stimuli/BlurLevel5/NumberedMorphs/BlurEditedMorph102.png,Stimuli/BlurLevel5/OriginalBlur/BlurEditedMorph102.png,Stimuli/BlurMorphTrio/EditedMorph102.png,None,None,0,8,8,101,,,,,,,,,,,,,,,,,,,,,,,,,,,,,,,76,-100,-100,266,-0.174391184,-2.493910126,102,training,223.4281407,224.1051007,223.4281407,224.1051007,97.27891156,1583778573,1583778576,3.400160074,125,100,2,2,1583778570,1583778573,space,1.547016232,,,,,,,,,,,,,,,,,,,,,,,HL,1,21,female,undergrad,2020_Mar_09_1126,AdjustEyeTrack,3.1.5,59.93553023
73,Stimuli/Morph73.JPG,Stimuli/Morph73.png,Stimuli/BlurLevel5/BlurEditedMorph73,Stimuli/BlurLevel5/BlurEditedMorph73.png,Stimuli/BlurLevel5/NumberedMorphs/BlurEditedMorph73.png,Stimuli/BlurLevel5/OriginalBlur/BlurEditedMorph73.png,Stimuli/BlurMorphTrio/EditedMorph73.png,020230right.gif,Stimuli/normal_thumbnails/73right.gif,0,9,9,72,,,,,,,,,,,,,,,,,,,,,,,,,,,,,,,53,-100,-100,233,-1.504537558,-1.996588775,73,training,231.8629906,232.5715165,231.8629906,232.5715165,95.91836735,1583778581,1583778586,4.36627984,28,76,-3,-3,1583778578,1583778581,space,0.724725419,,,,,,,,,,,,,,,,,,,,,,,HL,1,21,female,undergrad,2020_Mar_09_1126,AdjustEyeTrack,3.1.5,59.93553023
,,,,,,,,,,,,,,,,,,,,,,,,,,,,,,,,,,,,,,,,,,,,,-100,-100,,,,,training,,,,,,,,,,,,,,,,,240.2028552,None,240.2028552,None,240.2028552,None,space,85.34763957,240.2028552,None,,,,,,,,,,,,,HL,1,21,female,undergrad,2020_Mar_09_1126,AdjustEyeTrack,3.1.5,59.93553023
28,Stimuli/Morph28.JPG,Stimuli/Morph28.png,Stimuli/BlurLevel5/BlurEditedMorph28,Stimuli/BlurLevel5/BlurEditedMorph28.png,Stimuli/BlurLevel5/NumberedMorphs/BlurEditedMorph28.png,Stimuli/BlurLevel5/OriginalBlur/BlurEditedMorph28.png,Stimuli/BlurMorphTrio/EditedMorph28.png,010073right.gif,Stimuli/normal_thumbnails/28right.gif,,,,,0,0,0,0,0,0,0,27,,,,,,,,,,,,,,,,,,,,,,,89,1,1,278,0.347932752,-2.475670172,28,Experiment,,,,,,,,,21,26,2,2,,,,,,,,,,,,,,,326.9153097,327.6024465,326.9153097,327.6024465,97.27891156,1583778676,1583778679,3.017941952,1583778674,1583778676,,,HL,1,21,female,undergrad,2020_Mar_09_1126,AdjustEyeTrack,3.1.5,59.93553023
111,Stimuli/Morph111.JPG,Stimuli/Morph111.png,Stimuli/BlurLevel5/BlurEditedMorph111,Stimuli/BlurLevel5/BlurEditedMorph111.png,Stimuli/BlurLevel5/NumberedMorphs/BlurEditedMorph111.png,Stimuli/BlurLevel5/OriginalBlur/BlurEditedMorph111.png,Stimuli/BlurMorphTrio/EditedMorph111.png,None,None,,,,,0,0,0,0,0,1,1,110,,,,,,,,,,,,,,,,,,,,,,,18,2,1,157,-2.301262134,0.976827821,111,Experiment,,,,,,,,,35,106,5,5,,,,,,,,,,,,,,,332.9435536,333.6168668,332.9435536,333.6168668,93.19727891,1583778682,1583778685,2.785337925,1583778680,1583778682,,,HL,1,21,female,undergrad,2020_Mar_09_1126,AdjustEyeTrack,3.1.5,59.93553023
43,Stimuli/Morph43.JPG,Stimuli/Morph43.png,Stimuli/BlurLevel5/BlurEditedMorph43,Stimuli/BlurLevel5/BlurEditedMorph43.png,Stimuli/BlurLevel5/NumberedMorphs/BlurEditedMorph43.png,Stimuli/BlurLevel5/OriginalBlur/BlurEditedMorph43.png,Stimuli/BlurMorphTrio/EditedMorph43.png,010124right.gif,Stimuli/normal_thumbnails/43right.gif,,,,,0,0,0,0,0,2,2,42,,,,,,,,,,,,,,,,,,,,,,,60,3,1,108,-0.772542486,2.377641291,43,Experiment,,,,,,,,,80,27,16,16,,,,,,,,,,,,,,,339.675404,340.3845273,339.675404,340.3845273,78.23129252,1583778689,1583778692,3.11809516,1583778686,1583778689,,,HL,1,21,female,undergrad,2020_Mar_09_1126,AdjustEyeTrack,3.1.5,59.93553023
102,Stimuli/Morph102.JPG,Stimuli/Morph102.png,Stimuli/BlurLevel5/BlurEditedMorph102,Stimuli/BlurLevel5/BlurEditedMorph102.png,Stimuli/BlurLevel5/NumberedMorphs/BlurEditedMorph102.png,Stimuli/BlurLevel5/OriginalBlur/BlurEditedMorph102.png,Stimuli/BlurMorphTrio/EditedMorph102.png,None,None,,,,,0,0,0,0,0,3,3,101,,,,,,,,,,,,,,,,,,,,,,,3,4,1,97,-0.304673359,2.481365379,102,Experiment,,,,,,,,,141,103,-1,-1,,,,,,,,,,,,,,,346.2123862,346.9068011,346.2123862,346.9068011,98.63945578,1583778696,1583778697,1.702564716,1583778693,1583778696,,,HL,1,21,female,undergrad,2020_Mar_09_1126,AdjustEyeTrack,3.1.5,59.93553023
130,Stimuli/Morph130.JPG,Stimuli/Morph130.png,Stimuli/BlurLevel5/BlurEditedMorph130,Stimuli/BlurLevel5/BlurEditedMorph130.png,Stimuli/BlurLevel5/NumberedMorphs/BlurEditedMorph130.png,Stimuli/BlurLevel5/OriginalBlur/BlurEditedMorph130.png,Stimuli/BlurMorphTrio/EditedMorph130.png,None,None,,,,,0,0,0,0,0,4,4,129,,,,,,,,,,,,,,,,,,,,,,,14,5,1,1,2.499619238,0.043631016,130,Experiment,,,,,,,,,35,113,17,17,,,,,,,,,,,,,,,351.4857936,352.199951,351.4857936,352.199951,76.8707483,1583778701,1583778706,4.768296957,1583778698,1583778701,,,HL,1,21,female,undergrad,2020_Mar_09_1126,AdjustEyeTrack,3.1.5,59.93553023
90,Stimuli/Morph90.JPG,Stimuli/Morph90.png,Stimuli/BlurLevel5/BlurEditedMorph90,Stimuli/BlurLevel5/BlurEditedMorph90.png,Stimuli/BlurLevel5/NumberedMorphs/BlurEditedMorph90.png,Stimuli/BlurLevel5/OriginalBlur/BlurEditedMorph90.png,Stimuli/BlurMorphTrio/EditedMorph90.png,020275right.gif,Stimuli/normal_thumbnails/90right.gif,,,,,0,0,0,0,0,5,5,89,,,,,,,,,,,,,,,,,,,,,,,50,6,1,22,2.317959636,0.936516484,90,Experiment,,,,,,,,,123,115,-25,-25,,,,,,,,,,,,,,,359.5873282,360.283659,359.5873282,360.283659,65.98639456,1583778709,1583778711,2.163383007,1583778706,1583778709,,,HL,1,21,female,undergrad,2020_Mar_09_1126,AdjustEyeTrack,3.1.5,59.93553023
80,Stimuli/Morph80.JPG,Stimuli/Morph80.png,Stimuli/BlurLevel5/BlurEditedMorph80,Stimuli/BlurLevel5/BlurEditedMorph80.png,Stimuli/BlurLevel5/NumberedMorphs/BlurEditedMorph80.png,Stimuli/BlurLevel5/OriginalBlur/BlurEditedMorph80.png,Stimuli/BlurMorphTrio/EditedMorph80.png,020240right.gif,Stimuli/normal_thumbnails/80right.gif,,,,,0,0,0,0,0,6,6,79,,,,,,,,,,,,,,,,,,,,,,,61,7,1,293,0.976827821,-2.301262134,80,Experiment,,,,,,,,,11,93,-13,-13,,,,,,,,,,,,,,,365.2516042,365.9832017,365.2516042,365.9832017,82.31292517,1583778715,1583778717,2.703238726,1583778712,1583778715,,,HL,1,21,female,undergrad,2020_Mar_09_1126,AdjustEyeTrack,3.1.5,59.93553023
36,Stimuli/Morph36.JPG,Stimuli/Morph36.png,Stimuli/BlurLevel5/BlurEditedMorph36,Stimuli/BlurLevel5/BlurEditedMorph36.png,Stimuli/BlurLevel5/NumberedMorphs/BlurEditedMorph36.png,Stimuli/BlurLevel5/OriginalBlur/BlurEditedMorph36.png,Stimuli/BlurMorphTrio/EditedMorph36.png,010095right.gif,Stimuli/normal_thumbnails/36right.gif,,,,,0,0,0,0,0,7,7,35,,,,,,,,,,,,,,,,,,,,,,,51,8,1,359,2.499619238,-0.043631016,36,Experiment,,,,,,,,,71,29,7,7,,,,,,,,,,,,,,,371.5621011,372.2829339,371.5621011,372.2829339,90.47619048,1583778721,1583778726,5.268729925,1583778718,1583778721,,,HL,1,21,female,undergrad,2020_Mar_09_1126,AdjustEyeTrack,3.1.5,59.93553023
142,Stimuli/Morph142.JPG,Stimuli/Morph142.png,Stimuli/BlurLevel5/BlurEditedMorph142,Stimuli/BlurLevel5/BlurEditedMorph142.png,Stimuli/BlurLevel5/NumberedMorphs/BlurEditedMorph142.png,Stimuli/BlurLevel5/OriginalBlur/BlurEditedMorph142.png,Stimuli/BlurMorphTrio/EditedMorph142.png,None,None,,,,,0,0,0,0,0,8,8,141,,,,,,,,,,,,,,,,,,,,,,,82,9,1,313,1.7049959,-1.828384254,142,Experiment,,,,,,,,,22,143,-1,-1,,,,,,,,,,,,,,,380.1671899,380.8605273,380.1671899,380.8605273,98.63945578,1583778730,1583778734,4.802813292,1583778727,1583778730,,,HL,1,21,female,undergrad,2020_Mar_09_1126,AdjustEyeTrack,3.1.5,59.93553023
35,Stimuli/Morph35.JPG,Stimuli/Morph35.png,Stimuli/BlurLevel5/BlurEditedMorph35,Stimuli/BlurLevel5/BlurEditedMorph35.png,Stimuli/BlurLevel5/NumberedMorphs/BlurEditedMorph35.png,Stimuli/BlurLevel5/OriginalBlur/BlurEditedMorph35.png,Stimuli/BlurMorphTrio/EditedMorph35.png,010094right.gif,Stimuli/normal_thumbnails/35right.gif,,,,,0,0,0,0,0,9,9,34,,,,,,,,,,,,,,,,,,,,,,,99,10,1,324,2.022542486,-1.469463131,35,Experiment,,,,,,,,,146,25,10,10,,,,,,,,,,,,,,,388.155425,388.8436683,388.155425,388.8436683,86.39455782,1583778738,1583778740,2.701120853,1583778735,1583778738,,,HL,1,21,female,undergrad,2020_Mar_09_1126,AdjustEyeTrack,3.1.5,59.93553023
68,Stimuli/Morph68.JPG,Stimuli/Morph68.png,Stimuli/BlurLevel5/BlurEditedMorph68,Stimuli/BlurLevel5/BlurEditedMorph68.png,Stimuli/BlurLevel5/NumberedMorphs/BlurEditedMorph68.png,Stimuli/BlurLevel5/OriginalBlur/BlurEditedMorph68.png,Stimuli/BlurMorphTrio/EditedMorph68.png,020218right.gif,Stimuli/normal_thumbnails/68right.gif,,,,,0,0,0,0,0,10,10,67,,,,,,,,,,,,,,,,,,,,,,,88,11,1,99,-0.391086163,2.469220851,68,Experiment,,,,,,,,,23,46,22,22,,,,,,,,,,,,,,,394.226248,394.9249893,394.226248,394.9249893,70.06802721,1583778744,1583778749,5.314698935,1583778741,1583778744,,,HL,1,21,female,undergrad,2020_Mar_09_1126,AdjustEyeTrack,3.1.5,59.93553023
9,Stimuli/Morph9.JPG,Stimuli/Morph9.png,Stimuli/BlurLevel5/BlurEditedMorph9,Stimuli/BlurLevel5/BlurEditedMorph9.png,Stimuli/BlurLevel5/NumberedMorphs/BlurEditedMorph9.png,Stimuli/BlurLevel5/OriginalBlur/BlurEditedMorph9.png,Stimuli/BlurMorphTrio/EditedMorph9.png,010015right.gif,Stimuli/normal_thumbnails/9right.gif,,,,,0,0,0,0,0,11,11,8,,,,,,,,,,,,,,,,,,,,,,,12,12,1,112,-0.936516484,2.317959636,9,Experiment,,,,,,,,,69,1,8,8,,,,,,,,,,,,,,,403.1162728,403.8311902,403.1162728,403.8311902,89.11564626,1583778753,1583778756,3.787733078,1583778749,1583778753,,,HL,1,21,female,undergrad,2020_Mar_09_1126,AdjustEyeTrack,3.1.5,59.93553023
93,Stimuli/Morph93.JPG,Stimuli/Morph93.png,Stimuli/BlurLevel5/BlurEditedMorph93,Stimuli/BlurLevel5/BlurEditedMorph93.png,Stimuli/BlurLevel5/NumberedMorphs/BlurEditedMorph93.png,Stimuli/BlurLevel5/OriginalBlur/BlurEditedMorph93.png,Stimuli/BlurMorphTrio/EditedMorph93.png,020280right.gif,Stimuli/normal_thumbnails/93right.gif,,,,,0,0,0,0,0,12,12,92,,,,,,,,,,,,,,,,,,,,,,,15,13,1,302,1.324798161,-2.12012024,93,Experiment,,,,,,,,,3,110,-17,-17,,,,,,,,,,,,,,,410.2610211,410.9561863,410.2610211,410.9561863,76.8707483,1583778760,1583778762,1.967544079,1583778757,1583778760,,,HL,1,21,female,undergrad,2020_Mar_09_1126,AdjustEyeTrack,3.1.5,59.93553023
11,Stimuli/Morph11.JPG,Stimuli/Morph11.png,Stimuli/BlurLevel5/BlurEditedMorph11,Stimuli/BlurLevel5/BlurEditedMorph11.png,Stimuli/BlurLevel5/NumberedMorphs/BlurEditedMorph11.png,Stimuli/BlurLevel5/OriginalBlur/BlurEditedMorph11.png,Stimuli/BlurMorphTrio/EditedMorph11.png,010024right.gif,Stimuli/normal_thumbnails/11right.gif,,,,,0,0,0,0,0,13,13,10,,,,,,,,,,,,,,,,,,,,,,,22,14,1,54,1.469463131,2.022542486,11,Experiment,,,,,,,,,42,9,2,2,,,,,,,,,,,,,,,415.5209164,416.2159023,415.5209164,416.2159023,97.27891156,1583778765,1583778767,2.166476965,1583778762,1583778765,,,HL,1,21,female,undergrad,2020_Mar_09_1126,AdjustEyeTrack,3.1.5,59.93553023
101,Stimuli/Morph101.JPG,Stimuli/Morph101.png,Stimuli/BlurLevel5/BlurEditedMorph101,Stimuli/BlurLevel5/BlurEditedMorph101.png,Stimuli/BlurLevel5/NumberedMorphs/BlurEditedMorph101.png,Stimuli/BlurLevel5/OriginalBlur/BlurEditedMorph101.png,Stimuli/BlurMorphTrio/EditedMorph101.png,None,None,,,,,0,0,0,0,0,14,14,100,,,,,,,,,,,,,,,,,,,,,,,91,15,1,233,-1.504537558,-1.996588775,101,Experiment,,,,,,,,,4,105,-4,-4,,,,,,,,,,,,,,,421.254902,421.9785158,421.254902,421.9785158,94.55782313,1583778771,1583778772,1.666954994,1583778768,1583778771,,,HL,1,21,female,undergrad,2020_Mar_09_1126,AdjustEyeTrack,3.1.5,59.93553023
124,Stimuli/Morph124.JPG,Stimuli/Morph124.png,Stimuli/BlurLevel5/BlurEditedMorph124,Stimuli/BlurLevel5/BlurEditedMorph124.png,Stimuli/BlurLevel5/NumberedMorphs/BlurEditedMorph124.png,Stimuli/BlurLevel5/OriginalBlur/BlurEditedMorph124.png,Stimuli/BlurMorphTrio/EditedMorph124.png,None,None,,,,,0,0,0,0,0,15,15,123,,,,,,,,,,,,,,,,,,,,,,,44,16,1,25,2.265769468,1.056545654,124,Experiment,,,,,,,,,83,113,11,11,,,,,,,,,,,,,,,426.3268368,427.0323233,426.3268368,427.0323233,85.03401361,1583778776,1583778779,2.967221975,1583778773,1583778776,,,HL,1,21,female,undergrad,2020_Mar_09_1126,AdjustEyeTrack,3.1.5,59.93553023
137,Stimuli/Morph137.JPG,Stimuli/Morph137.png,Stimuli/BlurLevel5/BlurEditedMorph137,Stimuli/BlurLevel5/BlurEditedMorph137.png,Stimuli/BlurLevel5/NumberedMorphs/BlurEditedMorph137.png,Stimuli/BlurLevel5/OriginalBlur/BlurEditedMorph137.png,Stimuli/BlurMorphTrio/EditedMorph137.png,None,None,,,,,0,0,0,0,0,16,16,136,,,,,,,,,,,,,,,,,,,,,,,40,17,1,297,1.134976249,-2.22751631,137,Experiment,,,,,,,,,140,140,-3,-3,,,,,,,,,,,,,,,432.7217622,433.4264928,432.7217622,433.4264928,95.91836735,1583778782,1583778784,1.372121096,1583778779,1583778782,,,HL,1,21,female,undergrad,2020_Mar_09_1126,AdjustEyeTrack,3.1.5,59.93553023
31,Stimuli/Morph31.JPG,Stimuli/Morph31.png,Stimuli/BlurLevel5/BlurEditedMorph31,Stimuli/BlurLevel5/BlurEditedMorph31.png,Stimuli/BlurLevel5/NumberedMorphs/BlurEditedMorph31.png,Stimuli/BlurLevel5/OriginalBlur/BlurEditedMorph31.png,Stimuli/BlurMorphTrio/EditedMorph31.png,010079right.gif,Stimuli/normal_thumbnails/31right.gif,,,,,0,0,0,0,0,17,17,30,,,,,,,,,,,,,,,,,,,,,,,98,18,1,237,-1.361597588,-2.09667642,31,Experiment,,,,,,,,,138,32,-1,-1,,,,,,,,,,,,,,,437.6363403,438.3399506,437.6363403,438.3399506,98.63945578,1583778787,1583778790,3.083108902,1583778784,1583778787,,,HL,1,21,female,undergrad,2020_Mar_09_1126,AdjustEyeTrack,3.1.5,59.93553023
73,Stimuli/Morph73.JPG,Stimuli/Morph73.png,Stimuli/BlurLevel5/BlurEditedMorph73,Stimuli/BlurLevel5/BlurEditedMorph73.png,Stimuli/BlurLevel5/NumberedMorphs/BlurEditedMorph73.png,Stimuli/BlurLevel5/OriginalBlur/BlurEditedMorph73.png,Stimuli/BlurMorphTrio/EditedMorph73.png,020230right.gif,Stimuli/normal_thumbnails/73right.gif,,,,,0,0,0,0,0,18,18,72,,,,,,,,,,,,,,,,,,,,,,,70,19,1,256,-0.604804739,-2.425739316,73,Experiment,,,,,,,,,108,80,-7,-7,,,,,,,,,,,,,,,443.9591616,444.6497077,443.9591616,444.6497077,90.47619048,1583778793,1583778799,5.666539192,1583778791,1583778793,,,HL,1,21,female,undergrad,2020_Mar_09_1126,AdjustEyeTrack,3.1.5,59.93553023
70,Stimuli/Morph70.JPG,Stimuli/Morph70.png,Stimuli/BlurLevel5/BlurEditedMorph70,Stimuli/BlurLevel5/BlurEditedMorph70.png,Stimuli/BlurLevel5/NumberedMorphs/BlurEditedMorph70.png,Stimuli/BlurLevel5/OriginalBlur/BlurEditedMorph70.png,Stimuli/BlurMorphTrio/EditedMorph70.png,020221right.gif,Stimuli/normal_thumbnails/70right.gif,,,,,0,0,0,0,0,19,19,69,,,,,,,,,,,,,,,,,,,,,,,32,20,1,86,0.174391184,2.493910126,70,Experiment,,,,,,,,,137,36,34,34,,,,,,,,,,,,,,,453.0105001,453.7099137,453.0105001,453.7099137,53.7414966,1583778802,1583778807,4.648397923,1583778800,1583778802,,,HL,1,21,female,undergrad,2020_Mar_09_1126,AdjustEyeTrack,3.1.5,59.93553023
59,Stimuli/Morph59.JPG,Stimuli/Morph59.png,Stimuli/BlurLevel5/BlurEditedMorph59,Stimuli/BlurLevel5/BlurEditedMorph59.png,Stimuli/BlurLevel5/NumberedMorphs/BlurEditedMorph59.png,Stimuli/BlurLevel5/OriginalBlur/BlurEditedMorph59.png,Stimuli/BlurMorphTrio/EditedMorph59.png,010160right.gif,Stimuli/normal_thumbnails/59right.gif,,,,,0,0,0,0,0,20,20,58,,,,,,,,,,,,,,,,,,,,,,,89,21,1,51,1.573300978,1.942864904,59,Experiment,,,,,,,,,23,66,-7,-7,,,,,,,,,,,,,,,461.0238185,461.7275588,461.0238185,461.7275588,90.47619048,1583778810,1583778815,5.005752087,1583778808,1583778810,,,HL,1,21,female,undergrad,2020_Mar_09_1126,AdjustEyeTrack,3.1.5,59.93553023
127,Stimuli/Morph127.JPG,Stimuli/Morph127.png,Stimuli/BlurLevel5/BlurEditedMorph127,Stimuli/BlurLevel5/BlurEditedMorph127.png,Stimuli/BlurLevel5/NumberedMorphs/BlurEditedMorph127.png,Stimuli/BlurLevel5/OriginalBlur/BlurEditedMorph127.png,Stimuli/BlurMorphTrio/EditedMorph127.png,None,None,,,,,0,0,0,0,0,21,21,126,,,,,,,,,,,,,,,,,,,,,,,69,22,1,126,-1.469463131,2.022542486,127,Experiment,,,,,,,,,138,114,13,13,,,,,,,,,,,,,,,469.5963921,470.3055156,469.5963921,470.3055156,82.31292517,1583778819,1583778824,5.399913073,1583778816,1583778819,,,HL,1,21,female,undergrad,2020_Mar_09_1126,AdjustEyeTrack,3.1.5,59.93553023
121,Stimuli/Morph121.JPG,Stimuli/Morph121.png,Stimuli/BlurLevel5/BlurEditedMorph121,Stimuli/BlurLevel5/BlurEditedMorph121.png,Stimuli/BlurLevel5/NumberedMorphs/BlurEditedMorph121.png,Stimuli/BlurLevel5/OriginalBlur/BlurEditedMorph121.png,Stimuli/BlurMorphTrio/EditedMorph121.png,None,None,,,,,0,0,0,0,0,22,22,120,,,,,,,,,,,,,,,,,,,,,,,63,23,1,196,-2.40315424,-0.68909339,121,Experiment,,,,,,,,,25,118,3,3,,,,,,,,,,,,,,,478.3210846,479.0159705,478.3210846,479.0159705,95.91836735,1583778828,1583778832,4.515111923,1583778825,1583778828,,,HL,1,21,female,undergrad,2020_Mar_09_1126,AdjustEyeTrack,3.1.5,59.93553023
42,Stimuli/Morph42.JPG,Stimuli/Morph42.png,Stimuli/BlurLevel5/BlurEditedMorph42,Stimuli/BlurLevel5/BlurEditedMorph42.png,Stimuli/BlurLevel5/NumberedMorphs/BlurEditedMorph42.png,Stimuli/BlurLevel5/OriginalBlur/BlurEditedMorph42.png,Stimuli/BlurMorphTrio/EditedMorph42.png,010121right.gif,Stimuli/normal_thumbnails/42right.gif,,,,,0,0,0,0,0,23,23,41,,,,,,,,,,,,,,,,,,,,,,,65,24,1,80,0.434120444,2.462019383,42,Experiment,,,,,,,,,26,40,2,2,,,,,,,,,,,,,,,486.2131133,486.914656,486.2131133,486.914656,97.27891156,1583778836,1583778838,2.71532321,1583778833,1583778836,,,HL,1,21,female,undergrad,2020_Mar_09_1126,AdjustEyeTrack,3.1.5,59.93553023
16,Stimuli/Morph16.JPG,Stimuli/Morph16.png,Stimuli/BlurLevel5/BlurEditedMorph16,Stimuli/BlurLevel5/BlurEditedMorph16.png,Stimuli/BlurLevel5/NumberedMorphs/BlurEditedMorph16.png,Stimuli/BlurLevel5/OriginalBlur/BlurEditedMorph16.png,Stimuli/BlurMorphTrio/EditedMorph16.png,010034right.gif,Stimuli/normal_thumbnails/16right.gif,,,,,0,0,0,0,0,24,24,15,,,,,,,,,,,,,,,,,,,,,,,33,25,1,75,0.647047613,2.414814566,16,Experiment,,,,,,,,,121,23,-7,-7,,,,,,,,,,,,,,,492.2476551,492.9366515,492.2476551,492.9366515,90.47619048,1583778842,1583778844,2.511595964,1583778839,1583778842,,,HL,1,21,female,undergrad,2020_Mar_09_1126,AdjustEyeTrack,3.1.5,59.93553023
3,Stimuli/Morph3.JPG,Stimuli/Morph3.png,Stimuli/BlurLevel5/BlurEditedMorph3,Stimuli/BlurLevel5/BlurEditedMorph3.png,Stimuli/BlurLevel5/NumberedMorphs/BlurEditedMorph3.png,Stimuli/BlurLevel5/OriginalBlur/BlurEditedMorph3.png,Stimuli/BlurMorphTrio/EditedMorph3.png,010009right.gif,Stimuli/normal_thumbnails/3right.gif,,,,,0,0,0,0,0,25,25,2,,,,,,,,,,,,,,,,,,,,,,,59,26,1,76,0.604804739,2.425739316,3,Experiment,,,,,,,,,14,6,-3,-3,,,,,,,,,,,,,,,497.8583581,498.5420743,497.8583581,498.5420743,95.91836735,1583778847,1583778849,2.082362175,1583778845,1583778847,,,HL,1,21,female,undergrad,2020_Mar_09_1126,AdjustEyeTrack,3.1.5,59.93553023
8,Stimuli/Morph8.JPG,Stimuli/Morph8.png,Stimuli/BlurLevel5/BlurEditedMorph8,Stimuli/BlurLevel5/BlurEditedMorph8.png,Stimuli/BlurLevel5/NumberedMorphs/BlurEditedMorph8.png,Stimuli/BlurLevel5/OriginalBlur/BlurEditedMorph8.png,Stimuli/BlurMorphTrio/EditedMorph8.png,010014right.gif,Stimuli/normal_thumbnails/8right.gif,,,,,0,0,0,0,0,26,26,7,,,,,,,,,,,,,,,,,,,,,,,62,27,1,282,0.519779227,-2.445369002,8,Experiment,,,,,,,,,26,4,4,4,,,,,,,,,,,,,,,503.3167898,504.0188353,503.3167898,504.0188353,94.55782313,1583778853,1583778855,1.832638025,1583778850,1583778853,,,HL,1,21,female,undergrad,2020_Mar_09_1126,AdjustEyeTrack,3.1.5,59.93553023
96,Stimuli/Morph96.JPG,Stimuli/Morph96.png,Stimuli/BlurLevel5/BlurEditedMorph96,Stimuli/BlurLevel5/BlurEditedMorph96.png,Stimuli/BlurLevel5/NumberedMorphs/BlurEditedMorph96.png,Stimuli/BlurLevel5/OriginalBlur/BlurEditedMorph96.png,Stimuli/BlurMorphTrio/EditedMorph96.png,020292right.gif,Stimuli/normal_thumbnails/96right.gif,,,,,0,0,0,0,0,27,27,95,,,,,,,,,,,,,,,,,,,,,,,51,28,1,246,-1.016841608,-2.283863644,96,Experiment,,,,,,,,,129,111,-15,-15,,,,,,,,,,,,,,,508.6527949,509.34927,508.6527949,509.34927,79.59183673,1583778858,1583778861,2.444947958,1583778855,1583778858,,,HL,1,21,female,undergrad,2020_Mar_09_1126,AdjustEyeTrack,3.1.5,59.93553023
109,Stimuli/Morph109.JPG,Stimuli/Morph109.png,Stimuli/BlurLevel5/BlurEditedMorph109,Stimuli/BlurLevel5/BlurEditedMorph109.png,Stimuli/BlurLevel5/NumberedMorphs/BlurEditedMorph109.png,Stimuli/BlurLevel5/OriginalBlur/BlurEditedMorph109.png,Stimuli/BlurMorphTrio/EditedMorph109.png,None,None,,,,,0,0,0,0,0,28,28,108,,,,,,,,,,,,,,,,,,,,,,,100,29,1,140,-1.915111108,1.606969024,109,Experiment,,,,,,,,,46,112,-3,-3,,,,,,,,,,,,,,,514.386132,515.0759124,514.386132,515.0759124,95.91836735,1583778864,1583778867,3.261940956,1583778861,1583778864,,,HL,1,21,female,undergrad,2020_Mar_09_1126,AdjustEyeTrack,3.1.5,59.93553023
1,Stimuli/Morph1.JPG,Stimuli/Morph1.png,Stimuli/BlurLevel5/BlurEditedMorph1,Stimuli/BlurLevel5/BlurEditedMorph1.png,Stimuli/BlurLevel5/NumberedMorphs/BlurEditedMorph1.png,Stimuli/BlurLevel5/OriginalBlur/BlurEditedMorph1.png,Stimuli/BlurMorphTrio/EditedMorph1.png,010003right.gif,Stimuli/normal_thumbnails/1right.gif,,,,,0,0,0,0,0,29,29,0,,,,,,,,,,,,,,,,,,,,,,,80,30,1,305,1.433941091,-2.047880111,1,Experiment,,,,,,,,,101,5,-4,-4,,,,,,,,,,,,,,,520.8657501,521.5739678,520.8657501,521.5739678,94.55782313,1583778870,1583778873,2.413743019,1583778868,1583778870,,,HL,1,21,female,undergrad,2020_Mar_09_1126,AdjustEyeTrack,3.1.5,59.93553023
115,Stimuli/Morph115.JPG,Stimuli/Morph115.png,Stimuli/BlurLevel5/BlurEditedMorph115,Stimuli/BlurLevel5/BlurEditedMorph115.png,Stimuli/BlurLevel5/NumberedMorphs/BlurEditedMorph115.png,Stimuli/BlurLevel5/OriginalBlur/BlurEditedMorph115.png,Stimuli/BlurMorphTrio/EditedMorph115.png,None,None,,,,,0,0,0,0,0,30,30,114,,,,,,,,,,,,,,,,,,,,,,,81,31,1,95,-0.217889357,2.490486745,115,Experiment,,,,,,,,,46,109,6,6,,,,,,,,,,,,,,,526.4972017,527.1809955,526.4972017,527.1809955,91.83673469,1583778876,1583778879,3.081646204,1583778873,1583778876,,,HL,1,21,female,undergrad,2020_Mar_09_1126,AdjustEyeTrack,3.1.5,59.93553023
58,Stimuli/Morph58.JPG,Stimuli/Morph58.png,Stimuli/BlurLevel5/BlurEditedMorph58,Stimuli/BlurLevel5/BlurEditedMorph58.png,Stimuli/BlurLevel5/NumberedMorphs/BlurEditedMorph58.png,Stimuli/BlurLevel5/OriginalBlur/BlurEditedMorph58.png,Stimuli/BlurMorphTrio/EditedMorph58.png,010159right.gif,Stimuli/normal_thumbnails/58right.gif,,,,,0,0,0,0,0,31,31,57,,,,,,,,,,,,,,,,,,,,,,,29,32,1,270,-4.59E-16,-2.5,58,Experiment,,,,,,,,,29,45,13,13,,,,,,,,,,,,,,,533.117953,533.8315366,533.117953,533.8315366,82.31292517,1583778883,1583778884,1.913892031,1583778880,1583778883,,,HL,1,21,female,undergrad,2020_Mar_09_1126,AdjustEyeTrack,3.1.5,59.93553023
99,Stimuli/Morph99.JPG,Stimuli/Morph99.png,Stimuli/BlurLevel5/BlurEditedMorph99,Stimuli/BlurLevel5/BlurEditedMorph99.png,Stimuli/BlurLevel5/NumberedMorphs/BlurEditedMorph99.png,Stimuli/BlurLevel5/OriginalBlur/BlurEditedMorph99.png,Stimuli/BlurMorphTrio/EditedMorph99.png,020299right.gif,Stimuli/normal_thumbnails/99right.gif,,,,,0,0,0,0,0,32,32,98,,,,,,,,,,,,,,,,,,,,,,,30,33,1,153,-2.22751631,1.134976249,99,Experiment,,,,,,,,,102,102,-3,-3,,,,,,,,,,,,,,,538.451147,539.1564618,538.451147,539.1564618,95.91836735,1583778888,1583778889,0.883345127,1583778885,1583778888,,,HL,1,21,female,undergrad,2020_Mar_09_1126,AdjustEyeTrack,3.1.5,59.93553023
113,Stimuli/Morph113.JPG,Stimuli/Morph113.png,Stimuli/BlurLevel5/BlurEditedMorph113,Stimuli/BlurLevel5/BlurEditedMorph113.png,Stimuli/BlurLevel5/NumberedMorphs/BlurEditedMorph113.png,Stimuli/BlurLevel5/OriginalBlur/BlurEditedMorph113.png,Stimuli/BlurMorphTrio/EditedMorph113.png,None,None,,,,,0,0,0,0,0,33,33,112,,,,,,,,,,,,,,,,,,,,,,,41,34,1,97,-0.304673359,2.481365379,113,Experiment,,,,,,,,,110,108,5,5,,,,,,,,,,,,,,,542.7590647,543.4548929,542.7590647,543.4548929,93.19727891,1583778892,1583778894,1.616436958,1583778889,1583778892,,,HL,1,21,female,undergrad,2020_Mar_09_1126,AdjustEyeTrack,3.1.5,59.93553023
48,Stimuli/Morph48.JPG,Stimuli/Morph48.png,Stimuli/BlurLevel5/BlurEditedMorph48,Stimuli/BlurLevel5/BlurEditedMorph48.png,Stimuli/BlurLevel5/NumberedMorphs/BlurEditedMorph48.png,Stimuli/BlurLevel5/OriginalBlur/BlurEditedMorph48.png,Stimuli/BlurMorphTrio/EditedMorph48.png,010131right.gif,Stimuli/normal_thumbnails/48right.gif,,,,,0,0,0,0,0,34,34,47,,,,,,,,,,,,,,,,,,,,,,,29,35,1,289,0.813920386,-2.363796439,48,Experiment,,,,,,,,,73,45,3,3,,,,,,,,,,,,,,,547.9712811,548.6970756,547.9712811,548.6970756,95.91836735,1583778897,1583778900,2.881807089,1583778894,1583778897,,,HL,1,21,female,undergrad,2020_Mar_09_1126,AdjustEyeTrack,3.1.5,59.93553023
32,Stimuli/Morph32.JPG,Stimuli/Morph32.png,Stimuli/BlurLevel5/BlurEditedMorph32,Stimuli/BlurLevel5/BlurEditedMorph32.png,Stimuli/BlurLevel5/NumberedMorphs/BlurEditedMorph32.png,Stimuli/BlurLevel5/OriginalBlur/BlurEditedMorph32.png,Stimuli/BlurMorphTrio/EditedMorph32.png,010080right.gif,Stimuli/normal_thumbnails/32right.gif,,,,,0,0,0,0,0,35,35,31,,,,,,,,,,,,,,,,,,,,,,,54,36,1,131,-1.640147572,1.886773951,32,Experiment,,,,,,,,,35,35,-3,-3,,,,,,,,,,,,,,,554.2108062,554.9075983,554.2108062,554.9075983,95.91836735,1583778904,1583778905,1.36680603,1583778901,1583778904,,,HL,1,21,female,undergrad,2020_Mar_09_1126,AdjustEyeTrack,3.1.5,59.93553023
34,Stimuli/Morph34.JPG,Stimuli/Morph34.png,Stimuli/BlurLevel5/BlurEditedMorph34,Stimuli/BlurLevel5/BlurEditedMorph34.png,Stimuli/BlurLevel5/NumberedMorphs/BlurEditedMorph34.png,Stimuli/BlurLevel5/OriginalBlur/BlurEditedMorph34.png,Stimuli/BlurMorphTrio/EditedMorph34.png,010090right.gif,Stimuli/normal_thumbnails/34right.gif,,,,,0,0,0,0,0,36,36,33,,,,,,,,,,,,,,,,,,,,,,,59,37,1,2,2.498477068,0.087248742,34,Experiment,,,,,,,,,115,29,5,5,,,,,,,,,,,,,,,558.6904457,559.3809871,558.6904457,559.3809871,93.19727891,1583778908,1583778912,3.600479126,1583778906,1583778908,,,HL,1,21,female,undergrad,2020_Mar_09_1126,AdjustEyeTrack,3.1.5,59.93553023
104,Stimuli/Morph104.JPG,Stimuli/Morph104.png,Stimuli/BlurLevel5/BlurEditedMorph104,Stimuli/BlurLevel5/BlurEditedMorph104.png,Stimuli/BlurLevel5/NumberedMorphs/BlurEditedMorph104.png,Stimuli/BlurLevel5/OriginalBlur/BlurEditedMorph104.png,Stimuli/BlurMorphTrio/EditedMorph104.png,None,None,,,,,0,0,0,0,0,37,37,103,,,,,,,,,,,,,,,,,,,,,,,40,38,1,82,0.347932752,2.475670172,104,Experiment,,,,,,,,,145,106,-2,-2,,,,,,,,,,,,,,,565.7187231,566.4191737,565.7187231,566.4191737,97.27891156,1583778915,1583778919,3.770230055,1583778912,1583778915,,,HL,1,21,female,undergrad,2020_Mar_09_1126,AdjustEyeTrack,3.1.5,59.93553023
38,Stimuli/Morph38.JPG,Stimuli/Morph38.png,Stimuli/BlurLevel5/BlurEditedMorph38,Stimuli/BlurLevel5/BlurEditedMorph38.png,Stimuli/BlurLevel5/NumberedMorphs/BlurEditedMorph38.png,Stimuli/BlurLevel5/OriginalBlur/BlurEditedMorph38.png,Stimuli/BlurMorphTrio/EditedMorph38.png,010108right.gif,Stimuli/normal_thumbnails/38right.gif,,,,,0,0,0,0,0,38,38,37,,,,,,,,,,,,,,,,,,,,,,,14,39,1,94,-0.174391184,2.493910126,38,Experiment,,,,,,,,,91,35,3,3,,,,,,,,,,,,,,,572.9262723,573.6206863,572.9262723,573.6206863,95.91836735,1583778922,1583778927,4.381983995,1583778919,1583778922,,,HL,1,21,female,undergrad,2020_Mar_09_1126,AdjustEyeTrack,3.1.5,59.93553023
81,Stimuli/Morph81.JPG,Stimuli/Morph81.png,Stimuli/BlurLevel5/BlurEditedMorph81,Stimuli/BlurLevel5/BlurEditedMorph81.png,Stimuli/BlurLevel5/NumberedMorphs/BlurEditedMorph81.png,Stimuli/BlurLevel5/OriginalBlur/BlurEditedMorph81.png,Stimuli/BlurMorphTrio/EditedMorph81.png,020245right.gif,Stimuli/normal_thumbnails/81right.gif,,,,,0,0,0,0,0,39,39,80,,,,,,,,,,,,,,,,,,,,,,,94,40,1,86,0.174391184,2.493910126,81,Experiment,,,,,,,,,141,110,-29,-29,,,,,,,,,,,,,,,580.8710532,581.5826157,580.8710532,581.5826157,60.54421769,1583778930,1583778934,3.450443983,1583778927,1583778930,,,HL,1,21,female,undergrad,2020_Mar_09_1126,AdjustEyeTrack,3.1.5,59.93553023
89,Stimuli/Morph89.JPG,Stimuli/Morph89.png,Stimuli/BlurLevel5/BlurEditedMorph89,Stimuli/BlurLevel5/BlurEditedMorph89.png,Stimuli/BlurLevel5/NumberedMorphs/BlurEditedMorph89.png,Stimuli/BlurLevel5/OriginalBlur/BlurEditedMorph89.png,Stimuli/BlurMorphTrio/EditedMorph89.png,020273right.gif,Stimuli/normal_thumbnails/89right.gif,,,,,0,0,0,0,0,40,40,88,,,,,,,,,,,,,,,,,,,,,,,90,41,1,292,0.936516484,-2.317959636,89,Experiment,,,,,,,,,37,103,-14,-14,,,,,,,,,,,,,,,587.6119988,588.3085227,587.6119988,588.3085227,80.95238095,1583778937,1583778941,3.965014935,1583778934,1583778937,,,HL,1,21,female,undergrad,2020_Mar_09_1126,AdjustEyeTrack,3.1.5,59.93553023
71,Stimuli/Morph71.JPG,Stimuli/Morph71.png,Stimuli/BlurLevel5/BlurEditedMorph71,Stimuli/BlurLevel5/BlurEditedMorph71.png,Stimuli/BlurLevel5/NumberedMorphs/BlurEditedMorph71.png,Stimuli/BlurLevel5/OriginalBlur/BlurEditedMorph71.png,Stimuli/BlurMorphTrio/EditedMorph71.png,020225right.gif,Stimuli/normal_thumbnails/71right.gif,,,,,0,0,0,0,0,41,41,70,,,,,,,,,,,,,,,,,,,,,,,12,42,1,90,1.53E-16,2.5,71,Experiment,,,,,,,,,48,75,-4,-4,,,,,,,,,,,,,,,595.1500511,595.8473924,595.1500511,595.8473924,94.55782313,1583778945,1583778949,3.998950243,1583778942,1583778945,,,HL,1,21,female,undergrad,2020_Mar_09_1126,AdjustEyeTrack,3.1.5,59.93553023
119,Stimuli/Morph119.JPG,Stimuli/Morph119.png,Stimuli/BlurLevel5/BlurEditedMorph119,Stimuli/BlurLevel5/BlurEditedMorph119.png,Stimuli/BlurLevel5/NumberedMorphs/BlurEditedMorph119.png,Stimuli/BlurLevel5/OriginalBlur/BlurEditedMorph119.png,Stimuli/BlurMorphTrio/EditedMorph119.png,None,None,,,,,0,0,0,0,0,42,42,118,,,,,,,,,,,,,,,,,,,,,,,3,43,1,232,-1.539153688,-1.970026884,119,Experiment,,,,,,,,,103,118,1,1,,,,,,,,,,,,,,,602.5866461,603.2924727,602.5866461,603.2924727,98.63945578,1583778952,1583778956,3.629729986,1583778949,1583778952,,,HL,1,21,female,undergrad,2020_Mar_09_1126,AdjustEyeTrack,3.1.5,59.93553023
30,Stimuli/Morph30.JPG,Stimuli/Morph30.png,Stimuli/BlurLevel5/BlurEditedMorph30,Stimuli/BlurLevel5/BlurEditedMorph30.png,Stimuli/BlurLevel5/NumberedMorphs/BlurEditedMorph30.png,Stimuli/BlurLevel5/OriginalBlur/BlurEditedMorph30.png,Stimuli/BlurMorphTrio/EditedMorph30.png,010076right.gif,Stimuli/normal_thumbnails/30right.gif,,,,,0,0,0,0,0,43,43,29,,,,,,,,,,,,,,,,,,,,,,,88,44,1,355,2.490486745,-0.217889357,30,Experiment,,,,,,,,,115,36,-6,-6,,,,,,,,,,,,,,,609.6773196,610.3974261,609.6773196,610.3974261,91.83673469,1583778959,1583778962,2.782384157,1583778956,1583778959,,,HL,1,21,female,undergrad,2020_Mar_09_1126,AdjustEyeTrack,3.1.5,59.93553023
54,Stimuli/Morph54.JPG,Stimuli/Morph54.png,Stimuli/BlurLevel5/BlurEditedMorph54,Stimuli/BlurLevel5/BlurEditedMorph54.png,Stimuli/BlurLevel5/NumberedMorphs/BlurEditedMorph54.png,Stimuli/BlurLevel5/OriginalBlur/BlurEditedMorph54.png,Stimuli/BlurMorphTrio/EditedMorph54.png,010150right.gif,Stimuli/normal_thumbnails/54right.gif,,,,,0,0,0,0,0,44,44,53,,,,,,,,,,,,,,,,,,,,,,,75,45,1,59,1.287595187,2.142918252,54,Experiment,,,,,,,,,73,66,-12,-12,,,,,,,,,,,,,,,615.6612444,616.3498285,615.6612444,616.3498285,83.67346939,1583778965,1583778971,5.715365887,1583778962,1583778965,,,HL,1,21,female,undergrad,2020_Mar_09_1126,AdjustEyeTrack,3.1.5,59.93553023
57,Stimuli/Morph57.JPG,Stimuli/Morph57.png,Stimuli/BlurLevel5/BlurEditedMorph57,Stimuli/BlurLevel5/BlurEditedMorph57.png,Stimuli/BlurLevel5/NumberedMorphs/BlurEditedMorph57.png,Stimuli/BlurLevel5/OriginalBlur/BlurEditedMorph57.png,Stimuli/BlurMorphTrio/EditedMorph57.png,010158right.gif,Stimuli/normal_thumbnails/57right.gif,,,,,0,0,0,0,0,45,45,56,,,,,,,,,,,,,,,,,,,,,,,67,46,1,331,2.186549268,-1.212024051,57,Experiment,,,,,,,,,65,65,-8,-8,,,,,,,,,,,,,,,624.7814231,625.496474,624.7814231,625.496474,89.11564626,1583778974,1583778975,0.916274071,1583778971,1583778974,,,HL,1,21,female,undergrad,2020_Mar_09_1126,AdjustEyeTrack,3.1.5,59.93553023
103,Stimuli/Morph103.JPG,Stimuli/Morph103.png,Stimuli/BlurLevel5/BlurEditedMorph103,Stimuli/BlurLevel5/BlurEditedMorph103.png,Stimuli/BlurLevel5/NumberedMorphs/BlurEditedMorph103.png,Stimuli/BlurLevel5/OriginalBlur/BlurEditedMorph103.png,Stimuli/BlurMorphTrio/EditedMorph103.png,None,None,,,,,0,0,0,0,0,46,46,102,,,,,,,,,,,,,,,,,,,,,,,40,47,1,280,0.434120444,-2.462019383,103,Experiment,,,,,,,,,52,105,-2,-2,,,,,,,,,,,,,,,629.1436467,629.8417799,629.1436467,629.8417799,97.27891156,1583778979,1583778982,3.166610003,1583778976,1583778979,,,HL,1,21,female,undergrad,2020_Mar_09_1126,AdjustEyeTrack,3.1.5,59.93553023
20,Stimuli/Morph20.JPG,Stimuli/Morph20.png,Stimuli/BlurLevel5/BlurEditedMorph20,Stimuli/BlurLevel5/BlurEditedMorph20.png,Stimuli/BlurLevel5/NumberedMorphs/BlurEditedMorph20.png,Stimuli/BlurLevel5/OriginalBlur/BlurEditedMorph20.png,Stimuli/BlurMorphTrio/EditedMorph20.png,010046right.gif,Stimuli/normal_thumbnails/20right.gif,,,,,0,0,0,0,0,47,47,19,,,,,,,,,,,,,,,,,,,,,,,61,48,1,42,1.857862064,1.672826516,20,Experiment,,,,,,,,,25,22,-2,-2,,,,,,,,,,,,,,,635.8431326,636.5624897,635.8431326,636.5624897,97.27891156,1583778985,1583778987,2.116368771,1583778982,1583778985,,,HL,1,21,female,undergrad,2020_Mar_09_1126,AdjustEyeTrack,3.1.5,59.93553023
112,Stimuli/Morph112.JPG,Stimuli/Morph112.png,Stimuli/BlurLevel5/BlurEditedMorph112,Stimuli/BlurLevel5/BlurEditedMorph112.png,Stimuli/BlurLevel5/NumberedMorphs/BlurEditedMorph112.png,Stimuli/BlurLevel5/OriginalBlur/BlurEditedMorph112.png,Stimuli/BlurMorphTrio/EditedMorph112.png,None,None,,,,,0,0,0,0,0,48,48,111,,,,,,,,,,,,,,,,,,,,,,,12,49,1,28,2.207368982,1.173678907,112,Experiment,,,,,,,,,145,110,2,2,,,,,,,,,,,,,,,641.556517,642.2739494,641.556517,642.2739494,97.27891156,1583778991,1583778992,1.433125973,1583778988,1583778991,,,HL,1,21,female,undergrad,2020_Mar_09_1126,AdjustEyeTrack,3.1.5,59.93553023
145,Stimuli/Morph145.JPG,Stimuli/Morph145.png,Stimuli/BlurLevel5/BlurEditedMorph145,Stimuli/BlurLevel5/BlurEditedMorph145.png,Stimuli/BlurLevel5/NumberedMorphs/BlurEditedMorph145.png,Stimuli/BlurLevel5/OriginalBlur/BlurEditedMorph145.png,Stimuli/BlurMorphTrio/EditedMorph145.png,None,None,,,,,0,0,0,0,0,49,49,144,,,,,,,,,,,,,,,,,,,,,,,42,50,1,197,-2.39076189,-0.730929262,145,Experiment,,,,,,,,,121,15,130,-17,,,,,,,,,,,,,,,646.7186674,647.4379945,646.7186674,647.4379945,76.8707483,1583778996,1583778999,2.366673231,1583778993,1583778996,,,HL,1,21,female,undergrad,2020_Mar_09_1126,AdjustEyeTrack,3.1.5,59.93553023
138,Stimuli/Morph138.JPG,Stimuli/Morph138.png,Stimuli/BlurLevel5/BlurEditedMorph138,Stimuli/BlurLevel5/BlurEditedMorph138.png,Stimuli/BlurLevel5/NumberedMorphs/BlurEditedMorph138.png,Stimuli/BlurLevel5/OriginalBlur/BlurEditedMorph138.png,Stimuli/BlurMorphTrio/EditedMorph138.png,None,None,,,,,0,0,0,0,0,50,50,137,,,,,,,,,,,,,,,,,,,,,,,68,51,1,54,1.469463131,2.022542486,138,Experiment,,,,,,,,,105,3,135,-12,,,,,,,,,,,,,,,652.4497022,653.1394061,652.4497022,653.1394061,83.67346939,1583779002,1583779005,3.066260815,1583778999,1583779002,,,HL,1,21,female,undergrad,2020_Mar_09_1126,AdjustEyeTrack,3.1.5,59.93553023
146,Stimuli/Morph146.JPG,Stimuli/Morph146.png,Stimuli/BlurLevel5/BlurEditedMorph146,Stimuli/BlurLevel5/BlurEditedMorph146.png,Stimuli/BlurLevel5/NumberedMorphs/BlurEditedMorph146.png,Stimuli/BlurLevel5/OriginalBlur/BlurEditedMorph146.png,Stimuli/BlurMorphTrio/EditedMorph146.png,None,None,,,,,0,0,0,0,0,51,51,145,,,,,,,,,,,,,,,,,,,,,,,30,52,1,58,1.324798161,2.12012024,146,Experiment,,,,,,,,,15,146,0,0,,,,,,,,,,,,,,,658.9003719,659.6090149,658.9003719,659.6090149,100,1583779008,1583779011,2.881783724,1583779005,1583779008,,,HL,1,21,female,undergrad,2020_Mar_09_1126,AdjustEyeTrack,3.1.5,59.93553023
106,Stimuli/Morph106.JPG,Stimuli/Morph106.png,Stimuli/BlurLevel5/BlurEditedMorph106,Stimuli/BlurLevel5/BlurEditedMorph106.png,Stimuli/BlurLevel5/NumberedMorphs/BlurEditedMorph106.png,Stimuli/BlurLevel5/OriginalBlur/BlurEditedMorph106.png,Stimuli/BlurMorphTrio/EditedMorph106.png,None,None,,,,,0,0,0,0,0,52,52,105,,,,,,,,,,,,,,,,,,,,,,,37,53,1,99,-0.391086163,2.469220851,106,Experiment,,,,,,,,,46,116,-10,-10,,,,,,,,,,,,,,,665.197292,665.881485,665.197292,665.881485,86.39455782,1583779015,1583779017,2.581421137,1583779012,1583779015,,,HL,1,21,female,undergrad,2020_Mar_09_1126,AdjustEyeTrack,3.1.5,59.93553023
6,Stimuli/Morph6.JPG,Stimuli/Morph6.png,Stimuli/BlurLevel5/BlurEditedMorph6,Stimuli/BlurLevel5/BlurEditedMorph6.png,Stimuli/BlurLevel5/NumberedMorphs/BlurEditedMorph6.png,Stimuli/BlurLevel5/OriginalBlur/BlurEditedMorph6.png,Stimuli/BlurMorphTrio/EditedMorph6.png,010012right.gif,Stimuli/normal_thumbnails/6right.gif,,,,,0,0,0,0,0,53,53,5,,,,,,,,,,,,,,,,,,,,,,,35,54,1,16,2.40315424,0.68909339,6,Experiment,,,,,,,,,122,5,1,1,,,,,,,,,,,,,,,671.0673669,671.7702493,671.0673669,671.7702493,98.63945578,1583779021,1583779023,2.132550955,1583779018,1583779021,,,HL,1,21,female,undergrad,2020_Mar_09_1126,AdjustEyeTrack,3.1.5,59.93553023
114,Stimuli/Morph114.JPG,Stimuli/Morph114.png,Stimuli/BlurLevel5/BlurEditedMorph114,Stimuli/BlurLevel5/BlurEditedMorph114.png,Stimuli/BlurLevel5/NumberedMorphs/BlurEditedMorph114.png,Stimuli/BlurLevel5/OriginalBlur/BlurEditedMorph114.png,Stimuli/BlurMorphTrio/EditedMorph114.png,None,None,,,,,0,0,0,0,0,54,54,113,,,,,,,,,,,,,,,,,,,,,,,57,55,1,39,1.942864904,1.573300978,114,Experiment,,,,,,,,,17,107,7,7,,,,,,,,,,,,,,,676.6850123,677.3958784,676.6850123,677.3958784,90.47619048,1583779026,1583779028,2.066130161,1583779023,1583779026,,,HL,1,21,female,undergrad,2020_Mar_09_1126,AdjustEyeTrack,3.1.5,59.93553023
126,Stimuli/Morph126.JPG,Stimuli/Morph126.png,Stimuli/BlurLevel5/BlurEditedMorph126,Stimuli/BlurLevel5/BlurEditedMorph126.png,Stimuli/BlurLevel5/NumberedMorphs/BlurEditedMorph126.png,Stimuli/BlurLevel5/OriginalBlur/BlurEditedMorph126.png,Stimuli/BlurMorphTrio/EditedMorph126.png,None,None,,,,,0,0,0,0,0,55,55,125,,,,,,,,,,,,,,,,,,,,,,,88,56,1,72,0.772542486,2.377641291,126,Experiment,,,,,,,,,20,109,17,17,,,,,,,,,,,,,,,682.2102137,682.9129618,682.2102137,682.9129618,76.8707483,1583779032,1583779034,1.914112806,1583779029,1583779032,,,HL,1,21,female,undergrad,2020_Mar_09_1126,AdjustEyeTrack,3.1.5,59.93553023
141,Stimuli/Morph141.JPG,Stimuli/Morph141.png,Stimuli/BlurLevel5/BlurEditedMorph141,Stimuli/BlurLevel5/BlurEditedMorph141.png,Stimuli/BlurLevel5/NumberedMorphs/BlurEditedMorph141.png,Stimuli/BlurLevel5/OriginalBlur/BlurEditedMorph141.png,Stimuli/BlurMorphTrio/EditedMorph141.png,None,None,,,,,0,0,0,0,0,56,56,140,,,,,,,,,,,,,,,,,,,,,,,1,57,1,47,1.7049959,1.828384254,141,Experiment,,,,,,,,,115,8,133,-14,,,,,,,,,,,,,,,686.8846609,687.5503697,686.8846609,687.5503697,80.95238095,1583779036,1583779038,1.816885948,1583779034,1583779036,,,HL,1,21,female,undergrad,2020_Mar_09_1126,AdjustEyeTrack,3.1.5,59.93553023
10,Stimuli/Morph10.JPG,Stimuli/Morph10.png,Stimuli/BlurLevel5/BlurEditedMorph10,Stimuli/BlurLevel5/BlurEditedMorph10.png,Stimuli/BlurLevel5/NumberedMorphs/BlurEditedMorph10.png,Stimuli/BlurLevel5/OriginalBlur/BlurEditedMorph10.png,Stimuli/BlurMorphTrio/EditedMorph10.png,010016right.gif,Stimuli/normal_thumbnails/10right.gif,,,,,0,0,0,0,0,57,57,9,,,,,,,,,,,,,,,,,,,,,,,97,58,1,147,-2.09667642,1.361597588,10,Experiment,,,,,,,,,105,10,0,0,,,,,,,,,,,,,,,692.1137032,692.8185017,692.1137032,692.8185017,100,1583779042,1583779044,2.681084871,1583779039,1583779042,,,HL,1,21,female,undergrad,2020_Mar_09_1126,AdjustEyeTrack,3.1.5,59.93553023
44,Stimuli/Morph44.JPG,Stimuli/Morph44.png,Stimuli/BlurLevel5/BlurEditedMorph44,Stimuli/BlurLevel5/BlurEditedMorph44.png,Stimuli/BlurLevel5/NumberedMorphs/BlurEditedMorph44.png,Stimuli/BlurLevel5/OriginalBlur/BlurEditedMorph44.png,Stimuli/BlurMorphTrio/EditedMorph44.png,010126right.gif,Stimuli/normal_thumbnails/44right.gif,,,,,0,0,0,0,0,58,58,43,,,,,,,,,,,,,,,,,,,,,,,5,59,1,185,-2.490486745,-0.217889357,44,Experiment,,,,,,,,,96,43,1,1,,,,,,,,,,,,,,,698.0672695,698.7502553,698.0672695,698.7502553,98.63945578,1583779047,1583779050,2.799670935,1583779045,1583779047,,,HL,1,21,female,undergrad,2020_Mar_09_1126,AdjustEyeTrack,3.1.5,59.93553023
123,Stimuli/Morph123.JPG,Stimuli/Morph123.png,Stimuli/BlurLevel5/BlurEditedMorph123,Stimuli/BlurLevel5/BlurEditedMorph123.png,Stimuli/BlurLevel5/NumberedMorphs/BlurEditedMorph123.png,Stimuli/BlurLevel5/OriginalBlur/BlurEditedMorph123.png,Stimuli/BlurMorphTrio/EditedMorph123.png,None,None,,,,,0,0,0,0,0,59,59,122,,,,,,,,,,,,,,,,,,,,,,,24,60,1,260,-0.434120444,-2.462019383,123,Experiment,,,,,,,,,141,91,32,32,,,,,,,,,,,,,,,704.1649177,704.8691976,704.1649177,704.8691976,56.46258503,1583779054,1583779057,2.933320999,1583779051,1583779054,,,HL,1,21,female,undergrad,2020_Mar_09_1126,AdjustEyeTrack,3.1.5,59.93553023
107,Stimuli/Morph107.JPG,Stimuli/Morph107.png,Stimuli/BlurLevel5/BlurEditedMorph107,Stimuli/BlurLevel5/BlurEditedMorph107.png,Stimuli/BlurLevel5/NumberedMorphs/BlurEditedMorph107.png,Stimuli/BlurLevel5/OriginalBlur/BlurEditedMorph107.png,Stimuli/BlurMorphTrio/EditedMorph107.png,None,None,,,,,0,0,0,0,0,60,60,106,,,,,,,,,,,,,,,,,,,,,,,20,61,1,338,2.317959636,-0.936516484,107,Experiment,,,,,,,,,10,105,2,2,,,,,,,,,,,,,,,710.4389915,711.1455706,710.4389915,711.1455706,97.27891156,1583779060,1583779063,2.766342163,1583779057,1583779060,,,HL,1,21,female,undergrad,2020_Mar_09_1126,AdjustEyeTrack,3.1.5,59.93553023
52,Stimuli/Morph52.JPG,Stimuli/Morph52.png,Stimuli/BlurLevel5/BlurEditedMorph52,Stimuli/BlurLevel5/BlurEditedMorph52.png,Stimuli/BlurLevel5/NumberedMorphs/BlurEditedMorph52.png,Stimuli/BlurLevel5/OriginalBlur/BlurEditedMorph52.png,Stimuli/BlurMorphTrio/EditedMorph52.png,010148right.gif,Stimuli/normal_thumbnails/52right.gif,,,,,0,0,0,0,0,61,61,51,,,,,,,,,,,,,,,,,,,,,,,73,62,1,150,-2.165063509,1.25,52,Experiment,,,,,,,,,90,49,3,3,,,,,,,,,,,,,,,716.5348831,717.2365817,716.5348831,717.2365817,95.91836735,1583779066,1583779069,2.650089025,1583779063,1583779066,,,HL,1,21,female,undergrad,2020_Mar_09_1126,AdjustEyeTrack,3.1.5,59.93553023
13,Stimuli/Morph13.JPG,Stimuli/Morph13.png,Stimuli/BlurLevel5/BlurEditedMorph13,Stimuli/BlurLevel5/BlurEditedMorph13.png,Stimuli/BlurLevel5/NumberedMorphs/BlurEditedMorph13.png,Stimuli/BlurLevel5/OriginalBlur/BlurEditedMorph13.png,Stimuli/BlurMorphTrio/EditedMorph13.png,010027right.gif,Stimuli/normal_thumbnails/13right.gif,,,,,0,0,0,0,0,62,62,12,,,,,,,,,,,,,,,,,,,,,,,71,63,1,89,0.043631016,2.499619238,13,Experiment,,,,,,,,,101,6,7,7,,,,,,,,,,,,,,,722.457567,723.1481697,722.457567,723.1481697,90.47619048,1583779072,1583779074,2.550098896,1583779069,1583779072,,,HL,1,21,female,undergrad,2020_Mar_09_1126,AdjustEyeTrack,3.1.5,59.93553023
125,Stimuli/Morph125.JPG,Stimuli/Morph125.png,Stimuli/BlurLevel5/BlurEditedMorph125,Stimuli/BlurLevel5/BlurEditedMorph125.png,Stimuli/BlurLevel5/NumberedMorphs/BlurEditedMorph125.png,Stimuli/BlurLevel5/OriginalBlur/BlurEditedMorph125.png,Stimuli/BlurMorphTrio/EditedMorph125.png,None,None,,,,,0,0,0,0,0,63,63,124,,,,,,,,,,,,,,,,,,,,,,,56,64,1,337,2.301262134,-0.976827821,125,Experiment,,,,,,,,,34,115,10,10,,,,,,,,,,,,,,,728.5353711,729.2470816,728.5353711,729.2470816,86.39455782,1583779078,1583779082,3.948246956,1583779075,1583779078,,,HL,1,21,female,undergrad,2020_Mar_09_1126,AdjustEyeTrack,3.1.5,59.93553023
63,Stimuli/Morph63.JPG,Stimuli/Morph63.png,Stimuli/BlurLevel5/BlurEditedMorph63,Stimuli/BlurLevel5/BlurEditedMorph63.png,Stimuli/BlurLevel5/NumberedMorphs/BlurEditedMorph63.png,Stimuli/BlurLevel5/OriginalBlur/BlurEditedMorph63.png,Stimuli/BlurMorphTrio/EditedMorph63.png,020206right.gif,Stimuli/normal_thumbnails/63right.gif,,,,,0,0,0,0,0,64,64,62,,,,,,,,,,,,,,,,,,,,,,,7,65,1,42,1.857862064,1.672826516,63,Experiment,,,,,,,,,78,60,3,3,,,,,,,,,,,,,,,735.8144765,736.5280243,735.8144765,736.5280243,95.91836735,1583779085,1583779088,2.882988691,1583779082,1583779085,,,HL,1,21,female,undergrad,2020_Mar_09_1126,AdjustEyeTrack,3.1.5,59.93553023
117,Stimuli/Morph117.JPG,Stimuli/Morph117.png,Stimuli/BlurLevel5/BlurEditedMorph117,Stimuli/BlurLevel5/BlurEditedMorph117.png,Stimuli/BlurLevel5/NumberedMorphs/BlurEditedMorph117.png,Stimuli/BlurLevel5/OriginalBlur/BlurEditedMorph117.png,Stimuli/BlurMorphTrio/EditedMorph117.png,None,None,,,,,0,0,0,0,0,65,65,116,,,,,,,,,,,,,,,,,,,,,,,22,66,1,33,2.09667642,1.361597588,117,Experiment,,,,,,,,,134,106,11,11,,,,,,,,,,,,,,,742.0446426,742.7485789,742.0446426,742.7485789,85.03401361,1583779091,1583779095,3.381902695,1583779089,1583779091,,,HL,1,21,female,undergrad,2020_Mar_09_1126,AdjustEyeTrack,3.1.5,59.93553023
46,Stimuli/Morph46.JPG,Stimuli/Morph46.png,Stimuli/BlurLevel5/BlurEditedMorph46,Stimuli/BlurLevel5/BlurEditedMorph46.png,Stimuli/BlurLevel5/NumberedMorphs/BlurEditedMorph46.png,Stimuli/BlurLevel5/OriginalBlur/BlurEditedMorph46.png,Stimuli/BlurMorphTrio/EditedMorph46.png,010128right.gif,Stimuli/normal_thumbnails/46right.gif,,,,,0,0,0,0,0,66,66,45,,,,,,,,,,,,,,,,,,,,,,,81,67,1,151,-2.186549268,1.212024051,46,Experiment,,,,,,,,,146,42,4,4,,,,,,,,,,,,,,,748.6343362,749.3232903,748.6343362,749.3232903,94.55782313,1583779098,1583779100,2.116495132,1583779095,1583779098,,,HL,1,21,female,undergrad,2020_Mar_09_1126,AdjustEyeTrack,3.1.5,59.93553023
75,Stimuli/Morph75.JPG,Stimuli/Morph75.png,Stimuli/BlurLevel5/BlurEditedMorph75,Stimuli/BlurLevel5/BlurEditedMorph75.png,Stimuli/BlurLevel5/NumberedMorphs/BlurEditedMorph75.png,Stimuli/BlurLevel5/OriginalBlur/BlurEditedMorph75.png,Stimuli/BlurMorphTrio/EditedMorph75.png,020233right.gif,Stimuli/normal_thumbnails/75right.gif,,,,,0,0,0,0,0,67,67,74,,,,,,,,,,,,,,,,,,,,,,,82,68,1,296,1.095927867,-2.246985116,75,Experiment,,,,,,,,,55,58,17,17,,,,,,,,,,,,,,,754.090879,754.7947862,754.090879,754.7947862,76.8707483,1583779104,1583779106,2.651665211,1583779101,1583779104,,,HL,1,21,female,undergrad,2020_Mar_09_1126,AdjustEyeTrack,3.1.5,59.93553023
67,Stimuli/Morph67.JPG,Stimuli/Morph67.png,Stimuli/BlurLevel5/BlurEditedMorph67,Stimuli/BlurLevel5/BlurEditedMorph67.png,Stimuli/BlurLevel5/NumberedMorphs/BlurEditedMorph67.png,Stimuli/BlurLevel5/OriginalBlur/BlurEditedMorph67.png,Stimuli/BlurMorphTrio/EditedMorph67.png,020217right.gif,Stimuli/normal_thumbnails/67right.gif,,,,,0,0,0,0,0,68,68,66,,,,,,,,,,,,,,,,,,,,,,,52,69,1,114,-1.016841608,2.283863644,67,Experiment,,,,,,,,,105,73,-6,-6,,,,,,,,,,,,,,,760.0957478,760.7872716,760.0957478,760.7872716,91.83673469,1583779110,1583779113,2.999037027,1583779107,1583779110,,,HL,1,21,female,undergrad,2020_Mar_09_1126,AdjustEyeTrack,3.1.5,59.93553023
53,Stimuli/Morph53.JPG,Stimuli/Morph53.png,Stimuli/BlurLevel5/BlurEditedMorph53,Stimuli/BlurLevel5/BlurEditedMorph53.png,Stimuli/BlurLevel5/NumberedMorphs/BlurEditedMorph53.png,Stimuli/BlurLevel5/OriginalBlur/BlurEditedMorph53.png,Stimuli/BlurMorphTrio/EditedMorph53.png,010149right.gif,Stimuli/normal_thumbnails/53right.gif,,,,,0,0,0,0,0,69,69,52,,,,,,,,,,,,,,,,,,,,,,,29,70,1,333,2.22751631,-1.134976249,53,Experiment,,,,,,,,,28,70,-17,-17,,,,,,,,,,,,,,,766.7435206,767.4789354,766.7435206,767.4789354,76.8707483,1583779116,1583779121,4.334175825,1583779113,1583779116,,,HL,1,21,female,undergrad,2020_Mar_09_1126,AdjustEyeTrack,3.1.5,59.93553023
108,Stimuli/Morph108.JPG,Stimuli/Morph108.png,Stimuli/BlurLevel5/BlurEditedMorph108,Stimuli/BlurLevel5/BlurEditedMorph108.png,Stimuli/BlurLevel5/NumberedMorphs/BlurEditedMorph108.png,Stimuli/BlurLevel5/OriginalBlur/BlurEditedMorph108.png,Stimuli/BlurMorphTrio/EditedMorph108.png,None,None,,,,,0,0,0,0,0,70,70,107,,,,,,,,,,,,,,,,,,,,,,,76,71,1,264,-0.261321158,-2.486304738,108,Experiment,,,,,,,,,142,100,8,8,,,,,,,,,,,,,,,774.1326478,774.8114277,774.1326478,774.8114277,89.11564626,1583779124,1583779126,2.782962799,1583779121,1583779124,,,HL,1,21,female,undergrad,2020_Mar_09_1126,AdjustEyeTrack,3.1.5,59.93553023
21,Stimuli/Morph21.JPG,Stimuli/Morph21.png,Stimuli/BlurLevel5/BlurEditedMorph21,Stimuli/BlurLevel5/BlurEditedMorph21.png,Stimuli/BlurLevel5/NumberedMorphs/BlurEditedMorph21.png,Stimuli/BlurLevel5/OriginalBlur/BlurEditedMorph21.png,Stimuli/BlurMorphTrio/EditedMorph21.png,010049right.gif,Stimuli/normal_thumbnails/21right.gif,,,,,0,0,0,0,0,71,71,20,,,,,,,,,,,,,,,,,,,,,,,45,72,1,87,0.130839891,2.496573837,21,Experiment,,,,,,,,,98,19,2,2,,,,,,,,,,,,,,,780.0481433,780.7390112,780.0481433,780.7390112,97.27891156,1583779129,1583779132,2.616433859,1583779127,1583779129,,,HL,1,21,female,undergrad,2020_Mar_09_1126,AdjustEyeTrack,3.1.5,59.93553023
92,Stimuli/Morph92.JPG,Stimuli/Morph92.png,Stimuli/BlurLevel5/BlurEditedMorph92,Stimuli/BlurLevel5/BlurEditedMorph92.png,Stimuli/BlurLevel5/NumberedMorphs/BlurEditedMorph92.png,Stimuli/BlurLevel5/OriginalBlur/BlurEditedMorph92.png,Stimuli/BlurMorphTrio/EditedMorph92.png,020277right.gif,Stimuli/normal_thumbnails/92right.gif,,,,,0,0,0,0,0,72,72,91,,,,,,,,,,,,,,,,,,,,,,,49,73,1,292,0.936516484,-2.317959636,92,Experiment,,,,,,,,,12,89,3,3,,,,,,,,,,,,,,,786.0438436,786.7473703,786.0438436,786.7473703,95.91836735,1583779135,1583779138,2.867129087,1583779133,1583779135,,,HL,1,21,female,undergrad,2020_Mar_09_1126,AdjustEyeTrack,3.1.5,59.93553023
116,Stimuli/Morph116.JPG,Stimuli/Morph116.png,Stimuli/BlurLevel5/BlurEditedMorph116,Stimuli/BlurLevel5/BlurEditedMorph116.png,Stimuli/BlurLevel5/NumberedMorphs/BlurEditedMorph116.png,Stimuli/BlurLevel5/OriginalBlur/BlurEditedMorph116.png,Stimuli/BlurMorphTrio/EditedMorph116.png,None,None,,,,,0,0,0,0,0,73,73,115,,,,,,,,,,,,,,,,,,,,,,,60,74,1,52,1.539153688,1.970026884,116,Experiment,,,,,,,,,138,115,1,1,,,,,,,,,,,,,,,792.4723369,793.1801678,792.4723369,793.1801678,98.63945578,1583779142,1583779144,2.330837011,1583779139,1583779142,,,HL,1,21,female,undergrad,2020_Mar_09_1126,AdjustEyeTrack,3.1.5,59.93553023
147,Stimuli/Morph147.JPG,Stimuli/Morph147.png,Stimuli/BlurLevel5/BlurEditedMorph147,Stimuli/BlurLevel5/BlurEditedMorph147.png,Stimuli/BlurLevel5/NumberedMorphs/BlurEditedMorph147.png,Stimuli/BlurLevel5/OriginalBlur/BlurEditedMorph147.png,Stimuli/BlurMorphTrio/EditedMorph147.png,None,None,,,,,0,0,0,0,0,74,74,146,,,,,,,,,,,,,,,,,,,,,,,95,75,1,159,-2.333951066,0.895919874,147,Experiment,,,,,,,,,91,5,142,-5,,,,,,,,,,,,,,,798.4603412,799.1770864,798.4603412,799.1770864,93.19727891,1583779148,1583779151,3.362896919,1583779145,1583779148,,,HL,1,21,female,undergrad,2020_Mar_09_1126,AdjustEyeTrack,3.1.5,59.93553023
4,Stimuli/Morph4.JPG,Stimuli/Morph4.png,Stimuli/BlurLevel5/BlurEditedMorph4,Stimuli/BlurLevel5/BlurEditedMorph4.png,Stimuli/BlurLevel5/NumberedMorphs/BlurEditedMorph4.png,Stimuli/BlurLevel5/OriginalBlur/BlurEditedMorph4.png,Stimuli/BlurMorphTrio/EditedMorph4.png,010010right.gif,Stimuli/normal_thumbnails/4right.gif,,,,,0,0,0,0,0,75,75,3,,,,,,,,,,,,,,,,,,,,,,,90,76,1,105,-0.647047613,2.414814566,4,Experiment,,,,,,,,,51,143,-139,8,,,,,,,,,,,,,,,805.1952524,805.8769976,805.1952524,805.8769976,89.11564626,1583779155,1583779160,5.300576925,1583779152,1583779155,,,HL,1,21,female,undergrad,2020_Mar_09_1126,AdjustEyeTrack,3.1.5,59.93553023
51,Stimuli/Morph51.JPG,Stimuli/Morph51.png,Stimuli/BlurLevel5/BlurEditedMorph51,Stimuli/BlurLevel5/BlurEditedMorph51.png,Stimuli/BlurLevel5/NumberedMorphs/BlurEditedMorph51.png,Stimuli/BlurLevel5/OriginalBlur/BlurEditedMorph51.png,Stimuli/BlurMorphTrio/EditedMorph51.png,010146right.gif,Stimuli/normal_thumbnails/51right.gif,,,,,0,0,0,0,0,76,76,50,,,,,,,,,,,,,,,,,,,,,,,88,77,1,23,2.301262134,0.976827821,51,Experiment,,,,,,,,,92,52,-1,-1,,,,,,,,,,,,,,,813.9116417,814.6438272,813.9116417,814.6438272,98.63945578,1583779163,1583779166,2.866430998,1583779160,1583779163,,,HL,1,21,female,undergrad,2020_Mar_09_1126,AdjustEyeTrack,3.1.5,59.93553023
94,Stimuli/Morph94.JPG,Stimuli/Morph94.png,Stimuli/BlurLevel5/BlurEditedMorph94,Stimuli/BlurLevel5/BlurEditedMorph94.png,Stimuli/BlurLevel5/NumberedMorphs/BlurEditedMorph94.png,Stimuli/BlurLevel5/OriginalBlur/BlurEditedMorph94.png,Stimuli/BlurMorphTrio/EditedMorph94.png,020286right.gif,Stimuli/normal_thumbnails/94right.gif,,,,,0,0,0,0,0,77,77,93,,,,,,,,,,,,,,,,,,,,,,,94,78,1,59,1.287595187,2.142918252,94,Experiment,,,,,,,,,124,109,-15,-15,,,,,,,,,,,,,,,820.4143663,821.1772725,820.4143663,821.1772725,79.59183673,1583779170,1583779172,1.949649096,1583779167,1583779170,,,HL,1,21,female,undergrad,2020_Mar_09_1126,AdjustEyeTrack,3.1.5,59.93553023
17,Stimuli/Morph17.JPG,Stimuli/Morph17.png,Stimuli/BlurLevel5/BlurEditedMorph17,Stimuli/BlurLevel5/BlurEditedMorph17.png,Stimuli/BlurLevel5/NumberedMorphs/BlurEditedMorph17.png,Stimuli/BlurLevel5/OriginalBlur/BlurEditedMorph17.png,Stimuli/BlurMorphTrio/EditedMorph17.png,010036right.gif,Stimuli/normal_thumbnails/17right.gif,,,,,0,0,0,0,0,78,78,16,,,,,,,,,,,,,,,,,,,,,,,73,79,1,326,2.072593931,-1.397982259,17,Experiment,,,,,,,,,8,8,9,9,,,,,,,,,,,,,,,825.7473023,826.4353331,825.7473023,826.4353331,87.75510204,1583779175,1583779176,0.898373842,1583779172,1583779175,,,HL,1,21,female,undergrad,2020_Mar_09_1126,AdjustEyeTrack,3.1.5,59.93553023
14,Stimuli/Morph14.JPG,Stimuli/Morph14.png,Stimuli/BlurLevel5/BlurEditedMorph14,Stimuli/BlurLevel5/BlurEditedMorph14.png,Stimuli/BlurLevel5/NumberedMorphs/BlurEditedMorph14.png,Stimuli/BlurLevel5/OriginalBlur/BlurEditedMorph14.png,Stimuli/BlurMorphTrio/EditedMorph14.png,010030right.gif,Stimuli/normal_thumbnails/14right.gif,,,,,0,0,0,0,0,79,79,13,,,,,,,,,,,,,,,,,,,,,,,88,80,1,353,2.481365379,-0.304673359,14,Experiment,,,,,,,,,73,20,-6,-6,,,,,,,,,,,,,,,829.954219,830.6647265,829.954219,830.6647265,91.83673469,1583779179,1583779184,5.067484856,1583779177,1583779179,,,HL,1,21,female,undergrad,2020_Mar_09_1126,AdjustEyeTrack,3.1.5,59.93553023
15,Stimuli/Morph15.JPG,Stimuli/Morph15.png,Stimuli/BlurLevel5/BlurEditedMorph15,Stimuli/BlurLevel5/BlurEditedMorph15.png,Stimuli/BlurLevel5/NumberedMorphs/BlurEditedMorph15.png,Stimuli/BlurLevel5/OriginalBlur/BlurEditedMorph15.png,Stimuli/BlurMorphTrio/EditedMorph15.png,010031right.gif,Stimuli/normal_thumbnails/15right.gif,,,,,0,0,0,0,0,80,80,14,,,,,,,,,,,,,,,,,,,,,,,47,81,1,149,-2.142918252,1.287595187,15,Experiment,,,,,,,,,73,22,-7,-7,,,,,,,,,,,,,,,838.6899484,839.4041898,838.6899484,839.4041898,90.47619048,1583779188,1583779192,3.34334898,1583779185,1583779188,,,HL,1,21,female,undergrad,2020_Mar_09_1126,AdjustEyeTrack,3.1.5,59.93553023
61,Stimuli/Morph61.JPG,Stimuli/Morph61.png,Stimuli/BlurLevel5/BlurEditedMorph61,Stimuli/BlurLevel5/BlurEditedMorph61.png,Stimuli/BlurLevel5/NumberedMorphs/BlurEditedMorph61.png,Stimuli/BlurLevel5/OriginalBlur/BlurEditedMorph61.png,Stimuli/BlurMorphTrio/EditedMorph61.png,020201right.gif,Stimuli/normal_thumbnails/61right.gif,,,,,0,0,0,0,0,81,81,60,,,,,,,,,,,,,,,,,,,,,,,41,82,1,244,-1.095927867,-2.246985116,61,Experiment,,,,,,,,,101,57,4,4,,,,,,,,,,,,,,,845.5209903,846.2225191,845.5209903,846.2225191,94.55782313,1583779195,1583779198,3.483232975,1583779192,1583779195,,,HL,1,21,female,undergrad,2020_Mar_09_1126,AdjustEyeTrack,3.1.5,59.93553023
50,Stimuli/Morph50.JPG,Stimuli/Morph50.png,Stimuli/BlurLevel5/BlurEditedMorph50,Stimuli/BlurLevel5/BlurEditedMorph50.png,Stimuli/BlurLevel5/NumberedMorphs/BlurEditedMorph50.png,Stimuli/BlurLevel5/OriginalBlur/BlurEditedMorph50.png,Stimuli/BlurMorphTrio/EditedMorph50.png,010142right.gif,Stimuli/normal_thumbnails/50right.gif,,,,,0,0,0,0,0,82,82,49,,,,,,,,,,,,,,,,,,,,,,,88,83,1,207,-2.22751631,-1.134976249,50,Experiment,,,,,,,,,75,55,-5,-5,,,,,,,,,,,,,,,852.3989345,853.1003678,852.3989345,853.1003678,93.19727891,1583779202,1583779204,2.083493233,1583779199,1583779202,,,HL,1,21,female,undergrad,2020_Mar_09_1126,AdjustEyeTrack,3.1.5,59.93553023
29,Stimuli/Morph29.JPG,Stimuli/Morph29.png,Stimuli/BlurLevel5/BlurEditedMorph29,Stimuli/BlurLevel5/BlurEditedMorph29.png,Stimuli/BlurLevel5/NumberedMorphs/BlurEditedMorph29.png,Stimuli/BlurLevel5/OriginalBlur/BlurEditedMorph29.png,Stimuli/BlurMorphTrio/EditedMorph29.png,010074right.gif,Stimuli/normal_thumbnails/29right.gif,,,,,0,0,0,0,0,83,83,28,,,,,,,,,,,,,,,,,,,,,,,80,84,1,247,-0.976827821,-2.301262134,29,Experiment,,,,,,,,,71,31,-2,-2,,,,,,,,,,,,,,,857.7335019,858.4283993,857.7335019,858.4283993,97.27891156,1583779207,1583779211,3.751197815,1583779204,1583779207,,,HL,1,21,female,undergrad,2020_Mar_09_1126,AdjustEyeTrack,3.1.5,59.93553023
65,Stimuli/Morph65.JPG,Stimuli/Morph65.png,Stimuli/BlurLevel5/BlurEditedMorph65,Stimuli/BlurLevel5/BlurEditedMorph65.png,Stimuli/BlurLevel5/NumberedMorphs/BlurEditedMorph65.png,Stimuli/BlurLevel5/OriginalBlur/BlurEditedMorph65.png,Stimuli/BlurMorphTrio/EditedMorph65.png,020209right.gif,Stimuli/normal_thumbnails/65right.gif,,,,,0,0,0,0,0,84,84,64,,,,,,,,,,,,,,,,,,,,,,,37,85,1,141,-1.942864904,1.573300978,65,Experiment,,,,,,,,,141,70,-5,-5,,,,,,,,,,,,,,,864.9012394,865.5949728,864.9012394,865.5949728,93.19727891,1583779214,1583779218,3.370995045,1583779211,1583779214,,,HL,1,21,female,undergrad,2020_Mar_09_1126,AdjustEyeTrack,3.1.5,59.93553023
95,Stimuli/Morph95.JPG,Stimuli/Morph95.png,Stimuli/BlurLevel5/BlurEditedMorph95,Stimuli/BlurLevel5/BlurEditedMorph95.png,Stimuli/BlurLevel5/NumberedMorphs/BlurEditedMorph95.png,Stimuli/BlurLevel5/OriginalBlur/BlurEditedMorph95.png,Stimuli/BlurMorphTrio/EditedMorph95.png,020287right.gif,Stimuli/normal_thumbnails/95right.gif,,,,,1,0,1,0,0,0,0,94,,,,,,,,,,,,,,,,,,,,,,,18,1,2,128,-1.539153688,1.970026884,95,Experiment,,,,,,,,,57,110,-15,-15,,,,,,,,,,,,,,,986.5991139,987.2792055,986.5991139,987.2792055,79.59183673,1583779336,1583779340,3.868685007,1583779333,1583779336,space,114.4583988,HL,1,21,female,undergrad,2020_Mar_09_1126,AdjustEyeTrack,3.1.5,59.93553023
70,Stimuli/Morph70.JPG,Stimuli/Morph70.png,Stimuli/BlurLevel5/BlurEditedMorph70,Stimuli/BlurLevel5/BlurEditedMorph70.png,Stimuli/BlurLevel5/NumberedMorphs/BlurEditedMorph70.png,Stimuli/BlurLevel5/OriginalBlur/BlurEditedMorph70.png,Stimuli/BlurMorphTrio/EditedMorph70.png,020221right.gif,Stimuli/normal_thumbnails/70right.gif,,,,,1,0,1,0,0,1,1,69,,,,,,,,,,,,,,,,,,,,,,,39,2,2,302,1.324798161,-2.12012024,70,Experiment,,,,,,,,,82,77,-7,-7,,,,,,,,,,,,,,,993.840108,994.5426552,993.840108,994.5426552,90.47619048,1583779343,1583779346,2.882306099,1583779340,1583779343,,,HL,1,21,female,undergrad,2020_Mar_09_1126,AdjustEyeTrack,3.1.5,59.93553023
117,Stimuli/Morph117.JPG,Stimuli/Morph117.png,Stimuli/BlurLevel5/BlurEditedMorph117,Stimuli/BlurLevel5/BlurEditedMorph117.png,Stimuli/BlurLevel5/NumberedMorphs/BlurEditedMorph117.png,Stimuli/BlurLevel5/OriginalBlur/BlurEditedMorph117.png,Stimuli/BlurMorphTrio/EditedMorph117.png,None,None,,,,,1,0,1,0,0,2,2,116,,,,,,,,,,,,,,,,,,,,,,,68,3,2,58,1.324798161,2.12012024,117,Experiment,,,,,,,,,33,99,18,18,,,,,,,,,,,,,,,1000.05812,1000.757718,1000.05812,1000.757718,75.51020408,1583779350,1583779352,2.968332052,1583779347,1583779349,,,HL,1,21,female,undergrad,2020_Mar_09_1126,AdjustEyeTrack,3.1.5,59.93553023
116,Stimuli/Morph116.JPG,Stimuli/Morph116.png,Stimuli/BlurLevel5/BlurEditedMorph116,Stimuli/BlurLevel5/BlurEditedMorph116.png,Stimuli/BlurLevel5/NumberedMorphs/BlurEditedMorph116.png,Stimuli/BlurLevel5/OriginalBlur/BlurEditedMorph116.png,Stimuli/BlurMorphTrio/EditedMorph116.png,None,None,,,,,1,0,1,0,0,3,3,115,,,,,,,,,,,,,,,,,,,,,,,80,4,2,249,-0.895919874,-2.333951066,116,Experiment,,,,,,,,,113,118,-2,-2,,,,,,,,,,,,,,,1006.285756,1006.975086,1006.285756,1006.975086,97.27891156,1583779356,1583779360,4.051632881,1583779353,1583779356,,,HL,1,21,female,undergrad,2020_Mar_09_1126,AdjustEyeTrack,3.1.5,59.93553023
22,Stimuli/Morph22.JPG,Stimuli/Morph22.png,Stimuli/BlurLevel5/BlurEditedMorph22,Stimuli/BlurLevel5/BlurEditedMorph22.png,Stimuli/BlurLevel5/NumberedMorphs/BlurEditedMorph22.png,Stimuli/BlurLevel5/OriginalBlur/BlurEditedMorph22.png,Stimuli/BlurMorphTrio/EditedMorph22.png,010055right.gif,Stimuli/normal_thumbnails/22right.gif,,,,,1,0,1,0,0,4,4,21,,,,,,,,,,,,,,,,,,,,,,,37,5,2,348,2.445369002,-0.519779227,22,Experiment,,,,,,,,,77,24,-2,-2,,,,,,,,,,,,,,,1013.726609,1014.428831,1013.726609,1014.428831,97.27891156,1583779363,1583779367,3.782666922,1583779360,1583779363,,,HL,1,21,female,undergrad,2020_Mar_09_1126,AdjustEyeTrack,3.1.5,59.93553023
13,Stimuli/Morph13.JPG,Stimuli/Morph13.png,Stimuli/BlurLevel5/BlurEditedMorph13,Stimuli/BlurLevel5/BlurEditedMorph13.png,Stimuli/BlurLevel5/NumberedMorphs/BlurEditedMorph13.png,Stimuli/BlurLevel5/OriginalBlur/BlurEditedMorph13.png,Stimuli/BlurMorphTrio/EditedMorph13.png,010027right.gif,Stimuli/normal_thumbnails/13right.gif,,,,,1,0,1,0,0,5,5,12,,,,,,,,,,,,,,,,,,,,,,,18,6,2,71,0.813920386,2.363796439,13,Experiment,,,,,,,,,42,15,-2,-2,,,,,,,,,,,,,,,1020.609075,1021.281983,1020.609075,1021.281983,97.27891156,1583779370,1583779372,1.566478014,1583779367,1583779370,,,HL,1,21,female,undergrad,2020_Mar_09_1126,AdjustEyeTrack,3.1.5,59.93553023
71,Stimuli/Morph71.JPG,Stimuli/Morph71.png,Stimuli/BlurLevel5/BlurEditedMorph71,Stimuli/BlurLevel5/BlurEditedMorph71.png,Stimuli/BlurLevel5/NumberedMorphs/BlurEditedMorph71.png,Stimuli/BlurLevel5/OriginalBlur/BlurEditedMorph71.png,Stimuli/BlurMorphTrio/EditedMorph71.png,020225right.gif,Stimuli/normal_thumbnails/71right.gif,,,,,1,0,1,0,0,6,6,70,,,,,,,,,,,,,,,,,,,,,,,72,7,2,175,-2.490486745,0.217889357,71,Experiment,,,,,,,,,16,82,-11,-11,,,,,,,,,,,,,,,1025.439105,1026.131159,1025.439105,1026.131159,85.03401361,1583779375,1583779379,3.933498859,1583779372,1583779375,,,HL,1,21,female,undergrad,2020_Mar_09_1126,AdjustEyeTrack,3.1.5,59.93553023
63,Stimuli/Morph63.JPG,Stimuli/Morph63.png,Stimuli/BlurLevel5/BlurEditedMorph63,Stimuli/BlurLevel5/BlurEditedMorph63.png,Stimuli/BlurLevel5/NumberedMorphs/BlurEditedMorph63.png,Stimuli/BlurLevel5/OriginalBlur/BlurEditedMorph63.png,Stimuli/BlurMorphTrio/EditedMorph63.png,020206right.gif,Stimuli/normal_thumbnails/63right.gif,,,,,1,0,1,0,0,7,7,62,,,,,,,,,,,,,,,,,,,,,,,43,8,2,65,1.056545654,2.265769468,63,Experiment,,,,,,,,,30,68,-5,-5,,,,,,,,,,,,,,,1032.709463,1033.40752,1032.709463,1033.40752,93.19727891,1583779382,1583779385,3.136719942,1583779379,1583779382,,,HL,1,21,female,undergrad,2020_Mar_09_1126,AdjustEyeTrack,3.1.5,59.93553023
74,Stimuli/Morph74.JPG,Stimuli/Morph74.png,Stimuli/BlurLevel5/BlurEditedMorph74,Stimuli/BlurLevel5/BlurEditedMorph74.png,Stimuli/BlurLevel5/NumberedMorphs/BlurEditedMorph74.png,Stimuli/BlurLevel5/OriginalBlur/BlurEditedMorph74.png,Stimuli/BlurMorphTrio/EditedMorph74.png,020232right.gif,Stimuli/normal_thumbnails/74right.gif,,,,,1,0,1,0,0,8,8,73,,,,,,,,,,,,,,,,,,,,,,,28,9,2,307,1.504537558,-1.996588775,74,Experiment,,,,,,,,,8,74,0,0,,,,,,,,,,,,,,,1039.309401,1040.015404,1039.309401,1040.015404,100,1583779389,1583779392,3.285561085,1583779386,1583779389,,,HL,1,21,female,undergrad,2020_Mar_09_1126,AdjustEyeTrack,3.1.5,59.93553023
97,Stimuli/Morph97.JPG,Stimuli/Morph97.png,Stimuli/BlurLevel5/BlurEditedMorph97,Stimuli/BlurLevel5/BlurEditedMorph97.png,Stimuli/BlurLevel5/NumberedMorphs/BlurEditedMorph97.png,Stimuli/BlurLevel5/OriginalBlur/BlurEditedMorph97.png,Stimuli/BlurMorphTrio/EditedMorph97.png,020294right.gif,Stimuli/normal_thumbnails/97right.gif,,,,,1,0,1,0,0,9,9,96,,,,,,,,,,,,,,,,,,,,,,,69,10,2,55,1.433941091,2.047880111,97,Experiment,,,,,,,,,13,100,-3,-3,,,,,,,,,,,,,,,1046.12703,1046.826919,1046.12703,1046.826919,95.91836735,1583779396,1583779399,3.70158124,1583779393,1583779396,,,HL,1,21,female,undergrad,2020_Mar_09_1126,AdjustEyeTrack,3.1.5,59.93553023
113,Stimuli/Morph113.JPG,Stimuli/Morph113.png,Stimuli/BlurLevel5/BlurEditedMorph113,Stimuli/BlurLevel5/BlurEditedMorph113.png,Stimuli/BlurLevel5/NumberedMorphs/BlurEditedMorph113.png,Stimuli/BlurLevel5/OriginalBlur/BlurEditedMorph113.png,Stimuli/BlurMorphTrio/EditedMorph113.png,None,None,,,,,1,0,1,0,0,10,10,112,,,,,,,,,,,,,,,,,,,,,,,27,11,2,168,-2.445369002,0.519779227,113,Experiment,,,,,,,,,135,94,19,19,,,,,,,,,,,,,,,1053.245931,1053.957059,1053.245931,1053.957059,74.14965986,1583779403,1583779406,3.370707035,1583779400,1583779403,,,HL,1,21,female,undergrad,2020_Mar_09_1126,AdjustEyeTrack,3.1.5,59.93553023
145,Stimuli/Morph145.JPG,Stimuli/Morph145.png,Stimuli/BlurLevel5/BlurEditedMorph145,Stimuli/BlurLevel5/BlurEditedMorph145.png,Stimuli/BlurLevel5/NumberedMorphs/BlurEditedMorph145.png,Stimuli/BlurLevel5/OriginalBlur/BlurEditedMorph145.png,Stimuli/BlurMorphTrio/EditedMorph145.png,None,None,,,,,1,0,1,0,0,11,11,144,,,,,,,,,,,,,,,,,,,,,,,34,12,2,223,-1.828384254,-1.7049959,145,Experiment,,,,,,,,,18,7,138,-9,,,,,,,,,,,,,,,1060.186942,1060.891443,1060.186942,1060.891443,87.75510204,1583779410,1583779412,2.098211288,1583779407,1583779410,,,HL,1,21,female,undergrad,2020_Mar_09_1126,AdjustEyeTrack,3.1.5,59.93553023
88,Stimuli/Morph88.JPG,Stimuli/Morph88.png,Stimuli/BlurLevel5/BlurEditedMorph88,Stimuli/BlurLevel5/BlurEditedMorph88.png,Stimuli/BlurLevel5/NumberedMorphs/BlurEditedMorph88.png,Stimuli/BlurLevel5/OriginalBlur/BlurEditedMorph88.png,Stimuli/BlurMorphTrio/EditedMorph88.png,020271right.gif,Stimuli/normal_thumbnails/88right.gif,,,,,1,0,1,0,0,12,12,87,,,,,,,,,,,,,,,,,,,,,,,33,13,2,81,0.391086163,2.469220851,88,Experiment,,,,,,,,,87,87,1,1,,,,,,,,,,,,,,,1065.627999,1066.318761,1065.627999,1066.318761,98.63945578,1583779415,1583779416,1.250104189,1583779412,1583779415,,,HL,1,21,female,undergrad,2020_Mar_09_1126,AdjustEyeTrack,3.1.5,59.93553023
110,Stimuli/Morph110.JPG,Stimuli/Morph110.png,Stimuli/BlurLevel5/BlurEditedMorph110,Stimuli/BlurLevel5/BlurEditedMorph110.png,Stimuli/BlurLevel5/NumberedMorphs/BlurEditedMorph110.png,Stimuli/BlurLevel5/OriginalBlur/BlurEditedMorph110.png,Stimuli/BlurMorphTrio/EditedMorph110.png,None,None,,,,,1,0,1,0,0,13,13,109,,,,,,,,,,,,,,,,,,,,,,,99,14,2,243,-1.134976249,-2.22751631,110,Experiment,,,,,,,,,99,110,0,0,,,,,,,,,,,,,,,1070.053097,1070.73211,1070.053097,1070.73211,100,1583779419,1583779422,2.10218811,1583779417,1583779419,,,HL,1,21,female,undergrad,2020_Mar_09_1126,AdjustEyeTrack,3.1.5,59.93553023
115,Stimuli/Morph115.JPG,Stimuli/Morph115.png,Stimuli/BlurLevel5/BlurEditedMorph115,Stimuli/BlurLevel5/BlurEditedMorph115.png,Stimuli/BlurLevel5/NumberedMorphs/BlurEditedMorph115.png,Stimuli/BlurLevel5/OriginalBlur/BlurEditedMorph115.png,Stimuli/BlurMorphTrio/EditedMorph115.png,None,None,,,,,1,0,1,0,0,14,14,114,,,,,,,,,,,,,,,,,,,,,,,69,15,2,265,-0.217889357,-2.490486745,115,Experiment,,,,,,,,,44,105,10,10,,,,,,,,,,,,,,,1075.665217,1076.380921,1075.665217,1076.380921,86.39455782,1583779425,1583779429,3.586148262,1583779422,1583779425,,,HL,1,21,female,undergrad,2020_Mar_09_1126,AdjustEyeTrack,3.1.5,59.93553023
37,Stimuli/Morph37.JPG,Stimuli/Morph37.png,Stimuli/BlurLevel5/BlurEditedMorph37,Stimuli/BlurLevel5/BlurEditedMorph37.png,Stimuli/BlurLevel5/NumberedMorphs/BlurEditedMorph37.png,Stimuli/BlurLevel5/OriginalBlur/BlurEditedMorph37.png,Stimuli/BlurMorphTrio/EditedMorph37.png,010097right.gif,Stimuli/normal_thumbnails/37right.gif,,,,,1,0,1,0,0,15,15,36,,,,,,,,,,,,,,,,,,,,,,,94,16,2,137,-1.828384254,1.7049959,37,Experiment,,,,,,,,,80,39,-2,-2,,,,,,,,,,,,,,,1082.87397,1083.57972,1082.87397,1083.57972,97.27891156,1583779432,1583779440,7.700639963,1583779429,1583779432,,,HL,1,21,female,undergrad,2020_Mar_09_1126,AdjustEyeTrack,3.1.5,59.93553023
111,Stimuli/Morph111.JPG,Stimuli/Morph111.png,Stimuli/BlurLevel5/BlurEditedMorph111,Stimuli/BlurLevel5/BlurEditedMorph111.png,Stimuli/BlurLevel5/NumberedMorphs/BlurEditedMorph111.png,Stimuli/BlurLevel5/OriginalBlur/BlurEditedMorph111.png,Stimuli/BlurMorphTrio/EditedMorph111.png,None,None,,,,,1,0,1,0,0,16,16,110,,,,,,,,,,,,,,,,,,,,,,,77,17,2,339,2.333951066,-0.895919874,111,Experiment,,,,,,,,,11,105,6,6,,,,,,,,,,,,,,,1093.949825,1094.650284,1093.949825,1094.650284,91.83673469,1583779443,1583779446,2.183782816,1583779441,1583779443,,,HL,1,21,female,undergrad,2020_Mar_09_1126,AdjustEyeTrack,3.1.5,59.93553023
147,Stimuli/Morph147.JPG,Stimuli/Morph147.png,Stimuli/BlurLevel5/BlurEditedMorph147,Stimuli/BlurLevel5/BlurEditedMorph147.png,Stimuli/BlurLevel5/NumberedMorphs/BlurEditedMorph147.png,Stimuli/BlurLevel5/OriginalBlur/BlurEditedMorph147.png,Stimuli/BlurMorphTrio/EditedMorph147.png,None,None,,,,,1,0,1,0,0,17,17,146,,,,,,,,,,,,,,,,,,,,,,,22,18,2,137,-1.828384254,1.7049959,147,Experiment,,,,,,,,,130,2,145,-2,,,,,,,,,,,,,,,1099.470424,1100.16009,1099.470424,1100.16009,97.27891156,1583779449,1583779451,1.965940952,1583779446,1583779449,,,HL,1,21,female,undergrad,2020_Mar_09_1126,AdjustEyeTrack,3.1.5,59.93553023
80,Stimuli/Morph80.JPG,Stimuli/Morph80.png,Stimuli/BlurLevel5/BlurEditedMorph80,Stimuli/BlurLevel5/BlurEditedMorph80.png,Stimuli/BlurLevel5/NumberedMorphs/BlurEditedMorph80.png,Stimuli/BlurLevel5/OriginalBlur/BlurEditedMorph80.png,Stimuli/BlurMorphTrio/EditedMorph80.png,020240right.gif,Stimuli/normal_thumbnails/80right.gif,,,,,1,0,1,0,0,18,18,79,,,,,,,,,,,,,,,,,,,,,,,19,19,2,73,0.730929262,2.39076189,80,Experiment,,,,,,,,,63,76,4,4,,,,,,,,,,,,,,,1105.03126,1105.741516,1105.03126,1105.741516,94.55782313,1583779454,1583779457,2.737714767,1583779451,1583779454,,,HL,1,21,female,undergrad,2020_Mar_09_1126,AdjustEyeTrack,3.1.5,59.93553023
146,Stimuli/Morph146.JPG,Stimuli/Morph146.png,Stimuli/BlurLevel5/BlurEditedMorph146,Stimuli/BlurLevel5/BlurEditedMorph146.png,Stimuli/BlurLevel5/NumberedMorphs/BlurEditedMorph146.png,Stimuli/BlurLevel5/OriginalBlur/BlurEditedMorph146.png,Stimuli/BlurMorphTrio/EditedMorph146.png,None,None,,,,,1,0,1,0,0,19,19,145,,,,,,,,,,,,,,,,,,,,,,,62,20,2,316,1.798349501,-1.736645926,146,Experiment,,,,,,,,,84,7,139,-8,,,,,,,,,,,,,,,1111.226137,1111.959267,1111.226137,1111.959267,89.11564626,1583779461,1583779463,2.397194147,1583779458,1583779461,,,HL,1,21,female,undergrad,2020_Mar_09_1126,AdjustEyeTrack,3.1.5,59.93553023
93,Stimuli/Morph93.JPG,Stimuli/Morph93.png,Stimuli/BlurLevel5/BlurEditedMorph93,Stimuli/BlurLevel5/BlurEditedMorph93.png,Stimuli/BlurLevel5/NumberedMorphs/BlurEditedMorph93.png,Stimuli/BlurLevel5/OriginalBlur/BlurEditedMorph93.png,Stimuli/BlurMorphTrio/EditedMorph93.png,020280right.gif,Stimuli/normal_thumbnails/93right.gif,,,,,1,0,1,0,0,20,20,92,,,,,,,,,,,,,,,,,,,,,,,9,21,2,199,-2.363796439,-0.813920386,93,Experiment,,,,,,,,,34,102,-9,-9,,,,,,,,,,,,,,,1116.772195,1117.456327,1116.772195,1117.456327,87.75510204,1583779466,1583779470,3.547142982,1583779464,1583779466,,,HL,1,21,female,undergrad,2020_Mar_09_1126,AdjustEyeTrack,3.1.5,59.93553023
112,Stimuli/Morph112.JPG,Stimuli/Morph112.png,Stimuli/BlurLevel5/BlurEditedMorph112,Stimuli/BlurLevel5/BlurEditedMorph112.png,Stimuli/BlurLevel5/NumberedMorphs/BlurEditedMorph112.png,Stimuli/BlurLevel5/OriginalBlur/BlurEditedMorph112.png,Stimuli/BlurMorphTrio/EditedMorph112.png,None,None,,,,,1,0,1,0,0,21,21,111,,,,,,,,,,,,,,,,,,,,,,,2,22,2,304,1.397982259,-2.072593931,112,Experiment,,,,,,,,,138,106,6,6,,,,,,,,,,,,,,,1123.536946,1124.226935,1123.536946,1124.226935,91.83673469,1583779473,1583779475,1.766542673,1583779470,1583779473,,,HL,1,21,female,undergrad,2020_Mar_09_1126,AdjustEyeTrack,3.1.5,59.93553023
32,Stimuli/Morph32.JPG,Stimuli/Morph32.png,Stimuli/BlurLevel5/BlurEditedMorph32,Stimuli/BlurLevel5/BlurEditedMorph32.png,Stimuli/BlurLevel5/NumberedMorphs/BlurEditedMorph32.png,Stimuli/BlurLevel5/OriginalBlur/BlurEditedMorph32.png,Stimuli/BlurMorphTrio/EditedMorph32.png,010080right.gif,Stimuli/normal_thumbnails/32right.gif,,,,,1,0,1,0,0,22,22,31,,,,,,,,,,,,,,,,,,,,,,,28,23,2,77,0.562377636,2.435925162,32,Experiment,,,,,,,,,104,32,0,0,,,,,,,,,,,,,,,1128.807359,1129.509704,1128.807359,1129.509704,100,1583779478,1583779484,5.565752983,1583779475,1583779478,,,HL,1,21,female,undergrad,2020_Mar_09_1126,AdjustEyeTrack,3.1.5,59.93553023
21,Stimuli/Morph21.JPG,Stimuli/Morph21.png,Stimuli/BlurLevel5/BlurEditedMorph21,Stimuli/BlurLevel5/BlurEditedMorph21.png,Stimuli/BlurLevel5/NumberedMorphs/BlurEditedMorph21.png,Stimuli/BlurLevel5/OriginalBlur/BlurEditedMorph21.png,Stimuli/BlurMorphTrio/EditedMorph21.png,010049right.gif,Stimuli/normal_thumbnails/21right.gif,,,,,1,0,1,0,0,23,23,20,,,,,,,,,,,,,,,,,,,,,,,32,24,2,106,-0.68909339,2.40315424,21,Experiment,,,,,,,,,63,19,2,2,,,,,,,,,,,,,,,1137.884572,1138.579036,1137.884572,1138.579036,97.27891156,1583779487,1583779489,1.901100874,1583779484,1583779487,,,HL,1,21,female,undergrad,2020_Mar_09_1126,AdjustEyeTrack,3.1.5,59.93553023
144,Stimuli/Morph144.JPG,Stimuli/Morph144.png,Stimuli/BlurLevel5/BlurEditedMorph144,Stimuli/BlurLevel5/BlurEditedMorph144.png,Stimuli/BlurLevel5/NumberedMorphs/BlurEditedMorph144.png,Stimuli/BlurLevel5/OriginalBlur/BlurEditedMorph144.png,Stimuli/BlurMorphTrio/EditedMorph144.png,None,None,,,,,1,0,1,0,0,24,24,143,,,,,,,,,,,,,,,,,,,,,,,73,25,2,34,2.072593931,1.397982259,144,Experiment,,,,,,,,,20,7,137,-10,,,,,,,,,,,,,,,1143.026781,1143.724936,1143.026781,1143.724936,86.39455782,1583779492,1583779494,2.031381845,1583779490,1583779492,,,HL,1,21,female,undergrad,2020_Mar_09_1126,AdjustEyeTrack,3.1.5,59.93553023
76,Stimuli/Morph76.JPG,Stimuli/Morph76.png,Stimuli/BlurLevel5/BlurEditedMorph76,Stimuli/BlurLevel5/BlurEditedMorph76.png,Stimuli/BlurLevel5/NumberedMorphs/BlurEditedMorph76.png,Stimuli/BlurLevel5/OriginalBlur/BlurEditedMorph76.png,Stimuli/BlurMorphTrio/EditedMorph76.png,020234right.gif,Stimuli/normal_thumbnails/76right.gif,,,,,1,0,1,0,0,25,25,75,,,,,,,,,,,,,,,,,,,,,,,16,26,2,133,-1.7049959,1.828384254,76,Experiment,,,,,,,,,6,85,-9,-9,,,,,,,,,,,,,,,1148.372586,1148.973268,1148.372586,1148.973268,87.75510204,1583779498,1583779501,2.933346033,1583779495,1583779498,,,HL,1,21,female,undergrad,2020_Mar_09_1126,AdjustEyeTrack,3.1.5,59.93553023
56,Stimuli/Morph56.JPG,Stimuli/Morph56.png,Stimuli/BlurLevel5/BlurEditedMorph56,Stimuli/BlurLevel5/BlurEditedMorph56.png,Stimuli/BlurLevel5/NumberedMorphs/BlurEditedMorph56.png,Stimuli/BlurLevel5/OriginalBlur/BlurEditedMorph56.png,Stimuli/BlurMorphTrio/EditedMorph56.png,010157right.gif,Stimuli/normal_thumbnails/56right.gif,,,,,1,0,1,0,0,26,26,55,,,,,,,,,,,,,,,,,,,,,,,93,27,2,120,-1.25,2.165063509,56,Experiment,,,,,,,,,145,41,15,15,,,,,,,,,,,,,,,1155.159042,1155.881706,1155.159042,1155.881706,79.59183673,1583779505,1583779507,2.005950928,1583779501,1583779505,,,HL,1,21,female,undergrad,2020_Mar_09_1126,AdjustEyeTrack,3.1.5,59.93553023
103,Stimuli/Morph103.JPG,Stimuli/Morph103.png,Stimuli/BlurLevel5/BlurEditedMorph103,Stimuli/BlurLevel5/BlurEditedMorph103.png,Stimuli/BlurLevel5/NumberedMorphs/BlurEditedMorph103.png,Stimuli/BlurLevel5/OriginalBlur/BlurEditedMorph103.png,Stimuli/BlurMorphTrio/EditedMorph103.png,None,None,,,,,1,0,1,0,0,27,27,102,,,,,,,,,,,,,,,,,,,,,,,87,28,2,178,-2.498477068,0.087248742,103,Experiment,,,,,,,,,12,110,-7,-7,,,,,,,,,,,,,,,1160.640121,1161.34744,1160.640121,1161.34744,90.47619048,1583779510,1583779514,3.749764681,1583779507,1583779510,,,HL,1,21,female,undergrad,2020_Mar_09_1126,AdjustEyeTrack,3.1.5,59.93553023
52,Stimuli/Morph52.JPG,Stimuli/Morph52.png,Stimuli/BlurLevel5/BlurEditedMorph52,Stimuli/BlurLevel5/BlurEditedMorph52.png,Stimuli/BlurLevel5/NumberedMorphs/BlurEditedMorph52.png,Stimuli/BlurLevel5/OriginalBlur/BlurEditedMorph52.png,Stimuli/BlurMorphTrio/EditedMorph52.png,010148right.gif,Stimuli/normal_thumbnails/52right.gif,,,,,1,0,1,0,0,28,28,51,,,,,,,,,,,,,,,,,,,,,,,2,29,2,276,0.261321158,-2.486304738,52,Experiment,,,,,,,,,139,41,11,11,,,,,,,,,,,,,,,1167.69153,1168.388877,1167.69153,1168.388877,85.03401361,1583779517,1583779519,1.884389162,1583779514,1583779517,,,HL,1,21,female,undergrad,2020_Mar_09_1126,AdjustEyeTrack,3.1.5,59.93553023
61,Stimuli/Morph61.JPG,Stimuli/Morph61.png,Stimuli/BlurLevel5/BlurEditedMorph61,Stimuli/BlurLevel5/BlurEditedMorph61.png,Stimuli/BlurLevel5/NumberedMorphs/BlurEditedMorph61.png,Stimuli/BlurLevel5/OriginalBlur/BlurEditedMorph61.png,Stimuli/BlurMorphTrio/EditedMorph61.png,020201right.gif,Stimuli/normal_thumbnails/61right.gif,,,,,1,0,1,0,0,29,29,60,,,,,,,,,,,,,,,,,,,,,,,71,30,2,49,1.640147572,1.886773951,61,Experiment,,,,,,,,,90,52,9,9,,,,,,,,,,,,,,,1172.78497,1173.439426,1172.78497,1173.439426,87.75510204,1583779522,1583779526,3.48819828,1583779520,1583779522,,,HL,1,21,female,undergrad,2020_Mar_09_1126,AdjustEyeTrack,3.1.5,59.93553023
34,Stimuli/Morph34.JPG,Stimuli/Morph34.png,Stimuli/BlurLevel5/BlurEditedMorph34,Stimuli/BlurLevel5/BlurEditedMorph34.png,Stimuli/BlurLevel5/NumberedMorphs/BlurEditedMorph34.png,Stimuli/BlurLevel5/OriginalBlur/BlurEditedMorph34.png,Stimuli/BlurMorphTrio/EditedMorph34.png,010090right.gif,Stimuli/normal_thumbnails/34right.gif,,,,,1,0,1,0,0,30,30,33,,,,,,,,,,,,,,,,,,,,,,,92,31,2,59,1.287595187,2.142918252,34,Experiment,,,,,,,,,2,34,0,0,,,,,,,,,,,,,,,1179.977062,1180.697728,1179.977062,1180.697728,100,1583779530,1583779531,1.421058893,1583779526,1583779529,,,HL,1,21,female,undergrad,2020_Mar_09_1126,AdjustEyeTrack,3.1.5,59.93553023
127,Stimuli/Morph127.JPG,Stimuli/Morph127.png,Stimuli/BlurLevel5/BlurEditedMorph127,Stimuli/BlurLevel5/BlurEditedMorph127.png,Stimuli/BlurLevel5/NumberedMorphs/BlurEditedMorph127.png,Stimuli/BlurLevel5/OriginalBlur/BlurEditedMorph127.png,Stimuli/BlurMorphTrio/EditedMorph127.png,None,None,,,,,1,0,1,0,0,31,31,126,,,,,,,,,,,,,,,,,,,,,,,47,32,2,230,-1.606969024,-1.915111108,127,Experiment,,,,,,,,,61,120,7,7,,,,,,,,,,,,,,,1185.185935,1185.90533,1185.185935,1185.90533,90.47619048,1583779535,1583779538,3.536315203,1583779531,1583779535,,,HL,1,21,female,undergrad,2020_Mar_09_1126,AdjustEyeTrack,3.1.5,59.93553023
28,Stimuli/Morph28.JPG,Stimuli/Morph28.png,Stimuli/BlurLevel5/BlurEditedMorph28,Stimuli/BlurLevel5/BlurEditedMorph28.png,Stimuli/BlurLevel5/NumberedMorphs/BlurEditedMorph28.png,Stimuli/BlurLevel5/OriginalBlur/BlurEditedMorph28.png,Stimuli/BlurMorphTrio/EditedMorph28.png,010073right.gif,Stimuli/normal_thumbnails/28right.gif,,,,,1,0,1,0,0,32,32,27,,,,,,,,,,,,,,,,,,,,,,,80,33,2,151,-2.186549268,1.212024051,28,Experiment,,,,,,,,,25,37,-9,-9,,,,,,,,,,,,,,,1192.030241,1192.714372,1192.030241,1192.714372,87.75510204,1583779541,1583779548,7.015980959,1583779539,1583779541,,,HL,1,21,female,undergrad,2020_Mar_09_1126,AdjustEyeTrack,3.1.5,59.93553023
137,Stimuli/Morph137.JPG,Stimuli/Morph137.png,Stimuli/BlurLevel5/BlurEditedMorph137,Stimuli/BlurLevel5/BlurEditedMorph137.png,Stimuli/BlurLevel5/NumberedMorphs/BlurEditedMorph137.png,Stimuli/BlurLevel5/OriginalBlur/BlurEditedMorph137.png,Stimuli/BlurMorphTrio/EditedMorph137.png,None,None,,,,,1,0,1,0,0,33,33,136,,,,,,,,,,,,,,,,,,,,,,,20,34,2,164,-2.40315424,0.68909339,137,Experiment,,,,,,,,,92,129,8,8,,,,,,,,,,,,,,,1202.372691,1203.063561,1202.372691,1203.063561,89.11564626,1583779552,1583779554,2.395604849,1583779549,1583779552,,,HL,1,21,female,undergrad,2020_Mar_09_1126,AdjustEyeTrack,3.1.5,59.93553023
6,Stimuli/Morph6.JPG,Stimuli/Morph6.png,Stimuli/BlurLevel5/BlurEditedMorph6,Stimuli/BlurLevel5/BlurEditedMorph6.png,Stimuli/BlurLevel5/NumberedMorphs/BlurEditedMorph6.png,Stimuli/BlurLevel5/OriginalBlur/BlurEditedMorph6.png,Stimuli/BlurMorphTrio/EditedMorph6.png,010012right.gif,Stimuli/normal_thumbnails/6right.gif,,,,,1,0,1,0,0,34,34,5,,,,,,,,,,,,,,,,,,,,,,,7,35,2,159,-2.333951066,0.895919874,6,Experiment,,,,,,,,,111,5,1,1,,,,,,,,,,,,,,,1208.082956,1208.776569,1208.082956,1208.776569,98.63945578,1583779558,1583779561,3.366243124,1583779555,1583779558,,,HL,1,21,female,undergrad,2020_Mar_09_1126,AdjustEyeTrack,3.1.5,59.93553023
128,Stimuli/Morph128.JPG,Stimuli/Morph128.png,Stimuli/BlurLevel5/BlurEditedMorph128,Stimuli/BlurLevel5/BlurEditedMorph128.png,Stimuli/BlurLevel5/NumberedMorphs/BlurEditedMorph128.png,Stimuli/BlurLevel5/OriginalBlur/BlurEditedMorph128.png,Stimuli/BlurMorphTrio/EditedMorph128.png,None,None,,,,,1,0,1,0,0,35,35,127,,,,,,,,,,,,,,,,,,,,,,,95,36,2,247,-0.976827821,-2.301262134,128,Experiment,,,,,,,,,3,115,13,13,,,,,,,,,,,,,,,1215.088253,1215.807839,1215.088253,1215.807839,82.31292517,1583779565,1583779568,3.265766859,1583779561,1583779565,,,HL,1,21,female,undergrad,2020_Mar_09_1126,AdjustEyeTrack,3.1.5,59.93553023
2,Stimuli/Morph2.JPG,Stimuli/Morph2.png,Stimuli/BlurLevel5/BlurEditedMorph2,Stimuli/BlurLevel5/BlurEditedMorph2.png,Stimuli/BlurLevel5/NumberedMorphs/BlurEditedMorph2.png,Stimuli/BlurLevel5/OriginalBlur/BlurEditedMorph2.png,Stimuli/BlurMorphTrio/EditedMorph2.png,010006right.gif,Stimuli/normal_thumbnails/2right.gif,,,,,1,0,1,0,0,36,36,1,,,,,,,,,,,,,,,,,,,,,,,72,37,2,274,0.174391184,-2.493910126,2,Experiment,,,,,,,,,47,10,-8,-8,,,,,,,,,,,,,,,1221.800052,1222.505346,1221.800052,1222.505346,89.11564626,1583779571,1583779575,3.798424006,1583779568,1583779571,,,HL,1,21,female,undergrad,2020_Mar_09_1126,AdjustEyeTrack,3.1.5,59.93553023
135,Stimuli/Morph135.JPG,Stimuli/Morph135.png,Stimuli/BlurLevel5/BlurEditedMorph135,Stimuli/BlurLevel5/BlurEditedMorph135.png,Stimuli/BlurLevel5/NumberedMorphs/BlurEditedMorph135.png,Stimuli/BlurLevel5/OriginalBlur/BlurEditedMorph135.png,Stimuli/BlurMorphTrio/EditedMorph135.png,None,None,,,,,1,0,1,0,0,37,37,134,,,,,,,,,,,,,,,,,,,,,,,97,38,2,240,-1.25,-2.165063509,135,Experiment,,,,,,,,,54,131,4,4,,,,,,,,,,,,,,,1229.106182,1229.833185,1229.106182,1229.833185,94.55782313,1583779579,1583779584,4.983329058,1583779576,1583779579,,,HL,1,21,female,undergrad,2020_Mar_09_1126,AdjustEyeTrack,3.1.5,59.93553023
39,Stimuli/Morph39.JPG,Stimuli/Morph39.png,Stimuli/BlurLevel5/BlurEditedMorph39,Stimuli/BlurLevel5/BlurEditedMorph39.png,Stimuli/BlurLevel5/NumberedMorphs/BlurEditedMorph39.png,Stimuli/BlurLevel5/OriginalBlur/BlurEditedMorph39.png,Stimuli/BlurMorphTrio/EditedMorph39.png,010109right.gif,Stimuli/normal_thumbnails/39right.gif,,,,,1,0,1,0,0,38,38,38,,,,,,,,,,,,,,,,,,,,,,,6,39,2,128,-1.539153688,1.970026884,39,Experiment,,,,,,,,,79,38,1,1,,,,,,,,,,,,,,,1237.607491,1238.317722,1237.607491,1238.317722,98.63945578,1583779587,1583779590,3.0830791,1583779584,1583779587,,,HL,1,21,female,undergrad,2020_Mar_09_1126,AdjustEyeTrack,3.1.5,59.93553023
122,Stimuli/Morph122.JPG,Stimuli/Morph122.png,Stimuli/BlurLevel5/BlurEditedMorph122,Stimuli/BlurLevel5/BlurEditedMorph122.png,Stimuli/BlurLevel5/NumberedMorphs/BlurEditedMorph122.png,Stimuli/BlurLevel5/OriginalBlur/BlurEditedMorph122.png,Stimuli/BlurMorphTrio/EditedMorph122.png,None,None,,,,,1,0,1,0,0,39,39,121,,,,,,,,,,,,,,,,,,,,,,,71,40,2,216,-2.022542486,-1.469463131,122,Experiment,,,,,,,,,9,104,18,18,,,,,,,,,,,,,,,1243.983165,1244.670979,1243.983165,1244.670979,75.51020408,1583779593,1583779598,4.266055107,1583779591,1583779593,,,HL,1,21,female,undergrad,2020_Mar_09_1126,AdjustEyeTrack,3.1.5,59.93553023
126,Stimuli/Morph126.JPG,Stimuli/Morph126.png,Stimuli/BlurLevel5/BlurEditedMorph126,Stimuli/BlurLevel5/BlurEditedMorph126.png,Stimuli/BlurLevel5/NumberedMorphs/BlurEditedMorph126.png,Stimuli/BlurLevel5/OriginalBlur/BlurEditedMorph126.png,Stimuli/BlurMorphTrio/EditedMorph126.png,None,None,,,,,1,0,1,0,0,40,40,125,,,,,,,,,,,,,,,,,,,,,,,16,41,2,291,0.895919874,-2.333951066,126,Experiment,,,,,,,,,26,121,5,5,,,,,,,,,,,,,,,1251.656688,1252.367833,1251.656688,1252.367833,93.19727891,1583779601,1583779604,2.994703054,1583779598,1583779601,,,HL,1,21,female,undergrad,2020_Mar_09_1126,AdjustEyeTrack,3.1.5,59.93553023
23,Stimuli/Morph23.JPG,Stimuli/Morph23.png,Stimuli/BlurLevel5/BlurEditedMorph23,Stimuli/BlurLevel5/BlurEditedMorph23.png,Stimuli/BlurLevel5/NumberedMorphs/BlurEditedMorph23.png,Stimuli/BlurLevel5/OriginalBlur/BlurEditedMorph23.png,Stimuli/BlurMorphTrio/EditedMorph23.png,010063right.gif,Stimuli/normal_thumbnails/23right.gif,,,,,1,0,1,0,0,41,41,22,,,,,,,,,,,,,,,,,,,,,,,99,42,2,45,1.767766953,1.767766953,23,Experiment,,,,,,,,,141,20,3,3,,,,,,,,,,,,,,,1257.849135,1258.554447,1257.849135,1258.554447,95.91836735,1583779607,1583779611,3.566157103,1583779605,1583779607,,,HL,1,21,female,undergrad,2020_Mar_09_1126,AdjustEyeTrack,3.1.5,59.93553023
109,Stimuli/Morph109.JPG,Stimuli/Morph109.png,Stimuli/BlurLevel5/BlurEditedMorph109,Stimuli/BlurLevel5/BlurEditedMorph109.png,Stimuli/BlurLevel5/NumberedMorphs/BlurEditedMorph109.png,Stimuli/BlurLevel5/OriginalBlur/BlurEditedMorph109.png,Stimuli/BlurMorphTrio/EditedMorph109.png,None,None,,,,,1,0,1,0,0,42,42,108,,,,,,,,,,,,,,,,,,,,,,,21,43,2,253,-0.730929262,-2.39076189,109,Experiment,,,,,,,,,138,111,-2,-2,,,,,,,,,,,,,,,1264.660171,1265.345367,1264.660171,1265.345367,97.27891156,1583779614,1583779617,2.533441067,1583779611,1583779614,,,HL,1,21,female,undergrad,2020_Mar_09_1126,AdjustEyeTrack,3.1.5,59.93553023
84,Stimuli/Morph84.JPG,Stimuli/Morph84.png,Stimuli/BlurLevel5/BlurEditedMorph84,Stimuli/BlurLevel5/BlurEditedMorph84.png,Stimuli/BlurLevel5/NumberedMorphs/BlurEditedMorph84.png,Stimuli/BlurLevel5/OriginalBlur/BlurEditedMorph84.png,Stimuli/BlurMorphTrio/EditedMorph84.png,020261right.gif,Stimuli/normal_thumbnails/84right.gif,,,,,1,0,1,0,0,43,43,83,,,,,,,,,,,,,,,,,,,,,,,60,44,2,305,1.433941091,-2.047880111,84,Experiment,,,,,,,,,145,109,-25,-25,,,,,,,,,,,,,,,1270.772755,1271.492031,1270.772755,1271.492031,65.98639456,1583779620,1583779624,3.299814939,1583779617,1583779620,,,HL,1,21,female,undergrad,2020_Mar_09_1126,AdjustEyeTrack,3.1.5,59.93553023
7,Stimuli/Morph7.JPG,Stimuli/Morph7.png,Stimuli/BlurLevel5/BlurEditedMorph7,Stimuli/BlurLevel5/BlurEditedMorph7.png,Stimuli/BlurLevel5/NumberedMorphs/BlurEditedMorph7.png,Stimuli/BlurLevel5/OriginalBlur/BlurEditedMorph7.png,Stimuli/BlurMorphTrio/EditedMorph7.png,010013right.gif,Stimuli/normal_thumbnails/7right.gif,,,,,1,0,1,0,0,44,44,6,,,,,,,,,,,,,,,,,,,,,,,26,45,2,208,-2.207368982,-1.173678907,7,Experiment,,,,,,,,,6,6,1,1,,,,,,,,,,,,,,,1277.4053,1278.104261,1277.4053,1278.104261,98.63945578,1583779627,1583779628,0.788992882,1583779624,1583779627,,,HL,1,21,female,undergrad,2020_Mar_09_1126,AdjustEyeTrack,3.1.5,59.93553023
19,Stimuli/Morph19.JPG,Stimuli/Morph19.png,Stimuli/BlurLevel5/BlurEditedMorph19,Stimuli/BlurLevel5/BlurEditedMorph19.png,Stimuli/BlurLevel5/NumberedMorphs/BlurEditedMorph19.png,Stimuli/BlurLevel5/OriginalBlur/BlurEditedMorph19.png,Stimuli/BlurMorphTrio/EditedMorph19.png,010045right.gif,Stimuli/normal_thumbnails/19right.gif,,,,,1,0,1,0,0,45,45,18,,,,,,,,,,,,,,,,,,,,,,,84,46,2,290,0.855050358,-2.349231552,19,Experiment,,,,,,,,,71,16,3,3,,,,,,,,,,,,,,,1281.484321,1282.18713,1281.484321,1282.18713,95.91836735,1583779631,1583779634,2.645617247,1583779628,1583779631,,,HL,1,21,female,undergrad,2020_Mar_09_1126,AdjustEyeTrack,3.1.5,59.93553023
87,Stimuli/Morph87.JPG,Stimuli/Morph87.png,Stimuli/BlurLevel5/BlurEditedMorph87,Stimuli/BlurLevel5/BlurEditedMorph87.png,Stimuli/BlurLevel5/NumberedMorphs/BlurEditedMorph87.png,Stimuli/BlurLevel5/OriginalBlur/BlurEditedMorph87.png,Stimuli/BlurMorphTrio/EditedMorph87.png,020270right.gif,Stimuli/normal_thumbnails/87right.gif,,,,,1,0,1,0,0,46,46,86,,,,,,,,,,,,,,,,,,,,,,,11,47,2,308,1.539153688,-1.970026884,87,Experiment,,,,,,,,,108,108,-21,-21,,,,,,,,,,,,,,,1287.812383,1288.541068,1287.812383,1288.541068,71.42857143,1583779637,1583779638,0.897167683,1583779634,1583779637,,,HL,1,21,female,undergrad,2020_Mar_09_1126,AdjustEyeTrack,3.1.5,59.93553023
78,Stimuli/Morph78.JPG,Stimuli/Morph78.png,Stimuli/BlurLevel5/BlurEditedMorph78,Stimuli/BlurLevel5/BlurEditedMorph78.png,Stimuli/BlurLevel5/NumberedMorphs/BlurEditedMorph78.png,Stimuli/BlurLevel5/OriginalBlur/BlurEditedMorph78.png,Stimuli/BlurMorphTrio/EditedMorph78.png,020238right.gif,Stimuli/normal_thumbnails/78right.gif,,,,,1,0,1,0,0,47,47,77,,,,,,,,,,,,,,,,,,,,,,,3,48,2,7,2.481365379,0.304673359,78,Experiment,,,,,,,,,80,80,-2,-2,,,,,,,,,,,,,,,1292.210561,1292.937408,1292.210561,1292.937408,97.27891156,1583779642,1583779642,0.78294611,1583779639,1583779642,,,HL,1,21,female,undergrad,2020_Mar_09_1126,AdjustEyeTrack,3.1.5,59.93553023
50,Stimuli/Morph50.JPG,Stimuli/Morph50.png,Stimuli/BlurLevel5/BlurEditedMorph50,Stimuli/BlurLevel5/BlurEditedMorph50.png,Stimuli/BlurLevel5/NumberedMorphs/BlurEditedMorph50.png,Stimuli/BlurLevel5/OriginalBlur/BlurEditedMorph50.png,Stimuli/BlurMorphTrio/EditedMorph50.png,010142right.gif,Stimuli/normal_thumbnails/50right.gif,,,,,1,0,1,0,0,48,48,49,,,,,,,,,,,,,,,,,,,,,,,49,49,2,81,0.391086163,2.469220851,50,Experiment,,,,,,,,,12,41,9,9,,,,,,,,,,,,,,,1296.483237,1297.18119,1296.483237,1297.18119,87.75510204,1583779646,1583779648,1.898568869,1583779643,1583779646,,,HL,1,21,female,undergrad,2020_Mar_09_1126,AdjustEyeTrack,3.1.5,59.93553023
9,Stimuli/Morph9.JPG,Stimuli/Morph9.png,Stimuli/BlurLevel5/BlurEditedMorph9,Stimuli/BlurLevel5/BlurEditedMorph9.png,Stimuli/BlurLevel5/NumberedMorphs/BlurEditedMorph9.png,Stimuli/BlurLevel5/OriginalBlur/BlurEditedMorph9.png,Stimuli/BlurMorphTrio/EditedMorph9.png,010015right.gif,Stimuli/normal_thumbnails/9right.gif,,,,,1,0,1,0,0,49,49,8,,,,,,,,,,,,,,,,,,,,,,,79,50,2,276,0.261321158,-2.486304738,9,Experiment,,,,,,,,,70,14,-5,-5,,,,,,,,,,,,,,,1301.913976,1302.607213,1301.913976,1302.607213,93.19727891,1583779651,1583779656,4.250215292,1583779648,1583779651,,,HL,1,21,female,undergrad,2020_Mar_09_1126,AdjustEyeTrack,3.1.5,59.93553023
107,Stimuli/Morph107.JPG,Stimuli/Morph107.png,Stimuli/BlurLevel5/BlurEditedMorph107,Stimuli/BlurLevel5/BlurEditedMorph107.png,Stimuli/BlurLevel5/NumberedMorphs/BlurEditedMorph107.png,Stimuli/BlurLevel5/OriginalBlur/BlurEditedMorph107.png,Stimuli/BlurMorphTrio/EditedMorph107.png,None,None,,,,,1,0,1,0,0,50,50,106,,,,,,,,,,,,,,,,,,,,,,,40,51,2,169,-2.454067959,0.477022488,107,Experiment,,,,,,,,,96,96,11,11,,,,,,,,,,,,,,,1309.590296,1310.287473,1309.590296,1310.287473,85.03401361,1583779659,1583779660,0.894001961,1583779656,1583779659,,,HL,1,21,female,undergrad,2020_Mar_09_1126,AdjustEyeTrack,3.1.5,59.93553023
8,Stimuli/Morph8.JPG,Stimuli/Morph8.png,Stimuli/BlurLevel5/BlurEditedMorph8,Stimuli/BlurLevel5/BlurEditedMorph8.png,Stimuli/BlurLevel5/NumberedMorphs/BlurEditedMorph8.png,Stimuli/BlurLevel5/OriginalBlur/BlurEditedMorph8.png,Stimuli/BlurMorphTrio/EditedMorph8.png,010014right.gif,Stimuli/normal_thumbnails/8right.gif,,,,,1,0,1,0,0,51,51,7,,,,,,,,,,,,,,,,,,,,,,,22,52,2,22,2.317959636,0.936516484,8,Experiment,,,,,,,,,83,14,-6,-6,,,,,,,,,,,,,,,1313.817704,1314.519961,1313.817704,1314.519961,91.83673469,1583779663,1583779666,2.86521101,1583779660,1583779663,,,HL,1,21,female,undergrad,2020_Mar_09_1126,AdjustEyeTrack,3.1.5,59.93553023
29,Stimuli/Morph29.JPG,Stimuli/Morph29.png,Stimuli/BlurLevel5/BlurEditedMorph29,Stimuli/BlurLevel5/BlurEditedMorph29.png,Stimuli/BlurLevel5/NumberedMorphs/BlurEditedMorph29.png,Stimuli/BlurLevel5/OriginalBlur/BlurEditedMorph29.png,Stimuli/BlurMorphTrio/EditedMorph29.png,010074right.gif,Stimuli/normal_thumbnails/29right.gif,,,,,1,0,1,0,0,52,52,28,,,,,,,,,,,,,,,,,,,,,,,46,53,2,102,-0.519779227,2.445369002,29,Experiment,,,,,,,,,103,16,13,13,,,,,,,,,,,,,,,1319.919784,1320.603954,1319.919784,1320.603954,82.31292517,1583779669,1583779672,2.466023922,1583779667,1583779669,,,HL,1,21,female,undergrad,2020_Mar_09_1126,AdjustEyeTrack,3.1.5,59.93553023
24,Stimuli/Morph24.JPG,Stimuli/Morph24.png,Stimuli/BlurLevel5/BlurEditedMorph24,Stimuli/BlurLevel5/BlurEditedMorph24.png,Stimuli/BlurLevel5/NumberedMorphs/BlurEditedMorph24.png,Stimuli/BlurLevel5/OriginalBlur/BlurEditedMorph24.png,Stimuli/BlurMorphTrio/EditedMorph24.png,010068right.gif,Stimuli/normal_thumbnails/24right.gif,,,,,1,0,1,0,0,53,53,23,,,,,,,,,,,,,,,,,,,,,,,81,54,2,359,2.499619238,-0.043631016,24,Experiment,,,,,,,,,15,22,2,2,,,,,,,,,,,,,,,1325.535516,1326.236891,1325.535516,1326.236891,97.27891156,1583779675,1583779676,1.31611228,1583779672,1583779675,,,HL,1,21,female,undergrad,2020_Mar_09_1126,AdjustEyeTrack,3.1.5,59.93553023
33,Stimuli/Morph33.JPG,Stimuli/Morph33.png,Stimuli/BlurLevel5/BlurEditedMorph33,Stimuli/BlurLevel5/BlurEditedMorph33.png,Stimuli/BlurLevel5/NumberedMorphs/BlurEditedMorph33.png,Stimuli/BlurLevel5/OriginalBlur/BlurEditedMorph33.png,Stimuli/BlurMorphTrio/EditedMorph33.png,010089right.gif,Stimuli/normal_thumbnails/33right.gif,,,,,1,0,1,0,0,54,54,32,,,,,,,,,,,,,,,,,,,,,,,78,55,2,156,-2.283863644,1.016841608,33,Experiment,,,,,,,,,134,32,1,1,,,,,,,,,,,,,,,1330.056401,1330.741012,1330.056401,1330.741012,98.63945578,1583779679,1583779683,3.750206947,1583779677,1583779679,,,HL,1,21,female,undergrad,2020_Mar_09_1126,AdjustEyeTrack,3.1.5,59.93553023
75,Stimuli/Morph75.JPG,Stimuli/Morph75.png,Stimuli/BlurLevel5/BlurEditedMorph75,Stimuli/BlurLevel5/BlurEditedMorph75.png,Stimuli/BlurLevel5/NumberedMorphs/BlurEditedMorph75.png,Stimuli/BlurLevel5/OriginalBlur/BlurEditedMorph75.png,Stimuli/BlurMorphTrio/EditedMorph75.png,020233right.gif,Stimuli/normal_thumbnails/75right.gif,,,,,1,0,1,0,0,55,55,74,,,,,,,,,,,,,,,,,,,,,,,72,56,2,232,-1.539153688,-1.970026884,75,Experiment,,,,,,,,,59,81,-6,-6,,,,,,,,,,,,,,,1337.14028,1337.840871,1337.14028,1337.840871,91.83673469,1583779687,1583779690,3.532284021,1583779684,1583779687,,,HL,1,21,female,undergrad,2020_Mar_09_1126,AdjustEyeTrack,3.1.5,59.93553023
62,Stimuli/Morph62.JPG,Stimuli/Morph62.png,Stimuli/BlurLevel5/BlurEditedMorph62,Stimuli/BlurLevel5/BlurEditedMorph62.png,Stimuli/BlurLevel5/NumberedMorphs/BlurEditedMorph62.png,Stimuli/BlurLevel5/OriginalBlur/BlurEditedMorph62.png,Stimuli/BlurMorphTrio/EditedMorph62.png,020205right.gif,Stimuli/normal_thumbnails/62right.gif,,,,,1,0,1,0,0,56,56,61,,,,,,,,,,,,,,,,,,,,,,,28,57,2,66,1.016841608,2.283863644,62,Experiment,,,,,,,,,86,69,-7,-7,,,,,,,,,,,,,,,1344.154532,1344.848586,1344.154532,1344.848586,90.47619048,1583779694,1583779696,2.388511896,1583779691,1583779694,,,HL,1,21,female,undergrad,2020_Mar_09_1126,AdjustEyeTrack,3.1.5,59.93553023
105,Stimuli/Morph105.JPG,Stimuli/Morph105.png,Stimuli/BlurLevel5/BlurEditedMorph105,Stimuli/BlurLevel5/BlurEditedMorph105.png,Stimuli/BlurLevel5/NumberedMorphs/BlurEditedMorph105.png,Stimuli/BlurLevel5/OriginalBlur/BlurEditedMorph105.png,Stimuli/BlurMorphTrio/EditedMorph105.png,None,None,,,,,1,0,1,0,0,57,57,104,,,,,,,,,,,,,,,,,,,,,,,95,58,2,285,0.647047613,-2.414814566,105,Experiment,,,,,,,,,146,103,2,2,,,,,,,,,,,,,,,1350.180536,1350.895146,1350.180536,1350.895146,97.27891156,1583779700,1583779703,3.017873049,1583779696,1583779700,,,HL,1,21,female,undergrad,2020_Mar_09_1126,AdjustEyeTrack,3.1.5,59.93553023
53,Stimuli/Morph53.JPG,Stimuli/Morph53.png,Stimuli/BlurLevel5/BlurEditedMorph53,Stimuli/BlurLevel5/BlurEditedMorph53.png,Stimuli/BlurLevel5/NumberedMorphs/BlurEditedMorph53.png,Stimuli/BlurLevel5/OriginalBlur/BlurEditedMorph53.png,Stimuli/BlurMorphTrio/EditedMorph53.png,010149right.gif,Stimuli/normal_thumbnails/53right.gif,,,,,1,0,1,0,0,58,58,52,,,,,,,,,,,,,,,,,,,,,,,45,59,2,244,-1.095927867,-2.246985116,53,Experiment,,,,,,,,,80,62,-9,-9,,,,,,,,,,,,,,,1356.425528,1357.119261,1356.425528,1357.119261,87.75510204,1583779706,1583779709,3.365932941,1583779703,1583779706,,,HL,1,21,female,undergrad,2020_Mar_09_1126,AdjustEyeTrack,3.1.5,59.93553023
