stimulusID,stimulus_JPG,stimulusPath,stimulusPath2,stimulusPath3,stimulusPath4,stimulusPath5,stimulusPath6,xRayOriginal,xRayPath,Training.thisRepN,Training.thisTrialN,Training.thisN,Training.thisIndex,Blocks.thisRepN,Blocks.thisTrialN,Blocks.thisN,Blocks.thisIndex,Trials.thisRepN,Trials.thisTrialN,Trials.thisN,Trials.thisIndex,text_2.started,text_2.stopped,image.started,image.stopped,image_2.started,image_2.stopped,image_3.started,image_3.stopped,image_4.started,image_4.stopped,image_6.started,image_6.stopped,image_7.started,image_7.stopped,image_8.started,image_8.stopped,image_9.started,image_9.stopped,image_10.started,image_10.stopped,image_12.started,image_12.stopped,xrayID,trialNumber,blockNumber,stimLocationDeg,stimXCoord,stimYCoord,stimulusID,blockType,trainingXray.started,trainingXray.stopped,trainingTumors.started,trainingTumors.stopped,trainingScore%,startTrainingRespTime,endTrainingRespTime,trainingRT,morphTrack,morphID,errorRaw,errorCorrected,startTrainingStimTime,endTrainingStimTime,key_resp_3.keys,key_resp_3.rt,text.started,text.stopped,text_3.started,text_3.stopped,text_4.started,text_4.stopped,key_resp_5.keys,key_resp_5.rt,key_resp_5.started,key_resp_5.stopped,xray1.started,xray1.stopped,tumors.started,tumors.stopped,trialCorrect%,startRespTime,endRespTime,RT,startStimTime,endStimTime,key_resp.keys,key_resp.rt,participant,session,age,gender,status,date,expName,psychopyVersion,frameRate
87,Stimuli/Morph87.JPG,Stimuli/Morph87.png,Stimuli/BlurLevel5/BlurEditedMorph87,Stimuli/BlurLevel5/BlurEditedMorph87.png,Stimuli/BlurLevel5/NumberedMorphs/BlurEditedMorph87.png,Stimuli/BlurLevel5/OriginalBlur/BlurEditedMorph87.png,Stimuli/BlurMorphTrio/EditedMorph87.png,020270right.gif,Stimuli/normal_thumbnails/87right.gif,0,0,0,86,,,,,,,,,54.23448803,None,54.23448803,None,54.23448803,None,54.23448803,None,54.23448803,None,54.23448803,None,54.23448803,None,54.23448803,None,54.23448803,None,54.23448803,None,54.23448803,None,100,-100,-100,74,0.68909339,2.40315424,87,training,131.0706282,131.7639748,131.0706282,131.7639748,83.67346939,1583521560,1583521564,3.349452019,47,99,-12,-12,1583521558,1583521560,space,2.254962248,,,,,,,,,,,,,,,,,,,,,,,SA,1,21,female,undergrad,2020_Mar_06_1104,AdjustEyeTrack,3.1.5,60.01659291
65,Stimuli/Morph65.JPG,Stimuli/Morph65.png,Stimuli/BlurLevel5/BlurEditedMorph65,Stimuli/BlurLevel5/BlurEditedMorph65.png,Stimuli/BlurLevel5/NumberedMorphs/BlurEditedMorph65.png,Stimuli/BlurLevel5/OriginalBlur/BlurEditedMorph65.png,Stimuli/BlurMorphTrio/EditedMorph65.png,020209right.gif,Stimuli/normal_thumbnails/65right.gif,0,1,1,64,,,,,,,,,,,,,,,,,,,,,,,,,,,,,,,100,-100,-100,247,-0.976827821,-2.301262134,65,training,139.8079459,140.5169358,139.8079459,140.5169358,93.19727891,1583521569,1583521574,4.666954994,114,70,-5,-5,1583521567,1583521569,space,49.35637801,,,,,,,,,,,,,,,,,,,,,,,SA,1,21,female,undergrad,2020_Mar_06_1104,AdjustEyeTrack,3.1.5,60.01659291
127,Stimuli/Morph127.JPG,Stimuli/Morph127.png,Stimuli/BlurLevel5/BlurEditedMorph127,Stimuli/BlurLevel5/BlurEditedMorph127.png,Stimuli/BlurLevel5/NumberedMorphs/BlurEditedMorph127.png,Stimuli/BlurLevel5/OriginalBlur/BlurEditedMorph127.png,Stimuli/BlurMorphTrio/EditedMorph127.png,None,None,0,2,2,126,,,,,,,,,,,,,,,,,,,,,,,,,,,,,,,9,-100,-100,251,-0.813920386,-2.363796439,127,training,196.9383323,197.6239313,196.9383323,197.6239313,82.31292517,1583521626,1583521633,6.483336926,114,114,13,13,1583521624,1583521626,space,1.63917484,,,,,,,,,,,,,,,,,,,,,,,SA,1,21,female,undergrad,2020_Mar_06_1104,AdjustEyeTrack,3.1.5,60.01659291
83,Stimuli/Morph83.JPG,Stimuli/Morph83.png,Stimuli/BlurLevel5/BlurEditedMorph83,Stimuli/BlurLevel5/BlurEditedMorph83.png,Stimuli/BlurLevel5/NumberedMorphs/BlurEditedMorph83.png,Stimuli/BlurLevel5/OriginalBlur/BlurEditedMorph83.png,Stimuli/BlurMorphTrio/EditedMorph83.png,020259right.gif,Stimuli/normal_thumbnails/83right.gif,0,3,3,82,,,,,,,,,,,,,,,,,,,,,,,,,,,,,,,94,-100,-100,243,-1.134976249,-2.22751631,83,training,208.6186668,209.3291065,208.6186668,209.3291065,68.70748299,1583521638,1583521640,2.117823124,123,106,-23,-23,1583521635,1583521638,space,11.71496858,,,,,,,,,,,,,,,,,,,,,,,SA,1,21,female,undergrad,2020_Mar_06_1104,AdjustEyeTrack,3.1.5,60.01659291
106,Stimuli/Morph106.JPG,Stimuli/Morph106.png,Stimuli/BlurLevel5/BlurEditedMorph106,Stimuli/BlurLevel5/BlurEditedMorph106.png,Stimuli/BlurLevel5/NumberedMorphs/BlurEditedMorph106.png,Stimuli/BlurLevel5/OriginalBlur/BlurEditedMorph106.png,Stimuli/BlurMorphTrio/EditedMorph106.png,None,None,0,4,4,105,,,,,,,,,,,,,,,,,,,,,,,,,,,,,,,69,-100,-100,206,-2.246985116,-1.095927867,106,training,226.0569595,226.7457459,226.0569595,226.7457459,57.82312925,1583521655,1583521658,2.880645037,25,137,-31,-31,1583521652,1583521655,space,7.373926625,,,,,,,,,,,,,,,,,,,,,,,SA,1,21,female,undergrad,2020_Mar_06_1104,AdjustEyeTrack,3.1.5,60.01659291
5,Stimuli/Morph5.JPG,Stimuli/Morph5.png,Stimuli/BlurLevel5/BlurEditedMorph5,Stimuli/BlurLevel5/BlurEditedMorph5.png,Stimuli/BlurLevel5/NumberedMorphs/BlurEditedMorph5.png,Stimuli/BlurLevel5/OriginalBlur/BlurEditedMorph5.png,Stimuli/BlurMorphTrio/EditedMorph5.png,010011right.gif,Stimuli/normal_thumbnails/5right.gif,0,5,5,4,,,,,,,,,,,,,,,,,,,,,,,,,,,,,,,97,-100,-100,41,1.886773951,1.640147572,5,training,239.7719366,240.4752844,239.7719366,240.4752844,89.11564626,1583521669,1583521672,2.400063992,107,144,-139,8,1583521666,1583521669,space,8.133631146,,,,,,,,,,,,,,,,,,,,,,,SA,1,21,female,undergrad,2020_Mar_06_1104,AdjustEyeTrack,3.1.5,60.01659291
98,Stimuli/Morph98.JPG,Stimuli/Morph98.png,Stimuli/BlurLevel5/BlurEditedMorph98,Stimuli/BlurLevel5/BlurEditedMorph98.png,Stimuli/BlurLevel5/NumberedMorphs/BlurEditedMorph98.png,Stimuli/BlurLevel5/OriginalBlur/BlurEditedMorph98.png,Stimuli/BlurMorphTrio/EditedMorph98.png,020298right.gif,Stimuli/normal_thumbnails/98right.gif,0,6,6,97,,,,,,,,,,,,,,,,,,,,,,,,,,,,,,,74,-100,-100,124,-1.397982259,2.072593931,98,training,253.6911229,254.3781224,253.6911229,254.3781224,59.18367347,1583521683,1583521687,3.434806108,44,128,-30,-30,1583521680,1583521683,space,2.803815644,,,,,,,,,,,,,,,,,,,,,,,SA,1,21,female,undergrad,2020_Mar_06_1104,AdjustEyeTrack,3.1.5,60.01659291
8,Stimuli/Morph8.JPG,Stimuli/Morph8.png,Stimuli/BlurLevel5/BlurEditedMorph8,Stimuli/BlurLevel5/BlurEditedMorph8.png,Stimuli/BlurLevel5/NumberedMorphs/BlurEditedMorph8.png,Stimuli/BlurLevel5/OriginalBlur/BlurEditedMorph8.png,Stimuli/BlurMorphTrio/EditedMorph8.png,010014right.gif,Stimuli/normal_thumbnails/8right.gif,0,7,7,7,,,,,,,,,,,,,,,,,,,,,,,,,,,,,,,94,-100,-100,140,-1.915111108,1.606969024,8,training,263.5117738,264.2393611,263.5117738,264.2393611,86.39455782,1583521693,1583521695,2.217320204,8,145,-137,10,1583521690,1583521693,space,2.02495537,,,,,,,,,,,,,,,,,,,,,,,SA,1,21,female,undergrad,2020_Mar_06_1104,AdjustEyeTrack,3.1.5,60.01659291
79,Stimuli/Morph79.JPG,Stimuli/Morph79.png,Stimuli/BlurLevel5/BlurEditedMorph79,Stimuli/BlurLevel5/BlurEditedMorph79.png,Stimuli/BlurLevel5/NumberedMorphs/BlurEditedMorph79.png,Stimuli/BlurLevel5/OriginalBlur/BlurEditedMorph79.png,Stimuli/BlurMorphTrio/EditedMorph79.png,020239right.gif,Stimuli/normal_thumbnails/79right.gif,0,8,8,78,,,,,,,,,,,,,,,,,,,,,,,,,,,,,,,4,-100,-100,218,-1.970026884,-1.539153688,79,training,271.3565141,272.0743673,271.3565141,272.0743673,48.29931973,1583521701,1583521704,2.834080935,135,117,-38,-38,1583521698,1583521701,space,1.437945538,,,,,,,,,,,,,,,,,,,,,,,SA,1,21,female,undergrad,2020_Mar_06_1104,AdjustEyeTrack,3.1.5,60.01659291
100,Stimuli/Morph100.JPG,Stimuli/Morph100.png,Stimuli/BlurLevel5/BlurEditedMorph100,Stimuli/BlurLevel5/BlurEditedMorph100.png,Stimuli/BlurLevel5/NumberedMorphs/BlurEditedMorph100.png,Stimuli/BlurLevel5/OriginalBlur/BlurEditedMorph100.png,Stimuli/BlurMorphTrio/EditedMorph100.png,020297right.gif,Stimuli/normal_thumbnails/100right.gif,0,9,9,99,,,,,,,,,,,,,,,,,,,,,,,,,,,,,,,31,-100,-100,212,-2.12012024,-1.324798161,100,training,279.043861,279.7505462,279.043861,279.7505462,70.06802721,1583521708,1583521710,1.867105246,102,122,-22,-22,1583521706,1583521708,space,0.954840903,,,,,,,,,,,,,,,,,,,,,,,SA,1,21,female,undergrad,2020_Mar_06_1104,AdjustEyeTrack,3.1.5,60.01659291
,,,,,,,,,,,,,,,,,,,,,,,,,,,,,,,,,,,,,,,,,,,,,-100,-100,,,,,training,,,,,,,,,,,,,,,,,284.932561,None,284.932561,None,284.932561,None,space,90.42240283,284.932561,None,,,,,,,,,,,,,SA,1,21,female,undergrad,2020_Mar_06_1104,AdjustEyeTrack,3.1.5,60.01659291
7,Stimuli/Morph7.JPG,Stimuli/Morph7.png,Stimuli/BlurLevel5/BlurEditedMorph7,Stimuli/BlurLevel5/BlurEditedMorph7.png,Stimuli/BlurLevel5/NumberedMorphs/BlurEditedMorph7.png,Stimuli/BlurLevel5/OriginalBlur/BlurEditedMorph7.png,Stimuli/BlurMorphTrio/EditedMorph7.png,010013right.gif,Stimuli/normal_thumbnails/7right.gif,,,,,0,0,0,0,0,0,0,6,,,,,,,,,,,,,,,,,,,,,,,44,1,1,157,-2.301262134,0.976827821,7,Experiment,,,,,,,,,115,141,-134,13,,,,,,,,,,,,,,,376.8092545,377.4982623,376.8092545,377.4982623,82.31292517,1583521806,1583521808,1.434042931,1583521803,1583521806,,,SA,1,21,female,undergrad,2020_Mar_06_1104,AdjustEyeTrack,3.1.5,60.01659291
110,Stimuli/Morph110.JPG,Stimuli/Morph110.png,Stimuli/BlurLevel5/BlurEditedMorph110,Stimuli/BlurLevel5/BlurEditedMorph110.png,Stimuli/BlurLevel5/NumberedMorphs/BlurEditedMorph110.png,Stimuli/BlurLevel5/OriginalBlur/BlurEditedMorph110.png,Stimuli/BlurMorphTrio/EditedMorph110.png,None,None,,,,,0,0,0,0,0,1,1,109,,,,,,,,,,,,,,,,,,,,,,,45,2,1,281,0.477022488,-2.454067959,110,Experiment,,,,,,,,,132,106,4,4,,,,,,,,,,,,,,,381.3790721,382.065336,381.3790721,382.065336,94.55782313,1583521811,1583521813,2.016757727,1583521808,1583521811,,,SA,1,21,female,undergrad,2020_Mar_06_1104,AdjustEyeTrack,3.1.5,60.01659291
45,Stimuli/Morph45.JPG,Stimuli/Morph45.png,Stimuli/BlurLevel5/BlurEditedMorph45,Stimuli/BlurLevel5/BlurEditedMorph45.png,Stimuli/BlurLevel5/NumberedMorphs/BlurEditedMorph45.png,Stimuli/BlurLevel5/OriginalBlur/BlurEditedMorph45.png,Stimuli/BlurMorphTrio/EditedMorph45.png,010127right.gif,Stimuli/normal_thumbnails/45right.gif,,,,,0,0,0,0,0,2,2,44,,,,,,,,,,,,,,,,,,,,,,,17,3,1,286,0.68909339,-2.40315424,45,Experiment,,,,,,,,,29,56,-11,-11,,,,,,,,,,,,,,,386.8823298,387.5870141,386.8823298,387.5870141,85.03401361,1583521816,1583521818,1.550942898,1583521813,1583521816,,,SA,1,21,female,undergrad,2020_Mar_06_1104,AdjustEyeTrack,3.1.5,60.01659291
90,Stimuli/Morph90.JPG,Stimuli/Morph90.png,Stimuli/BlurLevel5/BlurEditedMorph90,Stimuli/BlurLevel5/BlurEditedMorph90.png,Stimuli/BlurLevel5/NumberedMorphs/BlurEditedMorph90.png,Stimuli/BlurLevel5/OriginalBlur/BlurEditedMorph90.png,Stimuli/BlurMorphTrio/EditedMorph90.png,020275right.gif,Stimuli/normal_thumbnails/90right.gif,,,,,0,0,0,0,0,3,3,89,,,,,,,,,,,,,,,,,,,,,,,15,4,1,93,-0.130839891,2.496573837,90,Experiment,,,,,,,,,139,113,-23,-23,,,,,,,,,,,,,,,391.729869,392.4154376,391.729869,392.4154376,68.70748299,1583521821,1583521823,2.166673899,1583521818,1583521821,,,SA,1,21,female,undergrad,2020_Mar_06_1104,AdjustEyeTrack,3.1.5,60.01659291
146,Stimuli/Morph146.JPG,Stimuli/Morph146.png,Stimuli/BlurLevel5/BlurEditedMorph146,Stimuli/BlurLevel5/BlurEditedMorph146.png,Stimuli/BlurLevel5/NumberedMorphs/BlurEditedMorph146.png,Stimuli/BlurLevel5/OriginalBlur/BlurEditedMorph146.png,Stimuli/BlurMorphTrio/EditedMorph146.png,None,None,,,,,0,0,0,0,0,4,4,145,,,,,,,,,,,,,,,,,,,,,,,73,5,1,27,2.22751631,1.134976249,146,Experiment,,,,,,,,,103,138,8,8,,,,,,,,,,,,,,,397.3005104,397.9994006,397.3005104,397.9994006,89.11564626,1583521827,1583521829,2.298429728,1583521824,1583521827,,,SA,1,21,female,undergrad,2020_Mar_06_1104,AdjustEyeTrack,3.1.5,60.01659291
31,Stimuli/Morph31.JPG,Stimuli/Morph31.png,Stimuli/BlurLevel5/BlurEditedMorph31,Stimuli/BlurLevel5/BlurEditedMorph31.png,Stimuli/BlurLevel5/NumberedMorphs/BlurEditedMorph31.png,Stimuli/BlurLevel5/OriginalBlur/BlurEditedMorph31.png,Stimuli/BlurMorphTrio/EditedMorph31.png,010079right.gif,Stimuli/normal_thumbnails/31right.gif,,,,,0,0,0,0,0,5,5,30,,,,,,,,,,,,,,,,,,,,,,,46,6,1,162,-2.377641291,0.772542486,31,Experiment,,,,,,,,,137,25,6,6,,,,,,,,,,,,,,,402.8002806,403.4969687,402.8002806,403.4969687,91.83673469,1583521832,1583521836,3.370801926,1583521830,1583521832,,,SA,1,21,female,undergrad,2020_Mar_06_1104,AdjustEyeTrack,3.1.5,60.01659291
39,Stimuli/Morph39.JPG,Stimuli/Morph39.png,Stimuli/BlurLevel5/BlurEditedMorph39,Stimuli/BlurLevel5/BlurEditedMorph39.png,Stimuli/BlurLevel5/NumberedMorphs/BlurEditedMorph39.png,Stimuli/BlurLevel5/OriginalBlur/BlurEditedMorph39.png,Stimuli/BlurMorphTrio/EditedMorph39.png,010109right.gif,Stimuli/normal_thumbnails/39right.gif,,,,,0,0,0,0,0,6,6,38,,,,,,,,,,,,,,,,,,,,,,,85,7,1,96,-0.261321158,2.486304738,39,Experiment,,,,,,,,,39,50,-11,-11,,,,,,,,,,,,,,,409.3789035,410.0700173,409.3789035,410.0700173,85.03401361,1583521839,1583521842,3.453752041,1583521836,1583521839,,,SA,1,21,female,undergrad,2020_Mar_06_1104,AdjustEyeTrack,3.1.5,60.01659291
81,Stimuli/Morph81.JPG,Stimuli/Morph81.png,Stimuli/BlurLevel5/BlurEditedMorph81,Stimuli/BlurLevel5/BlurEditedMorph81.png,Stimuli/BlurLevel5/NumberedMorphs/BlurEditedMorph81.png,Stimuli/BlurLevel5/OriginalBlur/BlurEditedMorph81.png,Stimuli/BlurMorphTrio/EditedMorph81.png,020245right.gif,Stimuli/normal_thumbnails/81right.gif,,,,,0,0,0,0,0,7,7,80,,,,,,,,,,,,,,,,,,,,,,,49,8,1,344,2.40315424,-0.68909339,81,Experiment,,,,,,,,,123,131,-50,-50,,,,,,,,,,,,,,,416.1745296,416.8828691,416.1745296,416.8828691,31.97278912,1583521846,1583521851,4.969363213,1583521843,1583521846,,,SA,1,21,female,undergrad,2020_Mar_06_1104,AdjustEyeTrack,3.1.5,60.01659291
98,Stimuli/Morph98.JPG,Stimuli/Morph98.png,Stimuli/BlurLevel5/BlurEditedMorph98,Stimuli/BlurLevel5/BlurEditedMorph98.png,Stimuli/BlurLevel5/NumberedMorphs/BlurEditedMorph98.png,Stimuli/BlurLevel5/OriginalBlur/BlurEditedMorph98.png,Stimuli/BlurMorphTrio/EditedMorph98.png,020298right.gif,Stimuli/normal_thumbnails/98right.gif,,,,,0,0,0,0,0,8,8,97,,,,,,,,,,,,,,,,,,,,,,,14,9,1,275,0.217889357,-2.490486745,98,Experiment,,,,,,,,,68,115,-17,-17,,,,,,,,,,,,,,,424.6001693,425.3094044,424.6001693,425.3094044,76.8707483,1583521854,1583521867,12.81811404,1583521851,1583521854,,,SA,1,21,female,undergrad,2020_Mar_06_1104,AdjustEyeTrack,3.1.5,60.01659291
70,Stimuli/Morph70.JPG,Stimuli/Morph70.png,Stimuli/BlurLevel5/BlurEditedMorph70,Stimuli/BlurLevel5/BlurEditedMorph70.png,Stimuli/BlurLevel5/NumberedMorphs/BlurEditedMorph70.png,Stimuli/BlurLevel5/OriginalBlur/BlurEditedMorph70.png,Stimuli/BlurMorphTrio/EditedMorph70.png,020221right.gif,Stimuli/normal_thumbnails/70right.gif,,,,,0,0,0,0,0,9,9,69,,,,,,,,,,,,,,,,,,,,,,,90,10,1,358,2.498477068,-0.087248742,70,Experiment,,,,,,,,,16,76,-6,-6,,,,,,,,,,,,,,,440.6777484,441.3695868,440.6777484,441.3695868,91.83673469,1583521870,1583521875,4.770107269,1583521867,1583521870,,,SA,1,21,female,undergrad,2020_Mar_06_1104,AdjustEyeTrack,3.1.5,60.01659291
59,Stimuli/Morph59.JPG,Stimuli/Morph59.png,Stimuli/BlurLevel5/BlurEditedMorph59,Stimuli/BlurLevel5/BlurEditedMorph59.png,Stimuli/BlurLevel5/NumberedMorphs/BlurEditedMorph59.png,Stimuli/BlurLevel5/OriginalBlur/BlurEditedMorph59.png,Stimuli/BlurMorphTrio/EditedMorph59.png,010160right.gif,Stimuli/normal_thumbnails/59right.gif,,,,,0,0,0,0,0,10,10,58,,,,,,,,,,,,,,,,,,,,,,,90,11,1,148,-2.12012024,1.324798161,59,Experiment,,,,,,,,,78,51,8,8,,,,,,,,,,,,,,,448.5245342,449.2107897,448.5245342,449.2107897,89.11564626,1583521878,1583521881,3.533138752,1583521875,1583521878,,,SA,1,21,female,undergrad,2020_Mar_06_1104,AdjustEyeTrack,3.1.5,60.01659291
58,Stimuli/Morph58.JPG,Stimuli/Morph58.png,Stimuli/BlurLevel5/BlurEditedMorph58,Stimuli/BlurLevel5/BlurEditedMorph58.png,Stimuli/BlurLevel5/NumberedMorphs/BlurEditedMorph58.png,Stimuli/BlurLevel5/OriginalBlur/BlurEditedMorph58.png,Stimuli/BlurMorphTrio/EditedMorph58.png,010159right.gif,Stimuli/normal_thumbnails/58right.gif,,,,,0,0,0,0,0,11,11,57,,,,,,,,,,,,,,,,,,,,,,,37,12,1,126,-1.469463131,2.022542486,58,Experiment,,,,,,,,,91,42,16,16,,,,,,,,,,,,,,,455.4353313,456.1377176,455.4353313,456.1377176,78.23129252,1583521885,1583521889,3.88538003,1583521882,1583521885,,,SA,1,21,female,undergrad,2020_Mar_06_1104,AdjustEyeTrack,3.1.5,60.01659291
131,Stimuli/Morph131.JPG,Stimuli/Morph131.png,Stimuli/BlurLevel5/BlurEditedMorph131,Stimuli/BlurLevel5/BlurEditedMorph131.png,Stimuli/BlurLevel5/NumberedMorphs/BlurEditedMorph131.png,Stimuli/BlurLevel5/OriginalBlur/BlurEditedMorph131.png,Stimuli/BlurMorphTrio/EditedMorph131.png,None,None,,,,,0,0,0,0,0,12,12,130,,,,,,,,,,,,,,,,,,,,,,,83,13,1,213,-2.09667642,-1.361597588,131,Experiment,,,,,,,,,26,15,116,-31,,,,,,,,,,,,,,,462.7508377,463.448398,462.7508377,463.448398,57.82312925,1583521892,1583521898,5.80434823,1583521889,1583521892,,,SA,1,21,female,undergrad,2020_Mar_06_1104,AdjustEyeTrack,3.1.5,60.01659291
120,Stimuli/Morph120.JPG,Stimuli/Morph120.png,Stimuli/BlurLevel5/BlurEditedMorph120,Stimuli/BlurLevel5/BlurEditedMorph120.png,Stimuli/BlurLevel5/NumberedMorphs/BlurEditedMorph120.png,Stimuli/BlurLevel5/OriginalBlur/BlurEditedMorph120.png,Stimuli/BlurMorphTrio/EditedMorph120.png,None,None,,,,,0,0,0,0,0,13,13,119,,,,,,,,,,,,,,,,,,,,,,,26,14,1,354,2.486304738,-0.261321158,120,Experiment,,,,,,,,,76,91,29,29,,,,,,,,,,,,,,,471.7955629,472.4916934,471.7955629,472.4916934,60.54421769,1583521901,1583521906,4.766338825,1583521898,1583521901,,,SA,1,21,female,undergrad,2020_Mar_06_1104,AdjustEyeTrack,3.1.5,60.01659291
145,Stimuli/Morph145.JPG,Stimuli/Morph145.png,Stimuli/BlurLevel5/BlurEditedMorph145,Stimuli/BlurLevel5/BlurEditedMorph145.png,Stimuli/BlurLevel5/NumberedMorphs/BlurEditedMorph145.png,Stimuli/BlurLevel5/OriginalBlur/BlurEditedMorph145.png,Stimuli/BlurMorphTrio/EditedMorph145.png,None,None,,,,,0,0,0,0,0,14,14,144,,,,,,,,,,,,,,,,,,,,,,,21,15,1,218,-1.970026884,-1.539153688,145,Experiment,,,,,,,,,96,18,127,-20,,,,,,,,,,,,,,,479.7794982,480.463792,479.7794982,480.463792,72.78911565,1583521909,1583521911,2.298239946,1583521906,1583521909,,,SA,1,21,female,undergrad,2020_Mar_06_1104,AdjustEyeTrack,3.1.5,60.01659291
51,Stimuli/Morph51.JPG,Stimuli/Morph51.png,Stimuli/BlurLevel5/BlurEditedMorph51,Stimuli/BlurLevel5/BlurEditedMorph51.png,Stimuli/BlurLevel5/NumberedMorphs/BlurEditedMorph51.png,Stimuli/BlurLevel5/OriginalBlur/BlurEditedMorph51.png,Stimuli/BlurMorphTrio/EditedMorph51.png,010146right.gif,Stimuli/normal_thumbnails/51right.gif,,,,,0,0,0,0,0,15,15,50,,,,,,,,,,,,,,,,,,,,,,,46,16,1,352,2.475670172,-0.347932752,51,Experiment,,,,,,,,,125,102,-51,-51,,,,,,,,,,,,,,,485.2263156,485.9155028,485.2263156,485.9155028,30.6122449,1583521915,1583521919,3.908520222,1583521912,1583521915,,,SA,1,21,female,undergrad,2020_Mar_06_1104,AdjustEyeTrack,3.1.5,60.01659291
144,Stimuli/Morph144.JPG,Stimuli/Morph144.png,Stimuli/BlurLevel5/BlurEditedMorph144,Stimuli/BlurLevel5/BlurEditedMorph144.png,Stimuli/BlurLevel5/NumberedMorphs/BlurEditedMorph144.png,Stimuli/BlurLevel5/OriginalBlur/BlurEditedMorph144.png,Stimuli/BlurMorphTrio/EditedMorph144.png,None,None,,,,,0,0,0,0,0,16,16,143,,,,,,,,,,,,,,,,,,,,,,,55,17,1,332,2.207368982,-1.173678907,144,Experiment,,,,,,,,,13,1,143,-4,,,,,,,,,,,,,,,492.3960784,493.0948384,492.3960784,493.0948384,94.55782313,1583521922,1583521926,4.080471039,1583521919,1583521922,,,SA,1,21,female,undergrad,2020_Mar_06_1104,AdjustEyeTrack,3.1.5,60.01659291
79,Stimuli/Morph79.JPG,Stimuli/Morph79.png,Stimuli/BlurLevel5/BlurEditedMorph79,Stimuli/BlurLevel5/BlurEditedMorph79.png,Stimuli/BlurLevel5/NumberedMorphs/BlurEditedMorph79.png,Stimuli/BlurLevel5/OriginalBlur/BlurEditedMorph79.png,Stimuli/BlurMorphTrio/EditedMorph79.png,020239right.gif,Stimuli/normal_thumbnails/79right.gif,,,,,0,0,0,0,0,17,17,78,,,,,,,,,,,,,,,,,,,,,,,42,18,1,145,-2.047880111,1.433941091,79,Experiment,,,,,,,,,121,74,5,5,,,,,,,,,,,,,,,500.0439294,500.7452411,500.0439294,500.7452411,93.19727891,1583521929,1583521934,4.512831926,1583521926,1583521929,,,SA,1,21,female,undergrad,2020_Mar_06_1104,AdjustEyeTrack,3.1.5,60.01659291
109,Stimuli/Morph109.JPG,Stimuli/Morph109.png,Stimuli/BlurLevel5/BlurEditedMorph109,Stimuli/BlurLevel5/BlurEditedMorph109.png,Stimuli/BlurLevel5/NumberedMorphs/BlurEditedMorph109.png,Stimuli/BlurLevel5/OriginalBlur/BlurEditedMorph109.png,Stimuli/BlurMorphTrio/EditedMorph109.png,None,None,,,,,0,0,0,0,0,18,18,108,,,,,,,,,,,,,,,,,,,,,,,90,19,1,56,1.397982259,2.072593931,109,Experiment,,,,,,,,,45,104,5,5,,,,,,,,,,,,,,,507.8271646,508.512766,507.8271646,508.512766,93.19727891,1583521937,1583521940,2.837469101,1583521934,1583521937,,,SA,1,21,female,undergrad,2020_Mar_06_1104,AdjustEyeTrack,3.1.5,60.01659291
52,Stimuli/Morph52.JPG,Stimuli/Morph52.png,Stimuli/BlurLevel5/BlurEditedMorph52,Stimuli/BlurLevel5/BlurEditedMorph52.png,Stimuli/BlurLevel5/NumberedMorphs/BlurEditedMorph52.png,Stimuli/BlurLevel5/OriginalBlur/BlurEditedMorph52.png,Stimuli/BlurMorphTrio/EditedMorph52.png,010148right.gif,Stimuli/normal_thumbnails/52right.gif,,,,,0,0,0,0,0,19,19,51,,,,,,,,,,,,,,,,,,,,,,,2,20,1,347,2.435925162,-0.562377636,52,Experiment,,,,,,,,,94,42,10,10,,,,,,,,,,,,,,,513.8870562,514.5695881,513.8870562,514.5695881,86.39455782,1583521943,1583521946,3.216330051,1583521941,1583521943,,,SA,1,21,female,undergrad,2020_Mar_06_1104,AdjustEyeTrack,3.1.5,60.01659291
34,Stimuli/Morph34.JPG,Stimuli/Morph34.png,Stimuli/BlurLevel5/BlurEditedMorph34,Stimuli/BlurLevel5/BlurEditedMorph34.png,Stimuli/BlurLevel5/NumberedMorphs/BlurEditedMorph34.png,Stimuli/BlurLevel5/OriginalBlur/BlurEditedMorph34.png,Stimuli/BlurMorphTrio/EditedMorph34.png,010090right.gif,Stimuli/normal_thumbnails/34right.gif,,,,,0,0,0,0,0,20,20,33,,,,,,,,,,,,,,,,,,,,,,,37,21,1,148,-2.12012024,1.324798161,34,Experiment,,,,,,,,,32,27,7,7,,,,,,,,,,,,,,,520.4450224,521.1459089,520.4450224,521.1459089,90.47619048,1583521950,1583521951,1.553049088,1583521947,1583521950,,,SA,1,21,female,undergrad,2020_Mar_06_1104,AdjustEyeTrack,3.1.5,60.01659291
140,Stimuli/Morph140.JPG,Stimuli/Morph140.png,Stimuli/BlurLevel5/BlurEditedMorph140,Stimuli/BlurLevel5/BlurEditedMorph140.png,Stimuli/BlurLevel5/NumberedMorphs/BlurEditedMorph140.png,Stimuli/BlurLevel5/OriginalBlur/BlurEditedMorph140.png,Stimuli/BlurMorphTrio/EditedMorph140.png,None,None,,,,,0,0,0,0,0,21,21,139,,,,,,,,,,,,,,,,,,,,,,,74,22,1,39,1.942864904,1.573300978,140,Experiment,,,,,,,,,110,134,6,6,,,,,,,,,,,,,,,525.3466225,526.0620567,525.3466225,526.0620567,91.83673469,1583521955,1583521956,1.149183989,1583521952,1583521955,,,SA,1,21,female,undergrad,2020_Mar_06_1104,AdjustEyeTrack,3.1.5,60.01659291
103,Stimuli/Morph103.JPG,Stimuli/Morph103.png,Stimuli/BlurLevel5/BlurEditedMorph103,Stimuli/BlurLevel5/BlurEditedMorph103.png,Stimuli/BlurLevel5/NumberedMorphs/BlurEditedMorph103.png,Stimuli/BlurLevel5/OriginalBlur/BlurEditedMorph103.png,Stimuli/BlurMorphTrio/EditedMorph103.png,None,None,,,,,0,0,0,0,0,22,22,102,,,,,,,,,,,,,,,,,,,,,,,62,23,1,346,2.425739316,-0.604804739,103,Experiment,,,,,,,,,141,106,-3,-3,,,,,,,,,,,,,,,529.9301337,530.6344268,529.9301337,530.6344268,95.91836735,1583521959,1583521963,3.549727201,1583521956,1583521959,,,SA,1,21,female,undergrad,2020_Mar_06_1104,AdjustEyeTrack,3.1.5,60.01659291
75,Stimuli/Morph75.JPG,Stimuli/Morph75.png,Stimuli/BlurLevel5/BlurEditedMorph75,Stimuli/BlurLevel5/BlurEditedMorph75.png,Stimuli/BlurLevel5/NumberedMorphs/BlurEditedMorph75.png,Stimuli/BlurLevel5/OriginalBlur/BlurEditedMorph75.png,Stimuli/BlurMorphTrio/EditedMorph75.png,020233right.gif,Stimuli/normal_thumbnails/75right.gif,,,,,0,0,0,0,0,23,23,74,,,,,,,,,,,,,,,,,,,,,,,42,24,1,107,-0.730929262,2.39076189,75,Experiment,,,,,,,,,143,79,-4,-4,,,,,,,,,,,,,,,537.0901879,537.7954389,537.0901879,537.7954389,94.55782313,1583521967,1583521968,1.84871912,1583521963,1583521967,,,SA,1,21,female,undergrad,2020_Mar_06_1104,AdjustEyeTrack,3.1.5,60.01659291
99,Stimuli/Morph99.JPG,Stimuli/Morph99.png,Stimuli/BlurLevel5/BlurEditedMorph99,Stimuli/BlurLevel5/BlurEditedMorph99.png,Stimuli/BlurLevel5/NumberedMorphs/BlurEditedMorph99.png,Stimuli/BlurLevel5/OriginalBlur/BlurEditedMorph99.png,Stimuli/BlurMorphTrio/EditedMorph99.png,020299right.gif,Stimuli/normal_thumbnails/99right.gif,,,,,0,0,0,0,0,24,24,98,,,,,,,,,,,,,,,,,,,,,,,69,25,1,309,1.573300978,-1.942864904,99,Experiment,,,,,,,,,114,70,29,29,,,,,,,,,,,,,,,542.5699344,543.2915366,542.5699344,543.2915366,60.54421769,1583521972,1583521977,4.520539999,1583521969,1583521972,,,SA,1,21,female,undergrad,2020_Mar_06_1104,AdjustEyeTrack,3.1.5,60.01659291
85,Stimuli/Morph85.JPG,Stimuli/Morph85.png,Stimuli/BlurLevel5/BlurEditedMorph85,Stimuli/BlurLevel5/BlurEditedMorph85.png,Stimuli/BlurLevel5/NumberedMorphs/BlurEditedMorph85.png,Stimuli/BlurLevel5/OriginalBlur/BlurEditedMorph85.png,Stimuli/BlurMorphTrio/EditedMorph85.png,020264right.gif,Stimuli/normal_thumbnails/85right.gif,,,,,0,0,0,0,0,25,25,84,,,,,,,,,,,,,,,,,,,,,,,12,26,1,324,2.022542486,-1.469463131,85,Experiment,,,,,,,,,147,86,-1,-1,,,,,,,,,,,,,,,550.9414049,551.6739678,550.9414049,551.6739678,98.63945578,1583521980,1583521983,2.516710758,1583521977,1583521980,,,SA,1,21,female,undergrad,2020_Mar_06_1104,AdjustEyeTrack,3.1.5,60.01659291
121,Stimuli/Morph121.JPG,Stimuli/Morph121.png,Stimuli/BlurLevel5/BlurEditedMorph121,Stimuli/BlurLevel5/BlurEditedMorph121.png,Stimuli/BlurLevel5/NumberedMorphs/BlurEditedMorph121.png,Stimuli/BlurLevel5/OriginalBlur/BlurEditedMorph121.png,Stimuli/BlurMorphTrio/EditedMorph121.png,None,None,,,,,0,0,0,0,0,26,26,120,,,,,,,,,,,,,,,,,,,,,,,79,27,1,325,2.047880111,-1.433941091,121,Experiment,,,,,,,,,113,113,8,8,,,,,,,,,,,,,,,556.7958706,557.4921068,556.7958706,557.4921068,89.11564626,1583521986,1583521987,1.263866186,1583521983,1583521986,,,SA,1,21,female,undergrad,2020_Mar_06_1104,AdjustEyeTrack,3.1.5,60.01659291
104,Stimuli/Morph104.JPG,Stimuli/Morph104.png,Stimuli/BlurLevel5/BlurEditedMorph104,Stimuli/BlurLevel5/BlurEditedMorph104.png,Stimuli/BlurLevel5/NumberedMorphs/BlurEditedMorph104.png,Stimuli/BlurLevel5/OriginalBlur/BlurEditedMorph104.png,Stimuli/BlurMorphTrio/EditedMorph104.png,None,None,,,,,0,0,0,0,0,27,27,103,,,,,,,,,,,,,,,,,,,,,,,63,28,1,236,-1.397982259,-2.072593931,104,Experiment,,,,,,,,,66,93,11,11,,,,,,,,,,,,,,,561.3372675,562.035454,561.3372675,562.035454,85.03401361,1583521991,1583521992,1.433274031,1583521988,1583521991,,,SA,1,21,female,undergrad,2020_Mar_06_1104,AdjustEyeTrack,3.1.5,60.01659291
57,Stimuli/Morph57.JPG,Stimuli/Morph57.png,Stimuli/BlurLevel5/BlurEditedMorph57,Stimuli/BlurLevel5/BlurEditedMorph57.png,Stimuli/BlurLevel5/NumberedMorphs/BlurEditedMorph57.png,Stimuli/BlurLevel5/OriginalBlur/BlurEditedMorph57.png,Stimuli/BlurMorphTrio/EditedMorph57.png,010158right.gif,Stimuli/normal_thumbnails/57right.gif,,,,,0,0,0,0,0,28,28,56,,,,,,,,,,,,,,,,,,,,,,,93,29,1,302,1.324798161,-2.12012024,57,Experiment,,,,,,,,,14,52,5,5,,,,,,,,,,,,,,,566.7220773,567.4663641,566.7220773,567.4663641,93.19727891,1583521996,1583521998,1.416314125,1583521993,1583521996,,,SA,1,21,female,undergrad,2020_Mar_06_1104,AdjustEyeTrack,3.1.5,60.01659291
1,Stimuli/Morph1.JPG,Stimuli/Morph1.png,Stimuli/BlurLevel5/BlurEditedMorph1,Stimuli/BlurLevel5/BlurEditedMorph1.png,Stimuli/BlurLevel5/NumberedMorphs/BlurEditedMorph1.png,Stimuli/BlurLevel5/OriginalBlur/BlurEditedMorph1.png,Stimuli/BlurMorphTrio/EditedMorph1.png,010003right.gif,Stimuli/normal_thumbnails/1right.gif,,,,,0,0,0,0,0,29,29,0,,,,,,,,,,,,,,,,,,,,,,,52,30,1,100,-0.434120444,2.462019383,1,Experiment,,,,,,,,,36,123,-122,25,,,,,,,,,,,,,,,571.5277325,572.218616,571.5277325,572.218616,65.98639456,1583522001,1583522004,3.41661191,1583521998,1583522001,,,SA,1,21,female,undergrad,2020_Mar_06_1104,AdjustEyeTrack,3.1.5,60.01659291
60,Stimuli/Morph60.JPG,Stimuli/Morph60.png,Stimuli/BlurLevel5/BlurEditedMorph60,Stimuli/BlurLevel5/BlurEditedMorph60.png,Stimuli/BlurLevel5/NumberedMorphs/BlurEditedMorph60.png,Stimuli/BlurLevel5/OriginalBlur/BlurEditedMorph60.png,Stimuli/BlurMorphTrio/EditedMorph60.png,020200right.gif,Stimuli/normal_thumbnails/60right.gif,,,,,0,0,0,0,0,30,30,59,,,,,,,,,,,,,,,,,,,,,,,58,31,1,280,0.434120444,-2.462019383,60,Experiment,,,,,,,,,10,47,13,13,,,,,,,,,,,,,,,578.2111834,578.9273048,578.2111834,578.9273048,82.31292517,1583522008,1583522010,2.348380089,1583522005,1583522008,,,SA,1,21,female,undergrad,2020_Mar_06_1104,AdjustEyeTrack,3.1.5,60.01659291
125,Stimuli/Morph125.JPG,Stimuli/Morph125.png,Stimuli/BlurLevel5/BlurEditedMorph125,Stimuli/BlurLevel5/BlurEditedMorph125.png,Stimuli/BlurLevel5/NumberedMorphs/BlurEditedMorph125.png,Stimuli/BlurLevel5/OriginalBlur/BlurEditedMorph125.png,Stimuli/BlurMorphTrio/EditedMorph125.png,None,None,,,,,0,0,0,0,0,31,31,124,,,,,,,,,,,,,,,,,,,,,,,84,32,1,348,2.445369002,-0.519779227,125,Experiment,,,,,,,,,63,75,50,50,,,,,,,,,,,,,,,583.8098337,584.5079952,583.8098337,584.5079952,31.97278912,1583522013,1583522016,2.83071208,1583522011,1583522013,,,SA,1,21,female,undergrad,2020_Mar_06_1104,AdjustEyeTrack,3.1.5,60.01659291
33,Stimuli/Morph33.JPG,Stimuli/Morph33.png,Stimuli/BlurLevel5/BlurEditedMorph33,Stimuli/BlurLevel5/BlurEditedMorph33.png,Stimuli/BlurLevel5/NumberedMorphs/BlurEditedMorph33.png,Stimuli/BlurLevel5/OriginalBlur/BlurEditedMorph33.png,Stimuli/BlurMorphTrio/EditedMorph33.png,010089right.gif,Stimuli/normal_thumbnails/33right.gif,,,,,0,0,0,0,0,32,32,32,,,,,,,,,,,,,,,,,,,,,,,34,33,1,13,2.435925162,0.562377636,33,Experiment,,,,,,,,,61,70,-37,-37,,,,,,,,,,,,,,,590.1272876,590.8398981,590.1272876,590.8398981,49.65986395,1583522020,1583522021,1.133298159,1583522017,1583522020,,,SA,1,21,female,undergrad,2020_Mar_06_1104,AdjustEyeTrack,3.1.5,60.01659291
71,Stimuli/Morph71.JPG,Stimuli/Morph71.png,Stimuli/BlurLevel5/BlurEditedMorph71,Stimuli/BlurLevel5/BlurEditedMorph71.png,Stimuli/BlurLevel5/NumberedMorphs/BlurEditedMorph71.png,Stimuli/BlurLevel5/OriginalBlur/BlurEditedMorph71.png,Stimuli/BlurMorphTrio/EditedMorph71.png,020225right.gif,Stimuli/normal_thumbnails/71right.gif,,,,,0,0,0,0,0,33,33,70,,,,,,,,,,,,,,,,,,,,,,,23,34,1,324,2.022542486,-1.469463131,71,Experiment,,,,,,,,,73,73,-2,-2,,,,,,,,,,,,,,,594.6513626,595.3430782,594.6513626,595.3430782,97.27891156,1583522024,1583522025,0.980679274,1583522021,1583522024,,,SA,1,21,female,undergrad,2020_Mar_06_1104,AdjustEyeTrack,3.1.5,60.01659291
128,Stimuli/Morph128.JPG,Stimuli/Morph128.png,Stimuli/BlurLevel5/BlurEditedMorph128,Stimuli/BlurLevel5/BlurEditedMorph128.png,Stimuli/BlurLevel5/NumberedMorphs/BlurEditedMorph128.png,Stimuli/BlurLevel5/OriginalBlur/BlurEditedMorph128.png,Stimuli/BlurMorphTrio/EditedMorph128.png,None,None,,,,,0,0,0,0,0,34,34,127,,,,,,,,,,,,,,,,,,,,,,,4,35,1,303,1.361597588,-2.09667642,128,Experiment,,,,,,,,,64,76,52,52,,,,,,,,,,,,,,,599.2011368,599.9184061,599.2011368,599.9184061,29.25170068,1583522029,1583522032,3.162708998,1583522026,1583522029,,,SA,1,21,female,undergrad,2020_Mar_06_1104,AdjustEyeTrack,3.1.5,60.01659291
40,Stimuli/Morph40.JPG,Stimuli/Morph40.png,Stimuli/BlurLevel5/BlurEditedMorph40,Stimuli/BlurLevel5/BlurEditedMorph40.png,Stimuli/BlurLevel5/NumberedMorphs/BlurEditedMorph40.png,Stimuli/BlurLevel5/OriginalBlur/BlurEditedMorph40.png,Stimuli/BlurMorphTrio/EditedMorph40.png,010110right.gif,Stimuli/normal_thumbnails/40right.gif,,,,,0,0,0,0,0,35,35,39,,,,,,,,,,,,,,,,,,,,,,,26,36,1,103,-0.562377636,2.435925162,40,Experiment,,,,,,,,,121,42,-2,-2,,,,,,,,,,,,,,,605.718803,606.4122604,605.718803,606.4122604,97.27891156,1583522035,1583522038,2.813870192,1583522032,1583522035,,,SA,1,21,female,undergrad,2020_Mar_06_1104,AdjustEyeTrack,3.1.5,60.01659291
15,Stimuli/Morph15.JPG,Stimuli/Morph15.png,Stimuli/BlurLevel5/BlurEditedMorph15,Stimuli/BlurLevel5/BlurEditedMorph15.png,Stimuli/BlurLevel5/NumberedMorphs/BlurEditedMorph15.png,Stimuli/BlurLevel5/OriginalBlur/BlurEditedMorph15.png,Stimuli/BlurMorphTrio/EditedMorph15.png,010031right.gif,Stimuli/normal_thumbnails/15right.gif,,,,,0,0,0,0,0,36,36,14,,,,,,,,,,,,,,,,,,,,,,,42,37,1,16,2.40315424,0.68909339,15,Experiment,,,,,,,,,90,8,7,7,,,,,,,,,,,,,,,612.1543875,612.8763847,612.1543875,612.8763847,90.47619048,1583522042,1583522045,3.048863173,1583522038,1583522042,,,SA,1,21,female,undergrad,2020_Mar_06_1104,AdjustEyeTrack,3.1.5,60.01659291
42,Stimuli/Morph42.JPG,Stimuli/Morph42.png,Stimuli/BlurLevel5/BlurEditedMorph42,Stimuli/BlurLevel5/BlurEditedMorph42.png,Stimuli/BlurLevel5/NumberedMorphs/BlurEditedMorph42.png,Stimuli/BlurLevel5/OriginalBlur/BlurEditedMorph42.png,Stimuli/BlurMorphTrio/EditedMorph42.png,010121right.gif,Stimuli/normal_thumbnails/42right.gif,,,,,0,0,0,0,0,37,37,41,,,,,,,,,,,,,,,,,,,,,,,58,38,1,195,-2.414814566,-0.647047613,42,Experiment,,,,,,,,,49,58,-16,-16,,,,,,,,,,,,,,,618.5667855,619.2605746,618.5667855,619.2605746,78.23129252,1583522048,1583522049,0.981768131,1583522045,1583522048,,,SA,1,21,female,undergrad,2020_Mar_06_1104,AdjustEyeTrack,3.1.5,60.01659291
124,Stimuli/Morph124.JPG,Stimuli/Morph124.png,Stimuli/BlurLevel5/BlurEditedMorph124,Stimuli/BlurLevel5/BlurEditedMorph124.png,Stimuli/BlurLevel5/NumberedMorphs/BlurEditedMorph124.png,Stimuli/BlurLevel5/OriginalBlur/BlurEditedMorph124.png,Stimuli/BlurMorphTrio/EditedMorph124.png,None,None,,,,,0,0,0,0,0,38,38,123,,,,,,,,,,,,,,,,,,,,,,,90,39,1,67,0.976827821,2.301262134,124,Experiment,,,,,,,,,83,94,30,30,,,,,,,,,,,,,,,622.7980848,623.4896459,622.7980848,623.4896459,59.18367347,1583522052,1583522054,2.296343803,1583522049,1583522052,,,SA,1,21,female,undergrad,2020_Mar_06_1104,AdjustEyeTrack,3.1.5,60.01659291
147,Stimuli/Morph147.JPG,Stimuli/Morph147.png,Stimuli/BlurLevel5/BlurEditedMorph147,Stimuli/BlurLevel5/BlurEditedMorph147.png,Stimuli/BlurLevel5/NumberedMorphs/BlurEditedMorph147.png,Stimuli/BlurLevel5/OriginalBlur/BlurEditedMorph147.png,Stimuli/BlurMorphTrio/EditedMorph147.png,None,None,,,,,0,0,0,0,0,39,39,146,,,,,,,,,,,,,,,,,,,,,,,65,40,1,156,-2.283863644,1.016841608,147,Experiment,,,,,,,,,49,134,13,13,,,,,,,,,,,,,,,628.4437917,629.1598485,628.4437917,629.1598485,82.31292517,1583522058,1583522061,3.415624142,1583522055,1583522058,,,SA,1,21,female,undergrad,2020_Mar_06_1104,AdjustEyeTrack,3.1.5,60.01659291
93,Stimuli/Morph93.JPG,Stimuli/Morph93.png,Stimuli/BlurLevel5/BlurEditedMorph93,Stimuli/BlurLevel5/BlurEditedMorph93.png,Stimuli/BlurLevel5/NumberedMorphs/BlurEditedMorph93.png,Stimuli/BlurLevel5/OriginalBlur/BlurEditedMorph93.png,Stimuli/BlurMorphTrio/EditedMorph93.png,020280right.gif,Stimuli/normal_thumbnails/93right.gif,,,,,0,0,0,0,0,40,40,92,,,,,,,,,,,,,,,,,,,,,,,2,41,1,149,-2.142918252,1.287595187,93,Experiment,,,,,,,,,78,92,1,1,,,,,,,,,,,,,,,635.1545631,635.8403613,635.1545631,635.8403613,98.63945578,1583522065,1583522066,1.382686138,1583522062,1583522065,,,SA,1,21,female,undergrad,2020_Mar_06_1104,AdjustEyeTrack,3.1.5,60.01659291
87,Stimuli/Morph87.JPG,Stimuli/Morph87.png,Stimuli/BlurLevel5/BlurEditedMorph87,Stimuli/BlurLevel5/BlurEditedMorph87.png,Stimuli/BlurLevel5/NumberedMorphs/BlurEditedMorph87.png,Stimuli/BlurLevel5/OriginalBlur/BlurEditedMorph87.png,Stimuli/BlurMorphTrio/EditedMorph87.png,020270right.gif,Stimuli/normal_thumbnails/87right.gif,,,,,0,0,0,0,0,41,41,86,,,,,,,,,,,,,,,,,,,,,,,93,42,1,285,0.647047613,-2.414814566,87,Experiment,,,,,,,,,57,93,-6,-6,,,,,,,,,,,,,,,640.4920476,641.2397288,640.4920476,641.2397288,91.83673469,1583522070,1583522071,1.549252987,1583522066,1583522070,,,SA,1,21,female,undergrad,2020_Mar_06_1104,AdjustEyeTrack,3.1.5,60.01659291
83,Stimuli/Morph83.JPG,Stimuli/Morph83.png,Stimuli/BlurLevel5/BlurEditedMorph83,Stimuli/BlurLevel5/BlurEditedMorph83.png,Stimuli/BlurLevel5/NumberedMorphs/BlurEditedMorph83.png,Stimuli/BlurLevel5/OriginalBlur/BlurEditedMorph83.png,Stimuli/BlurMorphTrio/EditedMorph83.png,020259right.gif,Stimuli/normal_thumbnails/83right.gif,,,,,0,0,0,0,0,42,42,82,,,,,,,,,,,,,,,,,,,,,,,3,43,1,265,-0.217889357,-2.490486745,83,Experiment,,,,,,,,,54,88,-5,-5,,,,,,,,,,,,,,,645.587187,646.3001561,645.587187,646.3001561,93.19727891,1583522075,1583522083,7.599936008,1583522072,1583522075,,,SA,1,21,female,undergrad,2020_Mar_06_1104,AdjustEyeTrack,3.1.5,60.01659291
108,Stimuli/Morph108.JPG,Stimuli/Morph108.png,Stimuli/BlurLevel5/BlurEditedMorph108,Stimuli/BlurLevel5/BlurEditedMorph108.png,Stimuli/BlurLevel5/NumberedMorphs/BlurEditedMorph108.png,Stimuli/BlurLevel5/OriginalBlur/BlurEditedMorph108.png,Stimuli/BlurMorphTrio/EditedMorph108.png,None,None,,,,,0,0,0,0,0,43,43,107,,,,,,,,,,,,,,,,,,,,,,,93,44,1,69,0.895919874,2.333951066,108,Experiment,,,,,,,,,138,120,-12,-12,,,,,,,,,,,,,,,657.0821026,657.8092331,657.0821026,657.8092331,83.67346939,1583522087,1583522089,2.06688118,1583522083,1583522087,,,SA,1,21,female,undergrad,2020_Mar_06_1104,AdjustEyeTrack,3.1.5,60.01659291
132,Stimuli/Morph132.JPG,Stimuli/Morph132.png,Stimuli/BlurLevel5/BlurEditedMorph132,Stimuli/BlurLevel5/BlurEditedMorph132.png,Stimuli/BlurLevel5/NumberedMorphs/BlurEditedMorph132.png,Stimuli/BlurLevel5/OriginalBlur/BlurEditedMorph132.png,Stimuli/BlurMorphTrio/EditedMorph132.png,None,None,,,,,0,0,0,0,0,44,44,131,,,,,,,,,,,,,,,,,,,,,,,77,45,1,204,-2.283863644,-1.016841608,132,Experiment,,,,,,,,,104,109,23,23,,,,,,,,,,,,,,,662.5671905,663.2563279,662.5671905,663.2563279,68.70748299,1583522092,1583522094,1.866180182,1583522089,1583522092,,,SA,1,21,female,undergrad,2020_Mar_06_1104,AdjustEyeTrack,3.1.5,60.01659291
141,Stimuli/Morph141.JPG,Stimuli/Morph141.png,Stimuli/BlurLevel5/BlurEditedMorph141,Stimuli/BlurLevel5/BlurEditedMorph141.png,Stimuli/BlurLevel5/NumberedMorphs/BlurEditedMorph141.png,Stimuli/BlurLevel5/OriginalBlur/BlurEditedMorph141.png,Stimuli/BlurMorphTrio/EditedMorph141.png,None,None,,,,,0,0,0,0,0,45,45,140,,,,,,,,,,,,,,,,,,,,,,,31,46,1,21,2.333951066,0.895919874,141,Experiment,,,,,,,,,30,2,139,-8,,,,,,,,,,,,,,,667.8527519,668.5606861,667.8527519,668.5606861,89.11564626,1583522097,1583522100,2.809368134,1583522094,1583522097,,,SA,1,21,female,undergrad,2020_Mar_06_1104,AdjustEyeTrack,3.1.5,60.01659291
13,Stimuli/Morph13.JPG,Stimuli/Morph13.png,Stimuli/BlurLevel5/BlurEditedMorph13,Stimuli/BlurLevel5/BlurEditedMorph13.png,Stimuli/BlurLevel5/NumberedMorphs/BlurEditedMorph13.png,Stimuli/BlurLevel5/OriginalBlur/BlurEditedMorph13.png,Stimuli/BlurMorphTrio/EditedMorph13.png,010027right.gif,Stimuli/normal_thumbnails/13right.gif,,,,,0,0,0,0,0,46,46,12,,,,,,,,,,,,,,,,,,,,,,,59,47,1,307,1.504537558,-1.996588775,13,Experiment,,,,,,,,,31,12,1,1,,,,,,,,,,,,,,,673.7995822,674.4816024,673.7995822,674.4816024,98.63945578,1583522103,1583522105,1.900793791,1583522101,1583522103,,,SA,1,21,female,undergrad,2020_Mar_06_1104,AdjustEyeTrack,3.1.5,60.01659291
36,Stimuli/Morph36.JPG,Stimuli/Morph36.png,Stimuli/BlurLevel5/BlurEditedMorph36,Stimuli/BlurLevel5/BlurEditedMorph36.png,Stimuli/BlurLevel5/NumberedMorphs/BlurEditedMorph36.png,Stimuli/BlurLevel5/OriginalBlur/BlurEditedMorph36.png,Stimuli/BlurMorphTrio/EditedMorph36.png,010095right.gif,Stimuli/normal_thumbnails/36right.gif,,,,,0,0,0,0,0,47,47,35,,,,,,,,,,,,,,,,,,,,,,,37,48,1,146,-2.072593931,1.397982259,36,Experiment,,,,,,,,,46,146,-110,37,,,,,,,,,,,,,,,679.0716092,679.7597037,679.0716092,679.7597037,49.65986395,1583522108,1583522110,1.580809832,1583522106,1583522108,,,SA,1,21,female,undergrad,2020_Mar_06_1104,AdjustEyeTrack,3.1.5,60.01659291
106,Stimuli/Morph106.JPG,Stimuli/Morph106.png,Stimuli/BlurLevel5/BlurEditedMorph106,Stimuli/BlurLevel5/BlurEditedMorph106.png,Stimuli/BlurLevel5/NumberedMorphs/BlurEditedMorph106.png,Stimuli/BlurLevel5/OriginalBlur/BlurEditedMorph106.png,Stimuli/BlurMorphTrio/EditedMorph106.png,None,None,,,,,0,0,0,0,0,48,48,105,,,,,,,,,,,,,,,,,,,,,,,91,49,1,149,-2.142918252,1.287595187,106,Experiment,,,,,,,,,77,95,11,11,,,,,,,,,,,,,,,684.0672035,684.7644556,684.0672035,684.7644556,85.03401361,1583522113,1583522115,1.31643796,1583522111,1583522113,,,SA,1,21,female,undergrad,2020_Mar_06_1104,AdjustEyeTrack,3.1.5,60.01659291
26,Stimuli/Morph26.JPG,Stimuli/Morph26.png,Stimuli/BlurLevel5/BlurEditedMorph26,Stimuli/BlurLevel5/BlurEditedMorph26.png,Stimuli/BlurLevel5/NumberedMorphs/BlurEditedMorph26.png,Stimuli/BlurLevel5/OriginalBlur/BlurEditedMorph26.png,Stimuli/BlurMorphTrio/EditedMorph26.png,010070right.gif,Stimuli/normal_thumbnails/26right.gif,,,,,0,0,0,0,0,49,49,25,,,,,,,,,,,,,,,,,,,,,,,25,50,1,177,-2.496573837,0.130839891,26,Experiment,,,,,,,,,143,133,-107,40,,,,,,,,,,,,,,,688.6609981,689.3552882,688.6609981,689.3552882,45.57823129,1583522118,1583522119,1.183260918,1583522115,1583522118,,,SA,1,21,female,undergrad,2020_Mar_06_1104,AdjustEyeTrack,3.1.5,60.01659291
29,Stimuli/Morph29.JPG,Stimuli/Morph29.png,Stimuli/BlurLevel5/BlurEditedMorph29,Stimuli/BlurLevel5/BlurEditedMorph29.png,Stimuli/BlurLevel5/NumberedMorphs/BlurEditedMorph29.png,Stimuli/BlurLevel5/OriginalBlur/BlurEditedMorph29.png,Stimuli/BlurMorphTrio/EditedMorph29.png,010074right.gif,Stimuli/normal_thumbnails/29right.gif,,,,,0,0,0,0,0,50,50,28,,,,,,,,,,,,,,,,,,,,,,,18,51,1,5,2.490486745,0.217889357,29,Experiment,,,,,,,,,138,140,-111,36,,,,,,,,,,,,,,,692.9294222,693.617162,692.9294222,693.617162,51.02040816,1583522122,1583522124,1.900393963,1583522120,1583522122,,,SA,1,21,female,undergrad,2020_Mar_06_1104,AdjustEyeTrack,3.1.5,60.01659291
46,Stimuli/Morph46.JPG,Stimuli/Morph46.png,Stimuli/BlurLevel5/BlurEditedMorph46,Stimuli/BlurLevel5/BlurEditedMorph46.png,Stimuli/BlurLevel5/NumberedMorphs/BlurEditedMorph46.png,Stimuli/BlurLevel5/OriginalBlur/BlurEditedMorph46.png,Stimuli/BlurMorphTrio/EditedMorph46.png,010128right.gif,Stimuli/normal_thumbnails/46right.gif,,,,,0,0,0,0,0,51,51,45,,,,,,,,,,,,,,,,,,,,,,,8,52,1,22,2.317959636,0.936516484,46,Experiment,,,,,,,,,25,140,-94,53,,,,,,,,,,,,,,,698.1934129,698.9068418,698.1934129,698.9068418,27.89115646,1583522128,1583522129,1.195956945,1583522125,1583522128,,,SA,1,21,female,undergrad,2020_Mar_06_1104,AdjustEyeTrack,3.1.5,60.01659291
62,Stimuli/Morph62.JPG,Stimuli/Morph62.png,Stimuli/BlurLevel5/BlurEditedMorph62,Stimuli/BlurLevel5/BlurEditedMorph62.png,Stimuli/BlurLevel5/NumberedMorphs/BlurEditedMorph62.png,Stimuli/BlurLevel5/OriginalBlur/BlurEditedMorph62.png,Stimuli/BlurMorphTrio/EditedMorph62.png,020205right.gif,Stimuli/normal_thumbnails/62right.gif,,,,,0,0,0,0,0,52,52,61,,,,,,,,,,,,,,,,,,,,,,,15,53,1,250,-0.855050358,-2.349231552,62,Experiment,,,,,,,,,82,101,-39,-39,,,,,,,,,,,,,,,702.7204492,703.4131615,702.7204492,703.4131615,46.93877551,1583522132,1583522135,2.549881935,1583522129,1583522132,,,SA,1,21,female,undergrad,2020_Mar_06_1104,AdjustEyeTrack,3.1.5,60.01659291
92,Stimuli/Morph92.JPG,Stimuli/Morph92.png,Stimuli/BlurLevel5/BlurEditedMorph92,Stimuli/BlurLevel5/BlurEditedMorph92.png,Stimuli/BlurLevel5/NumberedMorphs/BlurEditedMorph92.png,Stimuli/BlurLevel5/OriginalBlur/BlurEditedMorph92.png,Stimuli/BlurMorphTrio/EditedMorph92.png,020277right.gif,Stimuli/normal_thumbnails/92right.gif,,,,,0,0,0,0,0,53,53,91,,,,,,,,,,,,,,,,,,,,,,,34,54,1,64,1.095927867,2.246985116,92,Experiment,,,,,,,,,115,137,-45,-45,,,,,,,,,,,,,,,708.7921316,709.5218101,708.7921316,709.5218101,38.7755102,1583522138,1583522140,1.500290871,1583522135,1583522138,,,SA,1,21,female,undergrad,2020_Mar_06_1104,AdjustEyeTrack,3.1.5,60.01659291
67,Stimuli/Morph67.JPG,Stimuli/Morph67.png,Stimuli/BlurLevel5/BlurEditedMorph67,Stimuli/BlurLevel5/BlurEditedMorph67.png,Stimuli/BlurLevel5/NumberedMorphs/BlurEditedMorph67.png,Stimuli/BlurLevel5/OriginalBlur/BlurEditedMorph67.png,Stimuli/BlurMorphTrio/EditedMorph67.png,020217right.gif,Stimuli/normal_thumbnails/67right.gif,,,,,0,0,0,0,0,54,54,66,,,,,,,,,,,,,,,,,,,,,,,93,55,1,94,-0.174391184,2.493910126,67,Experiment,,,,,,,,,19,35,32,32,,,,,,,,,,,,,,,714.2456055,714.988783,714.2456055,714.988783,56.46258503,1583522144,1583522147,3.148049831,1583522140,1583522144,,,SA,1,21,female,undergrad,2020_Mar_06_1104,AdjustEyeTrack,3.1.5,60.01659291
23,Stimuli/Morph23.JPG,Stimuli/Morph23.png,Stimuli/BlurLevel5/BlurEditedMorph23,Stimuli/BlurLevel5/BlurEditedMorph23.png,Stimuli/BlurLevel5/NumberedMorphs/BlurEditedMorph23.png,Stimuli/BlurLevel5/OriginalBlur/BlurEditedMorph23.png,Stimuli/BlurMorphTrio/EditedMorph23.png,010063right.gif,Stimuli/normal_thumbnails/23right.gif,,,,,0,0,0,0,0,55,55,22,,,,,,,,,,,,,,,,,,,,,,,66,56,1,265,-0.217889357,-2.490486745,23,Experiment,,,,,,,,,110,6,17,17,,,,,,,,,,,,,,,720.759524,721.4437715,720.759524,721.4437715,76.8707483,1583522150,1583522152,1.615064144,1583522147,1583522150,,,SA,1,21,female,undergrad,2020_Mar_06_1104,AdjustEyeTrack,3.1.5,60.01659291
72,Stimuli/Morph72.JPG,Stimuli/Morph72.png,Stimuli/BlurLevel5/BlurEditedMorph72,Stimuli/BlurLevel5/BlurEditedMorph72.png,Stimuli/BlurLevel5/NumberedMorphs/BlurEditedMorph72.png,Stimuli/BlurLevel5/OriginalBlur/BlurEditedMorph72.png,Stimuli/BlurMorphTrio/EditedMorph72.png,020227right.gif,Stimuli/normal_thumbnails/72right.gif,,,,,0,0,0,0,0,56,56,71,,,,,,,,,,,,,,,,,,,,,,,70,57,1,329,2.142918252,-1.287595187,72,Experiment,,,,,,,,,139,65,7,7,,,,,,,,,,,,,,,725.593646,726.2881875,725.593646,726.2881875,90.47619048,1583522155,1583522157,2.133368969,1583522152,1583522155,,,SA,1,21,female,undergrad,2020_Mar_06_1104,AdjustEyeTrack,3.1.5,60.01659291
63,Stimuli/Morph63.JPG,Stimuli/Morph63.png,Stimuli/BlurLevel5/BlurEditedMorph63,Stimuli/BlurLevel5/BlurEditedMorph63.png,Stimuli/BlurLevel5/NumberedMorphs/BlurEditedMorph63.png,Stimuli/BlurLevel5/OriginalBlur/BlurEditedMorph63.png,Stimuli/BlurMorphTrio/EditedMorph63.png,020206right.gif,Stimuli/normal_thumbnails/63right.gif,,,,,0,0,0,0,0,57,57,62,,,,,,,,,,,,,,,,,,,,,,,62,58,1,14,2.425739316,0.604804739,63,Experiment,,,,,,,,,107,49,14,14,,,,,,,,,,,,,,,731.1840007,731.8844732,731.1840007,731.8844732,80.95238095,1583522161,1583522163,2.613340855,1583522158,1583522161,,,SA,1,21,female,undergrad,2020_Mar_06_1104,AdjustEyeTrack,3.1.5,60.01659291
78,Stimuli/Morph78.JPG,Stimuli/Morph78.png,Stimuli/BlurLevel5/BlurEditedMorph78,Stimuli/BlurLevel5/BlurEditedMorph78.png,Stimuli/BlurLevel5/NumberedMorphs/BlurEditedMorph78.png,Stimuli/BlurLevel5/OriginalBlur/BlurEditedMorph78.png,Stimuli/BlurMorphTrio/EditedMorph78.png,020238right.gif,Stimuli/normal_thumbnails/78right.gif,,,,,0,0,0,0,0,58,58,77,,,,,,,,,,,,,,,,,,,,,,,49,59,1,215,-2.047880111,-1.433941091,78,Experiment,,,,,,,,,96,127,-49,-49,,,,,,,,,,,,,,,737.1808183,737.8713525,737.1808183,737.8713525,33.33333333,1583522167,1583522170,3.600251913,1583522164,1583522167,,,SA,1,21,female,undergrad,2020_Mar_06_1104,AdjustEyeTrack,3.1.5,60.01659291
54,Stimuli/Morph54.JPG,Stimuli/Morph54.png,Stimuli/BlurLevel5/BlurEditedMorph54,Stimuli/BlurLevel5/BlurEditedMorph54.png,Stimuli/BlurLevel5/NumberedMorphs/BlurEditedMorph54.png,Stimuli/BlurLevel5/OriginalBlur/BlurEditedMorph54.png,Stimuli/BlurMorphTrio/EditedMorph54.png,010150right.gif,Stimuli/normal_thumbnails/54right.gif,,,,,0,0,0,0,0,59,59,53,,,,,,,,,,,,,,,,,,,,,,,1,60,1,340,2.349231552,-0.855050358,54,Experiment,,,,,,,,,26,58,-4,-4,,,,,,,,,,,,,,,743.5157699,744.1646035,743.5157699,744.1646035,94.55782313,1583522173,1583522174,1.598809719,1583522171,1583522173,,,SA,1,21,female,undergrad,2020_Mar_06_1104,AdjustEyeTrack,3.1.5,60.01659291
43,Stimuli/Morph43.JPG,Stimuli/Morph43.png,Stimuli/BlurLevel5/BlurEditedMorph43,Stimuli/BlurLevel5/BlurEditedMorph43.png,Stimuli/BlurLevel5/NumberedMorphs/BlurEditedMorph43.png,Stimuli/BlurLevel5/OriginalBlur/BlurEditedMorph43.png,Stimuli/BlurMorphTrio/EditedMorph43.png,010124right.gif,Stimuli/normal_thumbnails/43right.gif,,,,,0,0,0,0,0,60,60,42,,,,,,,,,,,,,,,,,,,,,,,13,61,1,293,0.976827821,-2.301262134,43,Experiment,,,,,,,,,72,29,14,14,,,,,,,,,,,,,,,748.5871358,749.2968922,748.5871358,749.2968922,80.95238095,1583522178,1583522181,2.630384207,1583522175,1583522178,,,SA,1,21,female,undergrad,2020_Mar_06_1104,AdjustEyeTrack,3.1.5,60.01659291
5,Stimuli/Morph5.JPG,Stimuli/Morph5.png,Stimuli/BlurLevel5/BlurEditedMorph5,Stimuli/BlurLevel5/BlurEditedMorph5.png,Stimuli/BlurLevel5/NumberedMorphs/BlurEditedMorph5.png,Stimuli/BlurLevel5/OriginalBlur/BlurEditedMorph5.png,Stimuli/BlurMorphTrio/EditedMorph5.png,010011right.gif,Stimuli/normal_thumbnails/5right.gif,,,,,0,0,0,0,0,61,61,4,,,,,,,,,,,,,,,,,,,,,,,24,62,1,48,1.672826516,1.857862064,5,Experiment,,,,,,,,,78,46,-41,-41,,,,,,,,,,,,,,,754.6069995,755.306933,754.6069995,755.306933,44.21768707,1583522184,1583522188,4.097243786,1583522181,1583522184,,,SA,1,21,female,undergrad,2020_Mar_06_1104,AdjustEyeTrack,3.1.5,60.01659291
136,Stimuli/Morph136.JPG,Stimuli/Morph136.png,Stimuli/BlurLevel5/BlurEditedMorph136,Stimuli/BlurLevel5/BlurEditedMorph136.png,Stimuli/BlurLevel5/NumberedMorphs/BlurEditedMorph136.png,Stimuli/BlurLevel5/OriginalBlur/BlurEditedMorph136.png,Stimuli/BlurMorphTrio/EditedMorph136.png,None,None,,,,,0,0,0,0,0,62,62,135,,,,,,,,,,,,,,,,,,,,,,,38,63,1,148,-2.12012024,1.324798161,136,Experiment,,,,,,,,,23,51,85,-62,,,,,,,,,,,,,,,762.0659822,762.7623584,762.0659822,762.7623584,15.6462585,1583522191,1583522195,3.366116762,1583522189,1583522191,,,SA,1,21,female,undergrad,2020_Mar_06_1104,AdjustEyeTrack,3.1.5,60.01659291
38,Stimuli/Morph38.JPG,Stimuli/Morph38.png,Stimuli/BlurLevel5/BlurEditedMorph38,Stimuli/BlurLevel5/BlurEditedMorph38.png,Stimuli/BlurLevel5/NumberedMorphs/BlurEditedMorph38.png,Stimuli/BlurLevel5/OriginalBlur/BlurEditedMorph38.png,Stimuli/BlurMorphTrio/EditedMorph38.png,010108right.gif,Stimuli/normal_thumbnails/38right.gif,,,,,0,0,0,0,0,63,63,37,,,,,,,,,,,,,,,,,,,,,,,70,64,1,132,-1.672826516,1.857862064,38,Experiment,,,,,,,,,143,61,-23,-23,,,,,,,,,,,,,,,768.6333693,769.3214185,768.6333693,769.3214185,68.70748299,1583522198,1583522202,3.732186079,1583522195,1583522198,,,SA,1,21,female,undergrad,2020_Mar_06_1104,AdjustEyeTrack,3.1.5,60.01659291
102,Stimuli/Morph102.JPG,Stimuli/Morph102.png,Stimuli/BlurLevel5/BlurEditedMorph102,Stimuli/BlurLevel5/BlurEditedMorph102.png,Stimuli/BlurLevel5/NumberedMorphs/BlurEditedMorph102.png,Stimuli/BlurLevel5/OriginalBlur/BlurEditedMorph102.png,Stimuli/BlurMorphTrio/EditedMorph102.png,None,None,,,,,0,0,0,0,0,64,64,101,,,,,,,,,,,,,,,,,,,,,,,98,65,1,288,0.772542486,-2.377641291,102,Experiment,,,,,,,,,19,99,3,3,,,,,,,,,,,,,,,775.8476789,776.5549133,775.8476789,776.5549133,95.91836735,1583522205,1583522207,1.933775902,1583522202,1583522205,,,SA,1,21,female,undergrad,2020_Mar_06_1104,AdjustEyeTrack,3.1.5,60.01659291
137,Stimuli/Morph137.JPG,Stimuli/Morph137.png,Stimuli/BlurLevel5/BlurEditedMorph137,Stimuli/BlurLevel5/BlurEditedMorph137.png,Stimuli/BlurLevel5/NumberedMorphs/BlurEditedMorph137.png,Stimuli/BlurLevel5/OriginalBlur/BlurEditedMorph137.png,Stimuli/BlurMorphTrio/EditedMorph137.png,None,None,,,,,0,0,0,0,0,65,65,136,,,,,,,,,,,,,,,,,,,,,,,89,66,1,193,-2.435925162,-0.562377636,137,Experiment,,,,,,,,,73,41,96,-51,,,,,,,,,,,,,,,781.2127152,781.9209962,781.2127152,781.9209962,30.6122449,1583522211,1583522216,5.583868027,1583522208,1583522211,,,SA,1,21,female,undergrad,2020_Mar_06_1104,AdjustEyeTrack,3.1.5,60.01659291
135,Stimuli/Morph135.JPG,Stimuli/Morph135.png,Stimuli/BlurLevel5/BlurEditedMorph135,Stimuli/BlurLevel5/BlurEditedMorph135.png,Stimuli/BlurLevel5/NumberedMorphs/BlurEditedMorph135.png,Stimuli/BlurLevel5/OriginalBlur/BlurEditedMorph135.png,Stimuli/BlurMorphTrio/EditedMorph135.png,None,None,,,,,0,0,0,0,0,66,66,134,,,,,,,,,,,,,,,,,,,,,,,20,67,1,227,-1.7049959,-1.828384254,135,Experiment,,,,,,,,,81,111,24,24,,,,,,,,,,,,,,,790.1610663,790.8542606,790.1610663,790.8542606,67.34693878,1583522220,1583522224,4.5995121,1583522217,1583522220,,,SA,1,21,female,undergrad,2020_Mar_06_1104,AdjustEyeTrack,3.1.5,60.01659291
44,Stimuli/Morph44.JPG,Stimuli/Morph44.png,Stimuli/BlurLevel5/BlurEditedMorph44,Stimuli/BlurLevel5/BlurEditedMorph44.png,Stimuli/BlurLevel5/NumberedMorphs/BlurEditedMorph44.png,Stimuli/BlurLevel5/OriginalBlur/BlurEditedMorph44.png,Stimuli/BlurMorphTrio/EditedMorph44.png,010126right.gif,Stimuli/normal_thumbnails/44right.gif,,,,,0,0,0,0,0,67,67,43,,,,,,,,,,,,,,,,,,,,,,,27,68,1,325,2.047880111,-1.433941091,44,Experiment,,,,,,,,,68,56,-12,-12,,,,,,,,,,,,,,,798.2193313,798.9227736,798.2193313,798.9227736,83.67346939,1583522228,1583522229,1.801028013,1583522225,1583522228,,,SA,1,21,female,undergrad,2020_Mar_06_1104,AdjustEyeTrack,3.1.5,60.01659291
66,Stimuli/Morph66.JPG,Stimuli/Morph66.png,Stimuli/BlurLevel5/BlurEditedMorph66,Stimuli/BlurLevel5/BlurEditedMorph66.png,Stimuli/BlurLevel5/NumberedMorphs/BlurEditedMorph66.png,Stimuli/BlurLevel5/OriginalBlur/BlurEditedMorph66.png,Stimuli/BlurMorphTrio/EditedMorph66.png,020212right.gif,Stimuli/normal_thumbnails/66right.gif,,,,,0,0,0,0,0,68,68,65,,,,,,,,,,,,,,,,,,,,,,,10,69,1,234,-1.469463131,-2.022542486,66,Experiment,,,,,,,,,65,40,26,26,,,,,,,,,,,,,,,803.3466288,804.0375848,803.3466288,804.0375848,64.62585034,1583522233,1583522235,2.265368938,1583522230,1583522233,,,SA,1,21,female,undergrad,2020_Mar_06_1104,AdjustEyeTrack,3.1.5,60.01659291
77,Stimuli/Morph77.JPG,Stimuli/Morph77.png,Stimuli/BlurLevel5/BlurEditedMorph77,Stimuli/BlurLevel5/BlurEditedMorph77.png,Stimuli/BlurLevel5/NumberedMorphs/BlurEditedMorph77.png,Stimuli/BlurLevel5/OriginalBlur/BlurEditedMorph77.png,Stimuli/BlurMorphTrio/EditedMorph77.png,020235right.gif,Stimuli/normal_thumbnails/77right.gif,,,,,0,0,0,0,0,69,69,76,,,,,,,,,,,,,,,,,,,,,,,21,70,1,254,-0.68909339,-2.40315424,77,Experiment,,,,,,,,,140,146,-69,-69,,,,,,,,,,,,,,,808.9365092,809.6376775,808.9365092,809.6376775,6.12244898,1583522238,1583522241,2.132678986,1583522236,1583522238,,,SA,1,21,female,undergrad,2020_Mar_06_1104,AdjustEyeTrack,3.1.5,60.01659291
95,Stimuli/Morph95.JPG,Stimuli/Morph95.png,Stimuli/BlurLevel5/BlurEditedMorph95,Stimuli/BlurLevel5/BlurEditedMorph95.png,Stimuli/BlurLevel5/NumberedMorphs/BlurEditedMorph95.png,Stimuli/BlurLevel5/OriginalBlur/BlurEditedMorph95.png,Stimuli/BlurMorphTrio/EditedMorph95.png,020287right.gif,Stimuli/normal_thumbnails/95right.gif,,,,,0,0,0,0,0,70,70,94,,,,,,,,,,,,,,,,,,,,,,,7,71,1,238,-1.324798161,-2.12012024,95,Experiment,,,,,,,,,137,102,-7,-7,,,,,,,,,,,,,,,814.4431747,815.1370375,814.4431747,815.1370375,90.47619048,1583522244,1583522247,2.648565054,1583522241,1583522244,,,SA,1,21,female,undergrad,2020_Mar_06_1104,AdjustEyeTrack,3.1.5,60.01659291
2,Stimuli/Morph2.JPG,Stimuli/Morph2.png,Stimuli/BlurLevel5/BlurEditedMorph2,Stimuli/BlurLevel5/BlurEditedMorph2.png,Stimuli/BlurLevel5/NumberedMorphs/BlurEditedMorph2.png,Stimuli/BlurLevel5/OriginalBlur/BlurEditedMorph2.png,Stimuli/BlurMorphTrio/EditedMorph2.png,010006right.gif,Stimuli/normal_thumbnails/2right.gif,,,,,0,0,0,0,0,71,71,1,,,,,,,,,,,,,,,,,,,,,,,54,72,1,123,-1.361597588,2.09667642,2,Experiment,,,,,,,,,25,128,-126,21,,,,,,,,,,,,,,,820.4081496,821.0986246,820.4081496,821.0986246,71.42857143,1583522250,1583522251,1.433557034,1583522247,1583522250,,,SA,1,21,female,undergrad,2020_Mar_06_1104,AdjustEyeTrack,3.1.5,60.01659291
123,Stimuli/Morph123.JPG,Stimuli/Morph123.png,Stimuli/BlurLevel5/BlurEditedMorph123,Stimuli/BlurLevel5/BlurEditedMorph123.png,Stimuli/BlurLevel5/NumberedMorphs/BlurEditedMorph123.png,Stimuli/BlurLevel5/OriginalBlur/BlurEditedMorph123.png,Stimuli/BlurMorphTrio/EditedMorph123.png,None,None,,,,,0,0,0,0,0,72,72,122,,,,,,,,,,,,,,,,,,,,,,,19,73,1,224,-1.798349501,-1.736645926,123,Experiment,,,,,,,,,96,100,23,23,,,,,,,,,,,,,,,825.4102269,826.1220455,825.4102269,826.1220455,68.70748299,1583522255,1583522258,3.483293056,1583522252,1583522255,,,SA,1,21,female,undergrad,2020_Mar_06_1104,AdjustEyeTrack,3.1.5,60.01659291
35,Stimuli/Morph35.JPG,Stimuli/Morph35.png,Stimuli/BlurLevel5/BlurEditedMorph35,Stimuli/BlurLevel5/BlurEditedMorph35.png,Stimuli/BlurLevel5/NumberedMorphs/BlurEditedMorph35.png,Stimuli/BlurLevel5/OriginalBlur/BlurEditedMorph35.png,Stimuli/BlurMorphTrio/EditedMorph35.png,010094right.gif,Stimuli/normal_thumbnails/35right.gif,,,,,0,0,0,0,0,73,73,34,,,,,,,,,,,,,,,,,,,,,,,39,74,1,317,1.828384254,-1.7049959,35,Experiment,,,,,,,,,147,59,-24,-24,,,,,,,,,,,,,,,832.3605458,833.060339,832.3605458,833.060339,67.34693878,1583522262,1583522266,4.349895,1583522259,1583522262,,,SA,1,21,female,undergrad,2020_Mar_06_1104,AdjustEyeTrack,3.1.5,60.01659291
100,Stimuli/Morph100.JPG,Stimuli/Morph100.png,Stimuli/BlurLevel5/BlurEditedMorph100,Stimuli/BlurLevel5/BlurEditedMorph100.png,Stimuli/BlurLevel5/NumberedMorphs/BlurEditedMorph100.png,Stimuli/BlurLevel5/OriginalBlur/BlurEditedMorph100.png,Stimuli/BlurMorphTrio/EditedMorph100.png,020297right.gif,Stimuli/normal_thumbnails/100right.gif,,,,,0,0,0,0,0,74,74,99,,,,,,,,,,,,,,,,,,,,,,,25,75,1,191,-2.454067959,-0.477022488,100,Experiment,,,,,,,,,82,96,4,4,,,,,,,,,,,,,,,839.9667048,840.6493727,839.9667048,840.6493727,94.55782313,1583522269,1583522270,0.999933958,1583522267,1583522269,,,SA,1,21,female,undergrad,2020_Mar_06_1104,AdjustEyeTrack,3.1.5,60.01659291
96,Stimuli/Morph96.JPG,Stimuli/Morph96.png,Stimuli/BlurLevel5/BlurEditedMorph96,Stimuli/BlurLevel5/BlurEditedMorph96.png,Stimuli/BlurLevel5/NumberedMorphs/BlurEditedMorph96.png,Stimuli/BlurLevel5/OriginalBlur/BlurEditedMorph96.png,Stimuli/BlurMorphTrio/EditedMorph96.png,020292right.gif,Stimuli/normal_thumbnails/96right.gif,,,,,0,0,0,0,0,75,75,95,,,,,,,,,,,,,,,,,,,,,,,45,76,1,195,-2.414814566,-0.647047613,96,Experiment,,,,,,,,,46,99,-3,-3,,,,,,,,,,,,,,,844.1233274,844.8032543,844.1233274,844.8032543,95.91836735,1583522274,1583522276,2.650537968,1583522271,1583522273,,,SA,1,21,female,undergrad,2020_Mar_06_1104,AdjustEyeTrack,3.1.5,60.01659291
115,Stimuli/Morph115.JPG,Stimuli/Morph115.png,Stimuli/BlurLevel5/BlurEditedMorph115,Stimuli/BlurLevel5/BlurEditedMorph115.png,Stimuli/BlurLevel5/NumberedMorphs/BlurEditedMorph115.png,Stimuli/BlurLevel5/OriginalBlur/BlurEditedMorph115.png,Stimuli/BlurMorphTrio/EditedMorph115.png,None,None,,,,,0,0,0,0,0,76,76,114,,,,,,,,,,,,,,,,,,,,,,,64,77,1,204,-2.283863644,-1.016841608,115,Experiment,,,,,,,,,84,96,19,19,,,,,,,,,,,,,,,850.0107009,850.7034357,850.0107009,850.7034357,74.14965986,1583522279,1583522281,1.938784599,1583522277,1583522279,,,SA,1,21,female,undergrad,2020_Mar_06_1104,AdjustEyeTrack,3.1.5,60.01659291
116,Stimuli/Morph116.JPG,Stimuli/Morph116.png,Stimuli/BlurLevel5/BlurEditedMorph116,Stimuli/BlurLevel5/BlurEditedMorph116.png,Stimuli/BlurLevel5/NumberedMorphs/BlurEditedMorph116.png,Stimuli/BlurLevel5/OriginalBlur/BlurEditedMorph116.png,Stimuli/BlurMorphTrio/EditedMorph116.png,None,None,,,,,0,0,0,0,0,77,77,115,,,,,,,,,,,,,,,,,,,,,,,19,78,1,14,2.425739316,0.604804739,116,Experiment,,,,,,,,,136,109,7,7,,,,,,,,,,,,,,,855.5197576,856.229017,855.5197576,856.229017,90.47619048,1583522285,1583522287,2.18439889,1583522282,1583522285,,,SA,1,21,female,undergrad,2020_Mar_06_1104,AdjustEyeTrack,3.1.5,60.01659291
14,Stimuli/Morph14.JPG,Stimuli/Morph14.png,Stimuli/BlurLevel5/BlurEditedMorph14,Stimuli/BlurLevel5/BlurEditedMorph14.png,Stimuli/BlurLevel5/NumberedMorphs/BlurEditedMorph14.png,Stimuli/BlurLevel5/OriginalBlur/BlurEditedMorph14.png,Stimuli/BlurMorphTrio/EditedMorph14.png,010030right.gif,Stimuli/normal_thumbnails/14right.gif,,,,,0,0,0,0,0,78,78,13,,,,,,,,,,,,,,,,,,,,,,,30,79,1,328,2.12012024,-1.324798161,14,Experiment,,,,,,,,,41,6,8,8,,,,,,,,,,,,,,,861.1775367,861.9045786,861.1775367,861.9045786,89.11564626,1583522291,1583522293,2.01410985,1583522288,1583522291,,,SA,1,21,female,undergrad,2020_Mar_06_1104,AdjustEyeTrack,3.1.5,60.01659291
118,Stimuli/Morph118.JPG,Stimuli/Morph118.png,Stimuli/BlurLevel5/BlurEditedMorph118,Stimuli/BlurLevel5/BlurEditedMorph118.png,Stimuli/BlurLevel5/NumberedMorphs/BlurEditedMorph118.png,Stimuli/BlurLevel5/OriginalBlur/BlurEditedMorph118.png,Stimuli/BlurMorphTrio/EditedMorph118.png,None,None,,,,,0,0,0,0,0,79,79,117,,,,,,,,,,,,,,,,,,,,,,,10,80,1,337,2.301262134,-0.976827821,118,Experiment,,,,,,,,,48,107,11,11,,,,,,,,,,,,,,,866.5777404,867.286104,866.5777404,867.286104,85.03401361,1583522296,1583522298,1.532852173,1583522293,1583522296,,,SA,1,21,female,undergrad,2020_Mar_06_1104,AdjustEyeTrack,3.1.5,60.01659291
49,Stimuli/Morph49.JPG,Stimuli/Morph49.png,Stimuli/BlurLevel5/BlurEditedMorph49,Stimuli/BlurLevel5/BlurEditedMorph49.png,Stimuli/BlurLevel5/NumberedMorphs/BlurEditedMorph49.png,Stimuli/BlurLevel5/OriginalBlur/BlurEditedMorph49.png,Stimuli/BlurMorphTrio/EditedMorph49.png,010135right.gif,Stimuli/normal_thumbnails/49right.gif,,,,,0,0,0,0,0,80,80,48,,,,,,,,,,,,,,,,,,,,,,,36,81,1,355,2.490486745,-0.217889357,49,Experiment,,,,,,,,,143,48,1,1,,,,,,,,,,,,,,,871.5857945,872.3211233,871.5857945,872.3211233,98.63945578,1583522301,1583522304,2.668838978,1583522298,1583522301,,,SA,1,21,female,undergrad,2020_Mar_06_1104,AdjustEyeTrack,3.1.5,60.01659291
73,Stimuli/Morph73.JPG,Stimuli/Morph73.png,Stimuli/BlurLevel5/BlurEditedMorph73,Stimuli/BlurLevel5/BlurEditedMorph73.png,Stimuli/BlurLevel5/NumberedMorphs/BlurEditedMorph73.png,Stimuli/BlurLevel5/OriginalBlur/BlurEditedMorph73.png,Stimuli/BlurMorphTrio/EditedMorph73.png,020230right.gif,Stimuli/normal_thumbnails/73right.gif,,,,,0,0,0,0,0,81,81,72,,,,,,,,,,,,,,,,,,,,,,,6,82,1,209,-2.186549268,-1.212024051,73,Experiment,,,,,,,,,16,112,-39,-39,,,,,,,,,,,,,,,877.8485353,878.5669132,877.8485353,878.5669132,46.93877551,1583522307,1583522313,6.017198086,1583522304,1583522307,,,SA,1,21,female,undergrad,2020_Mar_06_1104,AdjustEyeTrack,3.1.5,60.01659291
91,Stimuli/Morph91.JPG,Stimuli/Morph91.png,Stimuli/BlurLevel5/BlurEditedMorph91,Stimuli/BlurLevel5/BlurEditedMorph91.png,Stimuli/BlurLevel5/NumberedMorphs/BlurEditedMorph91.png,Stimuli/BlurLevel5/OriginalBlur/BlurEditedMorph91.png,Stimuli/BlurMorphTrio/EditedMorph91.png,020276right.gif,Stimuli/normal_thumbnails/91right.gif,,,,,0,0,0,0,0,82,82,90,,,,,,,,,,,,,,,,,,,,,,,41,83,1,8,2.475670172,0.347932752,91,Experiment,,,,,,,,,19,99,-8,-8,,,,,,,,,,,,,,,887.2928348,888.0064197,887.2928348,888.0064197,89.11564626,1583522317,1583522322,4.816577673,1583522314,1583522317,,,SA,1,21,female,undergrad,2020_Mar_06_1104,AdjustEyeTrack,3.1.5,60.01659291
130,Stimuli/Morph130.JPG,Stimuli/Morph130.png,Stimuli/BlurLevel5/BlurEditedMorph130,Stimuli/BlurLevel5/BlurEditedMorph130.png,Stimuli/BlurLevel5/NumberedMorphs/BlurEditedMorph130.png,Stimuli/BlurLevel5/OriginalBlur/BlurEditedMorph130.png,Stimuli/BlurMorphTrio/EditedMorph130.png,None,None,,,,,0,0,0,0,0,83,83,129,,,,,,,,,,,,,,,,,,,,,,,33,84,1,271,0.043631016,-2.499619238,130,Experiment,,,,,,,,,9,118,12,12,,,,,,,,,,,,,,,895.4655502,896.1600438,895.4655502,896.1600438,83.67346939,1583522325,1583522329,4.550709009,1583522322,1583522325,,,SA,1,21,female,undergrad,2020_Mar_06_1104,AdjustEyeTrack,3.1.5,60.01659291
76,Stimuli/Morph76.JPG,Stimuli/Morph76.png,Stimuli/BlurLevel5/BlurEditedMorph76,Stimuli/BlurLevel5/BlurEditedMorph76.png,Stimuli/BlurLevel5/NumberedMorphs/BlurEditedMorph76.png,Stimuli/BlurLevel5/OriginalBlur/BlurEditedMorph76.png,Stimuli/BlurMorphTrio/EditedMorph76.png,020234right.gif,Stimuli/normal_thumbnails/76right.gif,,,,,0,0,0,0,0,84,84,75,,,,,,,,,,,,,,,,,,,,,,,62,85,1,218,-1.970026884,-1.539153688,76,Experiment,,,,,,,,,142,99,-23,-23,,,,,,,,,,,,,,,903.4832978,904.1905851,903.4832978,904.1905851,68.70748299,1583522333,1583522338,5.502745152,1583522330,1583522333,,,SA,1,21,female,undergrad,2020_Mar_06_1104,AdjustEyeTrack,3.1.5,60.01659291
93,Stimuli/Morph93.JPG,Stimuli/Morph93.png,Stimuli/BlurLevel5/BlurEditedMorph93,Stimuli/BlurLevel5/BlurEditedMorph93.png,Stimuli/BlurLevel5/NumberedMorphs/BlurEditedMorph93.png,Stimuli/BlurLevel5/OriginalBlur/BlurEditedMorph93.png,Stimuli/BlurMorphTrio/EditedMorph93.png,020280right.gif,Stimuli/normal_thumbnails/93right.gif,,,,,1,0,1,0,0,0,0,92,,,,,,,,,,,,,,,,,,,,,,,92,1,2,50,1.606969024,1.915111108,93,Experiment,,,,,,,,,6,95,-2,-2,,,,,,,,,,,,,,,979.4456947,980.1886779,979.4456947,980.1886779,97.27891156,1583522409,1583522412,3.066938162,1583522406,1583522409,space,66.05063779,SA,1,21,female,undergrad,2020_Mar_06_1104,AdjustEyeTrack,3.1.5,60.01659291
124,Stimuli/Morph124.JPG,Stimuli/Morph124.png,Stimuli/BlurLevel5/BlurEditedMorph124,Stimuli/BlurLevel5/BlurEditedMorph124.png,Stimuli/BlurLevel5/NumberedMorphs/BlurEditedMorph124.png,Stimuli/BlurLevel5/OriginalBlur/BlurEditedMorph124.png,Stimuli/BlurMorphTrio/EditedMorph124.png,None,None,,,,,1,0,1,0,0,1,1,123,,,,,,,,,,,,,,,,,,,,,,,60,2,2,248,-0.936516484,-2.317959636,124,Experiment,,,,,,,,,15,108,16,16,,,,,,,,,,,,,,,986.0960694,986.8095836,986.0960694,986.8095836,78.23129252,1583522416,1583522418,2.448899031,1583522412,1583522415,,,SA,1,21,female,undergrad,2020_Mar_06_1104,AdjustEyeTrack,3.1.5,60.01659291
65,Stimuli/Morph65.JPG,Stimuli/Morph65.png,Stimuli/BlurLevel5/BlurEditedMorph65,Stimuli/BlurLevel5/BlurEditedMorph65.png,Stimuli/BlurLevel5/NumberedMorphs/BlurEditedMorph65.png,Stimuli/BlurLevel5/OriginalBlur/BlurEditedMorph65.png,Stimuli/BlurMorphTrio/EditedMorph65.png,020209right.gif,Stimuli/normal_thumbnails/65right.gif,,,,,1,0,1,0,0,2,2,64,,,,,,,,,,,,,,,,,,,,,,,40,3,2,77,0.562377636,2.435925162,65,Experiment,,,,,,,,,55,113,-48,-48,,,,,,,,,,,,,,,991.9746291,992.6686955,991.9746291,992.6686955,34.69387755,1583522421,1583522424,2.698895216,1583522418,1583522421,,,SA,1,21,female,undergrad,2020_Mar_06_1104,AdjustEyeTrack,3.1.5,60.01659291
102,Stimuli/Morph102.JPG,Stimuli/Morph102.png,Stimuli/BlurLevel5/BlurEditedMorph102,Stimuli/BlurLevel5/BlurEditedMorph102.png,Stimuli/BlurLevel5/NumberedMorphs/BlurEditedMorph102.png,Stimuli/BlurLevel5/OriginalBlur/BlurEditedMorph102.png,Stimuli/BlurMorphTrio/EditedMorph102.png,None,None,,,,,1,0,1,0,0,3,3,101,,,,,,,,,,,,,,,,,,,,,,,38,4,2,117,-1.134976249,2.22751631,102,Experiment,,,,,,,,,83,104,-2,-2,,,,,,,,,,,,,,,998.0570493,998.7395888,998.0570493,998.7395888,97.27891156,1583522427,1583522430,2.085796118,1583522425,1583522427,,,SA,1,21,female,undergrad,2020_Mar_06_1104,AdjustEyeTrack,3.1.5,60.01659291
57,Stimuli/Morph57.JPG,Stimuli/Morph57.png,Stimuli/BlurLevel5/BlurEditedMorph57,Stimuli/BlurLevel5/BlurEditedMorph57.png,Stimuli/BlurLevel5/NumberedMorphs/BlurEditedMorph57.png,Stimuli/BlurLevel5/OriginalBlur/BlurEditedMorph57.png,Stimuli/BlurMorphTrio/EditedMorph57.png,010158right.gif,Stimuli/normal_thumbnails/57right.gif,,,,,1,0,1,0,0,4,4,56,,,,,,,,,,,,,,,,,,,,,,,26,5,2,86,0.174391184,2.493910126,57,Experiment,,,,,,,,,65,59,-2,-2,,,,,,,,,,,,,,,1003.39471,1004.074876,1003.39471,1004.074876,97.27891156,1583522433,1583522434,1.086553812,1583522430,1583522433,,,SA,1,21,female,undergrad,2020_Mar_06_1104,AdjustEyeTrack,3.1.5,60.01659291
99,Stimuli/Morph99.JPG,Stimuli/Morph99.png,Stimuli/BlurLevel5/BlurEditedMorph99,Stimuli/BlurLevel5/BlurEditedMorph99.png,Stimuli/BlurLevel5/NumberedMorphs/BlurEditedMorph99.png,Stimuli/BlurLevel5/OriginalBlur/BlurEditedMorph99.png,Stimuli/BlurMorphTrio/EditedMorph99.png,020299right.gif,Stimuli/normal_thumbnails/99right.gif,,,,,1,0,1,0,0,5,5,98,,,,,,,,,,,,,,,,,,,,,,,63,6,2,346,2.425739316,-0.604804739,99,Experiment,,,,,,,,,105,124,-25,-25,,,,,,,,,,,,,,,1007.822915,1008.509705,1007.822915,1008.509705,65.98639456,1583522437,1583522438,1.220690966,1583522434,1583522437,,,SA,1,21,female,undergrad,2020_Mar_06_1104,AdjustEyeTrack,3.1.5,60.01659291
66,Stimuli/Morph66.JPG,Stimuli/Morph66.png,Stimuli/BlurLevel5/BlurEditedMorph66,Stimuli/BlurLevel5/BlurEditedMorph66.png,Stimuli/BlurLevel5/NumberedMorphs/BlurEditedMorph66.png,Stimuli/BlurLevel5/OriginalBlur/BlurEditedMorph66.png,Stimuli/BlurMorphTrio/EditedMorph66.png,020212right.gif,Stimuli/normal_thumbnails/66right.gif,,,,,1,0,1,0,0,6,6,65,,,,,,,,,,,,,,,,,,,,,,,65,7,2,285,0.647047613,-2.414814566,66,Experiment,,,,,,,,,11,80,-14,-14,,,,,,,,,,,,,,,1012.378908,1013.070319,1012.378908,1013.070319,80.95238095,1583522442,1583522444,2.154538155,1583522439,1583522442,,,SA,1,21,female,undergrad,2020_Mar_06_1104,AdjustEyeTrack,3.1.5,60.01659291
16,Stimuli/Morph16.JPG,Stimuli/Morph16.png,Stimuli/BlurLevel5/BlurEditedMorph16,Stimuli/BlurLevel5/BlurEditedMorph16.png,Stimuli/BlurLevel5/NumberedMorphs/BlurEditedMorph16.png,Stimuli/BlurLevel5/OriginalBlur/BlurEditedMorph16.png,Stimuli/BlurMorphTrio/EditedMorph16.png,010034right.gif,Stimuli/normal_thumbnails/16right.gif,,,,,1,0,1,0,0,7,7,15,,,,,,,,,,,,,,,,,,,,,,,11,8,2,52,1.539153688,1.970026884,16,Experiment,,,,,,,,,125,18,-2,-2,,,,,,,,,,,,,,,1018.22334,1018.951208,1018.22334,1018.951208,97.27891156,1583522448,1583522450,2.099867344,1583522444,1583522448,,,SA,1,21,female,undergrad,2020_Mar_06_1104,AdjustEyeTrack,3.1.5,60.01659291
77,Stimuli/Morph77.JPG,Stimuli/Morph77.png,Stimuli/BlurLevel5/BlurEditedMorph77,Stimuli/BlurLevel5/BlurEditedMorph77.png,Stimuli/BlurLevel5/NumberedMorphs/BlurEditedMorph77.png,Stimuli/BlurLevel5/OriginalBlur/BlurEditedMorph77.png,Stimuli/BlurMorphTrio/EditedMorph77.png,020235right.gif,Stimuli/normal_thumbnails/77right.gif,,,,,1,0,1,0,0,8,8,76,,,,,,,,,,,,,,,,,,,,,,,66,9,2,180,-2.5,3.06E-16,77,Experiment,,,,,,,,,51,14,63,63,,,,,,,,,,,,,,,1023.706888,1024.391265,1023.706888,1024.391265,14.28571429,1583522453,1583522457,3.671506166,1583522450,1583522453,,,SA,1,21,female,undergrad,2020_Mar_06_1104,AdjustEyeTrack,3.1.5,60.01659291
81,Stimuli/Morph81.JPG,Stimuli/Morph81.png,Stimuli/BlurLevel5/BlurEditedMorph81,Stimuli/BlurLevel5/BlurEditedMorph81.png,Stimuli/BlurLevel5/NumberedMorphs/BlurEditedMorph81.png,Stimuli/BlurLevel5/OriginalBlur/BlurEditedMorph81.png,Stimuli/BlurMorphTrio/EditedMorph81.png,020245right.gif,Stimuli/normal_thumbnails/81right.gif,,,,,1,0,1,0,0,9,9,80,,,,,,,,,,,,,,,,,,,,,,,33,10,2,250,-0.855050358,-2.349231552,81,Experiment,,,,,,,,,125,80,1,1,,,,,,,,,,,,,,,1030.715252,1031.407876,1030.715252,1031.407876,98.63945578,1583522460,1583522463,2.554686308,1583522457,1583522460,,,SA,1,21,female,undergrad,2020_Mar_06_1104,AdjustEyeTrack,3.1.5,60.01659291
38,Stimuli/Morph38.JPG,Stimuli/Morph38.png,Stimuli/BlurLevel5/BlurEditedMorph38,Stimuli/BlurLevel5/BlurEditedMorph38.png,Stimuli/BlurLevel5/NumberedMorphs/BlurEditedMorph38.png,Stimuli/BlurLevel5/OriginalBlur/BlurEditedMorph38.png,Stimuli/BlurMorphTrio/EditedMorph38.png,010108right.gif,Stimuli/normal_thumbnails/38right.gif,,,,,1,0,1,0,0,10,10,37,,,,,,,,,,,,,,,,,,,,,,,87,11,2,336,2.283863644,-1.016841608,38,Experiment,,,,,,,,,134,22,16,16,,,,,,,,,,,,,,,1036.64183,1037.33729,1036.64183,1037.33729,78.23129252,1583522466,1583522469,3.149061918,1583522463,1583522466,,,SA,1,21,female,undergrad,2020_Mar_06_1104,AdjustEyeTrack,3.1.5,60.01659291
96,Stimuli/Morph96.JPG,Stimuli/Morph96.png,Stimuli/BlurLevel5/BlurEditedMorph96,Stimuli/BlurLevel5/BlurEditedMorph96.png,Stimuli/BlurLevel5/NumberedMorphs/BlurEditedMorph96.png,Stimuli/BlurLevel5/OriginalBlur/BlurEditedMorph96.png,Stimuli/BlurMorphTrio/EditedMorph96.png,020292right.gif,Stimuli/normal_thumbnails/96right.gif,,,,,1,0,1,0,0,11,11,95,,,,,,,,,,,,,,,,,,,,,,,37,12,2,83,0.304673359,2.481365379,96,Experiment,,,,,,,,,63,104,-8,-8,,,,,,,,,,,,,,,1043.173913,1043.884028,1043.173913,1043.884028,89.11564626,1583522473,1583522477,3.972066879,1583522470,1583522473,,,SA,1,21,female,undergrad,2020_Mar_06_1104,AdjustEyeTrack,3.1.5,60.01659291
108,Stimuli/Morph108.JPG,Stimuli/Morph108.png,Stimuli/BlurLevel5/BlurEditedMorph108,Stimuli/BlurLevel5/BlurEditedMorph108.png,Stimuli/BlurLevel5/NumberedMorphs/BlurEditedMorph108.png,Stimuli/BlurLevel5/OriginalBlur/BlurEditedMorph108.png,Stimuli/BlurMorphTrio/EditedMorph108.png,None,None,,,,,1,0,1,0,0,12,12,107,,,,,,,,,,,,,,,,,,,,,,,67,13,2,13,2.435925162,0.562377636,108,Experiment,,,,,,,,,21,97,11,11,,,,,,,,,,,,,,,1050.587357,1051.302958,1050.587357,1051.302958,85.03401361,1583522480,1583522482,2.137341261,1583522477,1583522480,,,SA,1,21,female,undergrad,2020_Mar_06_1104,AdjustEyeTrack,3.1.5,60.01659291
10,Stimuli/Morph10.JPG,Stimuli/Morph10.png,Stimuli/BlurLevel5/BlurEditedMorph10,Stimuli/BlurLevel5/BlurEditedMorph10.png,Stimuli/BlurLevel5/NumberedMorphs/BlurEditedMorph10.png,Stimuli/BlurLevel5/OriginalBlur/BlurEditedMorph10.png,Stimuli/BlurMorphTrio/EditedMorph10.png,010016right.gif,Stimuli/normal_thumbnails/10right.gif,,,,,1,0,1,0,0,13,13,9,,,,,,,,,,,,,,,,,,,,,,,91,14,2,217,-1.996588775,-1.504537558,10,Experiment,,,,,,,,,69,24,-14,-14,,,,,,,,,,,,,,,1056.219862,1056.927914,1056.219862,1056.927914,80.95238095,1583522486,1583522488,2.73715806,1583522483,1583522486,,,SA,1,21,female,undergrad,2020_Mar_06_1104,AdjustEyeTrack,3.1.5,60.01659291
33,Stimuli/Morph33.JPG,Stimuli/Morph33.png,Stimuli/BlurLevel5/BlurEditedMorph33,Stimuli/BlurLevel5/BlurEditedMorph33.png,Stimuli/BlurLevel5/NumberedMorphs/BlurEditedMorph33.png,Stimuli/BlurLevel5/OriginalBlur/BlurEditedMorph33.png,Stimuli/BlurMorphTrio/EditedMorph33.png,010089right.gif,Stimuli/normal_thumbnails/33right.gif,,,,,1,0,1,0,0,14,14,32,,,,,,,,,,,,,,,,,,,,,,,33,15,2,334,2.246985116,-1.095927867,33,Experiment,,,,,,,,,46,33,0,0,,,,,,,,,,,,,,,1062.304054,1063.000614,1062.304054,1063.000614,100,1583522492,1583522493,1.038301945,1583522489,1583522492,,,SA,1,21,female,undergrad,2020_Mar_06_1104,AdjustEyeTrack,3.1.5,60.01659291
132,Stimuli/Morph132.JPG,Stimuli/Morph132.png,Stimuli/BlurLevel5/BlurEditedMorph132,Stimuli/BlurLevel5/BlurEditedMorph132.png,Stimuli/BlurLevel5/NumberedMorphs/BlurEditedMorph132.png,Stimuli/BlurLevel5/OriginalBlur/BlurEditedMorph132.png,Stimuli/BlurMorphTrio/EditedMorph132.png,None,None,,,,,1,0,1,0,0,15,15,131,,,,,,,,,,,,,,,,,,,,,,,57,16,2,117,-1.134976249,2.22751631,132,Experiment,,,,,,,,,59,145,-13,-13,,,,,,,,,,,,,,,1066.802769,1067.500219,1066.802769,1067.500219,82.31292517,1583522496,1583522498,2.003857851,1583522493,1583522496,,,SA,1,21,female,undergrad,2020_Mar_06_1104,AdjustEyeTrack,3.1.5,60.01659291
87,Stimuli/Morph87.JPG,Stimuli/Morph87.png,Stimuli/BlurLevel5/BlurEditedMorph87,Stimuli/BlurLevel5/BlurEditedMorph87.png,Stimuli/BlurLevel5/NumberedMorphs/BlurEditedMorph87.png,Stimuli/BlurLevel5/OriginalBlur/BlurEditedMorph87.png,Stimuli/BlurMorphTrio/EditedMorph87.png,020270right.gif,Stimuli/normal_thumbnails/87right.gif,,,,,1,0,1,0,0,16,16,86,,,,,,,,,,,,,,,,,,,,,,,95,17,2,247,-0.976827821,-2.301262134,87,Experiment,,,,,,,,,71,101,-14,-14,,,,,,,,,,,,,,,1072.409863,1073.123348,1072.409863,1073.123348,80.95238095,1583522502,1583522505,2.936856747,1583522499,1583522502,,,SA,1,21,female,undergrad,2020_Mar_06_1104,AdjustEyeTrack,3.1.5,60.01659291
39,Stimuli/Morph39.JPG,Stimuli/Morph39.png,Stimuli/BlurLevel5/BlurEditedMorph39,Stimuli/BlurLevel5/BlurEditedMorph39.png,Stimuli/BlurLevel5/NumberedMorphs/BlurEditedMorph39.png,Stimuli/BlurLevel5/OriginalBlur/BlurEditedMorph39.png,Stimuli/BlurMorphTrio/EditedMorph39.png,010109right.gif,Stimuli/normal_thumbnails/39right.gif,,,,,1,0,1,0,0,17,17,38,,,,,,,,,,,,,,,,,,,,,,,90,18,2,172,-2.475670172,0.347932752,39,Experiment,,,,,,,,,11,41,-2,-2,,,,,,,,,,,,,,,1078.721116,1079.404728,1078.721116,1079.404728,97.27891156,1583522508,1583522510,1.93686986,1583522505,1583522508,,,SA,1,21,female,undergrad,2020_Mar_06_1104,AdjustEyeTrack,3.1.5,60.01659291
133,Stimuli/Morph133.JPG,Stimuli/Morph133.png,Stimuli/BlurLevel5/BlurEditedMorph133,Stimuli/BlurLevel5/BlurEditedMorph133.png,Stimuli/BlurLevel5/NumberedMorphs/BlurEditedMorph133.png,Stimuli/BlurLevel5/OriginalBlur/BlurEditedMorph133.png,Stimuli/BlurMorphTrio/EditedMorph133.png,None,None,,,,,1,0,1,0,0,18,18,132,,,,,,,,,,,,,,,,,,,,,,,13,19,2,37,1.996588775,1.504537558,133,Experiment,,,,,,,,,20,132,1,1,,,,,,,,,,,,,,,1084.21709,1084.93425,1084.21709,1084.93425,98.63945578,1583522514,1583522516,1.954247952,1583522511,1583522514,,,SA,1,21,female,undergrad,2020_Mar_06_1104,AdjustEyeTrack,3.1.5,60.01659291
131,Stimuli/Morph131.JPG,Stimuli/Morph131.png,Stimuli/BlurLevel5/BlurEditedMorph131,Stimuli/BlurLevel5/BlurEditedMorph131.png,Stimuli/BlurLevel5/NumberedMorphs/BlurEditedMorph131.png,Stimuli/BlurLevel5/OriginalBlur/BlurEditedMorph131.png,Stimuli/BlurMorphTrio/EditedMorph131.png,None,None,,,,,1,0,1,0,0,19,19,130,,,,,,,,,,,,,,,,,,,,,,,41,20,2,236,-1.397982259,-2.072593931,131,Experiment,,,,,,,,,17,121,10,10,,,,,,,,,,,,,,,1089.573884,1090.266984,1089.573884,1090.266984,86.39455782,1583522519,1583522521,1.756137848,1583522516,1583522519,,,SA,1,21,female,undergrad,2020_Mar_06_1104,AdjustEyeTrack,3.1.5,60.01659291
4,Stimuli/Morph4.JPG,Stimuli/Morph4.png,Stimuli/BlurLevel5/BlurEditedMorph4,Stimuli/BlurLevel5/BlurEditedMorph4.png,Stimuli/BlurLevel5/NumberedMorphs/BlurEditedMorph4.png,Stimuli/BlurLevel5/OriginalBlur/BlurEditedMorph4.png,Stimuli/BlurMorphTrio/EditedMorph4.png,010010right.gif,Stimuli/normal_thumbnails/4right.gif,,,,,1,0,1,0,0,20,20,3,,,,,,,,,,,,,,,,,,,,,,,87,21,2,178,-2.498477068,0.087248742,4,Experiment,,,,,,,,,55,2,2,2,,,,,,,,,,,,,,,1094.626695,1095.316625,1094.626695,1095.316625,97.27891156,1583522524,1583522526,1.915393114,1583522521,1583522524,,,SA,1,21,female,undergrad,2020_Mar_06_1104,AdjustEyeTrack,3.1.5,60.01659291
24,Stimuli/Morph24.JPG,Stimuli/Morph24.png,Stimuli/BlurLevel5/BlurEditedMorph24,Stimuli/BlurLevel5/BlurEditedMorph24.png,Stimuli/BlurLevel5/NumberedMorphs/BlurEditedMorph24.png,Stimuli/BlurLevel5/OriginalBlur/BlurEditedMorph24.png,Stimuli/BlurMorphTrio/EditedMorph24.png,010068right.gif,Stimuli/normal_thumbnails/24right.gif,,,,,1,0,1,0,0,21,21,23,,,,,,,,,,,,,,,,,,,,,,,56,22,2,98,-0.347932752,2.475670172,24,Experiment,,,,,,,,,7,19,5,5,,,,,,,,,,,,,,,1100.029053,1100.724134,1100.029053,1100.724134,93.19727891,1583522529,1583522531,1.918381691,1583522526,1583522529,,,SA,1,21,female,undergrad,2020_Mar_06_1104,AdjustEyeTrack,3.1.5,60.01659291
127,Stimuli/Morph127.JPG,Stimuli/Morph127.png,Stimuli/BlurLevel5/BlurEditedMorph127,Stimuli/BlurLevel5/BlurEditedMorph127.png,Stimuli/BlurLevel5/NumberedMorphs/BlurEditedMorph127.png,Stimuli/BlurLevel5/OriginalBlur/BlurEditedMorph127.png,Stimuli/BlurMorphTrio/EditedMorph127.png,None,None,,,,,1,0,1,0,0,22,22,126,,,,,,,,,,,,,,,,,,,,,,,18,23,2,69,0.895919874,2.333951066,127,Experiment,,,,,,,,,19,123,4,4,,,,,,,,,,,,,,,1105.054059,1105.73306,1105.054059,1105.73306,94.55782313,1583522534,1583522536,1.836515903,1583522532,1583522534,,,SA,1,21,female,undergrad,2020_Mar_06_1104,AdjustEyeTrack,3.1.5,60.01659291
58,Stimuli/Morph58.JPG,Stimuli/Morph58.png,Stimuli/BlurLevel5/BlurEditedMorph58,Stimuli/BlurLevel5/BlurEditedMorph58.png,Stimuli/BlurLevel5/NumberedMorphs/BlurEditedMorph58.png,Stimuli/BlurLevel5/OriginalBlur/BlurEditedMorph58.png,Stimuli/BlurMorphTrio/EditedMorph58.png,010159right.gif,Stimuli/normal_thumbnails/58right.gif,,,,,1,0,1,0,0,23,23,57,,,,,,,,,,,,,,,,,,,,,,,16,24,2,62,1.173678907,2.207368982,58,Experiment,,,,,,,,,66,55,3,3,,,,,,,,,,,,,,,1110.277677,1110.98631,1110.277677,1110.98631,95.91836735,1583522540,1583522543,2.964113951,1583522537,1583522540,,,SA,1,21,female,undergrad,2020_Mar_06_1104,AdjustEyeTrack,3.1.5,60.01659291
139,Stimuli/Morph139.JPG,Stimuli/Morph139.png,Stimuli/BlurLevel5/BlurEditedMorph139,Stimuli/BlurLevel5/BlurEditedMorph139.png,Stimuli/BlurLevel5/NumberedMorphs/BlurEditedMorph139.png,Stimuli/BlurLevel5/OriginalBlur/BlurEditedMorph139.png,Stimuli/BlurMorphTrio/EditedMorph139.png,None,None,,,,,1,0,1,0,0,24,24,138,,,,,,,,,,,,,,,,,,,,,,,93,25,2,327,2.09667642,-1.361597588,139,Experiment,,,,,,,,,97,134,5,5,,,,,,,,,,,,,,,1117.226923,1117.962436,1117.226923,1117.962436,93.19727891,1583522547,1583522548,1.333581686,1583522543,1583522547,,,SA,1,21,female,undergrad,2020_Mar_06_1104,AdjustEyeTrack,3.1.5,60.01659291
70,Stimuli/Morph70.JPG,Stimuli/Morph70.png,Stimuli/BlurLevel5/BlurEditedMorph70,Stimuli/BlurLevel5/BlurEditedMorph70.png,Stimuli/BlurLevel5/NumberedMorphs/BlurEditedMorph70.png,Stimuli/BlurLevel5/OriginalBlur/BlurEditedMorph70.png,Stimuli/BlurMorphTrio/EditedMorph70.png,020221right.gif,Stimuli/normal_thumbnails/70right.gif,,,,,1,0,1,0,0,25,25,69,,,,,,,,,,,,,,,,,,,,,,,29,26,2,350,2.462019383,-0.434120444,70,Experiment,,,,,,,,,4,39,31,31,,,,,,,,,,,,,,,1122.453662,1123.168768,1122.453662,1123.168768,57.82312925,1583522552,1583522555,3.301222086,1583522549,1583522552,,,SA,1,21,female,undergrad,2020_Mar_06_1104,AdjustEyeTrack,3.1.5,60.01659291
13,Stimuli/Morph13.JPG,Stimuli/Morph13.png,Stimuli/BlurLevel5/BlurEditedMorph13,Stimuli/BlurLevel5/BlurEditedMorph13.png,Stimuli/BlurLevel5/NumberedMorphs/BlurEditedMorph13.png,Stimuli/BlurLevel5/OriginalBlur/BlurEditedMorph13.png,Stimuli/BlurMorphTrio/EditedMorph13.png,010027right.gif,Stimuli/normal_thumbnails/13right.gif,,,,,1,0,1,0,0,26,26,12,,,,,,,,,,,,,,,,,,,,,,,71,27,2,238,-1.324798161,-2.12012024,13,Experiment,,,,,,,,,55,20,-7,-7,,,,,,,,,,,,,,,1129.032021,1129.70401,1129.032021,1129.70401,90.47619048,1583522558,1583522562,3.132584333,1583522556,1583522558,,,SA,1,21,female,undergrad,2020_Mar_06_1104,AdjustEyeTrack,3.1.5,60.01659291
134,Stimuli/Morph134.JPG,Stimuli/Morph134.png,Stimuli/BlurLevel5/BlurEditedMorph134,Stimuli/BlurLevel5/BlurEditedMorph134.png,Stimuli/BlurLevel5/NumberedMorphs/BlurEditedMorph134.png,Stimuli/BlurLevel5/OriginalBlur/BlurEditedMorph134.png,Stimuli/BlurMorphTrio/EditedMorph134.png,None,None,,,,,1,0,1,0,0,27,27,133,,,,,,,,,,,,,,,,,,,,,,,58,28,2,296,1.095927867,-2.246985116,134,Experiment,,,,,,,,,82,20,114,-33,,,,,,,,,,,,,,,1135.471738,1136.172437,1135.471738,1136.172437,55.10204082,1583522565,1583522569,3.689230919,1583522562,1583522565,,,SA,1,21,female,undergrad,2020_Mar_06_1104,AdjustEyeTrack,3.1.5,60.01659291
64,Stimuli/Morph64.JPG,Stimuli/Morph64.png,Stimuli/BlurLevel5/BlurEditedMorph64,Stimuli/BlurLevel5/BlurEditedMorph64.png,Stimuli/BlurLevel5/NumberedMorphs/BlurEditedMorph64.png,Stimuli/BlurLevel5/OriginalBlur/BlurEditedMorph64.png,Stimuli/BlurMorphTrio/EditedMorph64.png,020208right.gif,Stimuli/normal_thumbnails/64right.gif,,,,,1,0,1,0,0,28,28,63,,,,,,,,,,,,,,,,,,,,,,,84,29,2,262,-0.347932752,-2.475670172,64,Experiment,,,,,,,,,88,64,0,0,,,,,,,,,,,,,,,1142.401108,1143.084258,1142.401108,1143.084258,100,1583522572,1583522574,1.899768114,1583522569,1583522572,,,SA,1,21,female,undergrad,2020_Mar_06_1104,AdjustEyeTrack,3.1.5,60.01659291
6,Stimuli/Morph6.JPG,Stimuli/Morph6.png,Stimuli/BlurLevel5/BlurEditedMorph6,Stimuli/BlurLevel5/BlurEditedMorph6.png,Stimuli/BlurLevel5/NumberedMorphs/BlurEditedMorph6.png,Stimuli/BlurLevel5/OriginalBlur/BlurEditedMorph6.png,Stimuli/BlurMorphTrio/EditedMorph6.png,010012right.gif,Stimuli/normal_thumbnails/6right.gif,,,,,1,0,1,0,0,29,29,5,,,,,,,,,,,,,,,,,,,,,,,53,30,2,170,-2.462019383,0.434120444,6,Experiment,,,,,,,,,58,9,-3,-3,,,,,,,,,,,,,,,1147.753177,1148.460059,1147.753177,1148.460059,95.91836735,1583522577,1583522580,2.720066786,1583522574,1583522577,,,SA,1,21,female,undergrad,2020_Mar_06_1104,AdjustEyeTrack,3.1.5,60.01659291
56,Stimuli/Morph56.JPG,Stimuli/Morph56.png,Stimuli/BlurLevel5/BlurEditedMorph56,Stimuli/BlurLevel5/BlurEditedMorph56.png,Stimuli/BlurLevel5/NumberedMorphs/BlurEditedMorph56.png,Stimuli/BlurLevel5/OriginalBlur/BlurEditedMorph56.png,Stimuli/BlurMorphTrio/EditedMorph56.png,010157right.gif,Stimuli/normal_thumbnails/56right.gif,,,,,1,0,1,0,0,30,30,55,,,,,,,,,,,,,,,,,,,,,,,75,31,2,54,1.469463131,2.022542486,56,Experiment,,,,,,,,,11,53,3,3,,,,,,,,,,,,,,,1153.721022,1154.405854,1153.721022,1154.405854,95.91836735,1583522583,1583522586,2.730604172,1583522580,1583522583,,,SA,1,21,female,undergrad,2020_Mar_06_1104,AdjustEyeTrack,3.1.5,60.01659291
106,Stimuli/Morph106.JPG,Stimuli/Morph106.png,Stimuli/BlurLevel5/BlurEditedMorph106,Stimuli/BlurLevel5/BlurEditedMorph106.png,Stimuli/BlurLevel5/NumberedMorphs/BlurEditedMorph106.png,Stimuli/BlurLevel5/OriginalBlur/BlurEditedMorph106.png,Stimuli/BlurMorphTrio/EditedMorph106.png,None,None,,,,,1,0,1,0,0,31,31,105,,,,,,,,,,,,,,,,,,,,,,,4,32,2,285,0.647047613,-2.414814566,106,Experiment,,,,,,,,,47,96,10,10,,,,,,,,,,,,,,,1159.998198,1160.710734,1159.998198,1160.710734,86.39455782,1583522589,1583522592,2.616734982,1583522586,1583522589,,,SA,1,21,female,undergrad,2020_Mar_06_1104,AdjustEyeTrack,3.1.5,60.01659291
143,Stimuli/Morph143.JPG,Stimuli/Morph143.png,Stimuli/BlurLevel5/BlurEditedMorph143,Stimuli/BlurLevel5/BlurEditedMorph143.png,Stimuli/BlurLevel5/NumberedMorphs/BlurEditedMorph143.png,Stimuli/BlurLevel5/OriginalBlur/BlurEditedMorph143.png,Stimuli/BlurMorphTrio/EditedMorph143.png,None,None,,,,,1,0,1,0,0,32,32,142,,,,,,,,,,,,,,,,,,,,,,,32,33,2,146,-2.072593931,1.397982259,143,Experiment,,,,,,,,,118,4,139,-8,,,,,,,,,,,,,,,1166.084305,1166.782497,1166.084305,1166.782497,89.11564626,1583522596,1583522597,1.3992939,1583522593,1583522595,,,SA,1,21,female,undergrad,2020_Mar_06_1104,AdjustEyeTrack,3.1.5,60.01659291
74,Stimuli/Morph74.JPG,Stimuli/Morph74.png,Stimuli/BlurLevel5/BlurEditedMorph74,Stimuli/BlurLevel5/BlurEditedMorph74.png,Stimuli/BlurLevel5/NumberedMorphs/BlurEditedMorph74.png,Stimuli/BlurLevel5/OriginalBlur/BlurEditedMorph74.png,Stimuli/BlurMorphTrio/EditedMorph74.png,020232right.gif,Stimuli/normal_thumbnails/74right.gif,,,,,1,0,1,0,0,33,33,73,,,,,,,,,,,,,,,,,,,,,,,33,34,2,29,2.186549268,1.212024051,74,Experiment,,,,,,,,,73,4,70,70,,,,,,,,,,,,,,,1170.834046,1171.537262,1170.834046,1171.537262,4.761904762,1583522600,1583522604,3.732206821,1583522597,1583522600,,,SA,1,21,female,undergrad,2020_Mar_06_1104,AdjustEyeTrack,3.1.5,60.01659291
115,Stimuli/Morph115.JPG,Stimuli/Morph115.png,Stimuli/BlurLevel5/BlurEditedMorph115,Stimuli/BlurLevel5/BlurEditedMorph115.png,Stimuli/BlurLevel5/NumberedMorphs/BlurEditedMorph115.png,Stimuli/BlurLevel5/OriginalBlur/BlurEditedMorph115.png,Stimuli/BlurMorphTrio/EditedMorph115.png,None,None,,,,,1,0,1,0,0,34,34,114,,,,,,,,,,,,,,,,,,,,,,,10,35,2,153,-2.22751631,1.134976249,115,Experiment,,,,,,,,,94,126,-11,-11,,,,,,,,,,,,,,,1177.887123,1178.581948,1177.887123,1178.581948,85.03401361,1583522607,1583522609,1.814928055,1583522605,1583522607,,,SA,1,21,female,undergrad,2020_Mar_06_1104,AdjustEyeTrack,3.1.5,60.01659291
98,Stimuli/Morph98.JPG,Stimuli/Morph98.png,Stimuli/BlurLevel5/BlurEditedMorph98,Stimuli/BlurLevel5/BlurEditedMorph98.png,Stimuli/BlurLevel5/NumberedMorphs/BlurEditedMorph98.png,Stimuli/BlurLevel5/OriginalBlur/BlurEditedMorph98.png,Stimuli/BlurMorphTrio/EditedMorph98.png,020298right.gif,Stimuli/normal_thumbnails/98right.gif,,,,,1,0,1,0,0,35,35,97,,,,,,,,,,,,,,,,,,,,,,,1,36,2,68,0.936516484,2.317959636,98,Experiment,,,,,,,,,121,106,-8,-8,,,,,,,,,,,,,,,1182.44142,1183.091383,1182.44142,1183.091383,89.11564626,1583522612,1583522613,1.617128849,1583522610,1583522612,,,SA,1,21,female,undergrad,2020_Mar_06_1104,AdjustEyeTrack,3.1.5,60.01659291
17,Stimuli/Morph17.JPG,Stimuli/Morph17.png,Stimuli/BlurLevel5/BlurEditedMorph17,Stimuli/BlurLevel5/BlurEditedMorph17.png,Stimuli/BlurLevel5/NumberedMorphs/BlurEditedMorph17.png,Stimuli/BlurLevel5/OriginalBlur/BlurEditedMorph17.png,Stimuli/BlurMorphTrio/EditedMorph17.png,010036right.gif,Stimuli/normal_thumbnails/17right.gif,,,,,1,0,1,0,0,36,36,16,,,,,,,,,,,,,,,,,,,,,,,43,37,2,238,-1.324798161,-2.12012024,17,Experiment,,,,,,,,,119,22,-5,-5,,,,,,,,,,,,,,,1187.270608,1187.960131,1187.270608,1187.960131,93.19727891,1583522617,1583522619,1.946031094,1583522614,1583522617,,,SA,1,21,female,undergrad,2020_Mar_06_1104,AdjustEyeTrack,3.1.5,60.01659291
79,Stimuli/Morph79.JPG,Stimuli/Morph79.png,Stimuli/BlurLevel5/BlurEditedMorph79,Stimuli/BlurLevel5/BlurEditedMorph79.png,Stimuli/BlurLevel5/NumberedMorphs/BlurEditedMorph79.png,Stimuli/BlurLevel5/OriginalBlur/BlurEditedMorph79.png,Stimuli/BlurMorphTrio/EditedMorph79.png,020239right.gif,Stimuli/normal_thumbnails/79right.gif,,,,,1,0,1,0,0,37,37,78,,,,,,,,,,,,,,,,,,,,,,,18,38,2,306,1.469463131,-2.022542486,79,Experiment,,,,,,,,,96,127,-48,-48,,,,,,,,,,,,,,,1192.291314,1192.987989,1192.291314,1192.987989,34.69387755,1583522622,1583522624,1.802365065,1583522619,1583522622,,,SA,1,21,female,undergrad,2020_Mar_06_1104,AdjustEyeTrack,3.1.5,60.01659291
1,Stimuli/Morph1.JPG,Stimuli/Morph1.png,Stimuli/BlurLevel5/BlurEditedMorph1,Stimuli/BlurLevel5/BlurEditedMorph1.png,Stimuli/BlurLevel5/NumberedMorphs/BlurEditedMorph1.png,Stimuli/BlurLevel5/OriginalBlur/BlurEditedMorph1.png,Stimuli/BlurMorphTrio/EditedMorph1.png,010003right.gif,Stimuli/normal_thumbnails/1right.gif,,,,,1,0,1,0,0,38,38,0,,,,,,,,,,,,,,,,,,,,,,,28,39,2,321,1.942864904,-1.573300978,1,Experiment,,,,,,,,,83,137,-136,11,,,,,,,,,,,,,,,1197.559592,1198.266262,1197.559592,1198.266262,85.03401361,1583522627,1583522629,1.817169905,1583522624,1583522627,,,SA,1,21,female,undergrad,2020_Mar_06_1104,AdjustEyeTrack,3.1.5,60.01659291
107,Stimuli/Morph107.JPG,Stimuli/Morph107.png,Stimuli/BlurLevel5/BlurEditedMorph107,Stimuli/BlurLevel5/BlurEditedMorph107.png,Stimuli/BlurLevel5/NumberedMorphs/BlurEditedMorph107.png,Stimuli/BlurLevel5/OriginalBlur/BlurEditedMorph107.png,Stimuli/BlurMorphTrio/EditedMorph107.png,None,None,,,,,1,0,1,0,0,39,39,106,,,,,,,,,,,,,,,,,,,,,,,30,40,2,262,-0.347932752,-2.475670172,107,Experiment,,,,,,,,,106,120,-13,-13,,,,,,,,,,,,,,,1202.756582,1203.453412,1202.756582,1203.453412,82.31292517,1583522632,1583522633,0.949514866,1583522629,1583522632,,,SA,1,21,female,undergrad,2020_Mar_06_1104,AdjustEyeTrack,3.1.5,60.01659291
19,Stimuli/Morph19.JPG,Stimuli/Morph19.png,Stimuli/BlurLevel5/BlurEditedMorph19,Stimuli/BlurLevel5/BlurEditedMorph19.png,Stimuli/BlurLevel5/NumberedMorphs/BlurEditedMorph19.png,Stimuli/BlurLevel5/OriginalBlur/BlurEditedMorph19.png,Stimuli/BlurMorphTrio/EditedMorph19.png,010045right.gif,Stimuli/normal_thumbnails/19right.gif,,,,,1,0,1,0,0,40,40,18,,,,,,,,,,,,,,,,,,,,,,,99,41,2,181,-2.499619238,-0.043631016,19,Experiment,,,,,,,,,31,12,7,7,,,,,,,,,,,,,,,1206.929203,1207.608773,1206.929203,1207.608773,90.47619048,1583522636,1583522640,3.466541052,1583522634,1583522636,,,SA,1,21,female,undergrad,2020_Mar_06_1104,AdjustEyeTrack,3.1.5,60.01659291
47,Stimuli/Morph47.JPG,Stimuli/Morph47.png,Stimuli/BlurLevel5/BlurEditedMorph47,Stimuli/BlurLevel5/BlurEditedMorph47.png,Stimuli/BlurLevel5/NumberedMorphs/BlurEditedMorph47.png,Stimuli/BlurLevel5/OriginalBlur/BlurEditedMorph47.png,Stimuli/BlurMorphTrio/EditedMorph47.png,010130right.gif,Stimuli/normal_thumbnails/47right.gif,,,,,1,0,1,0,0,41,41,46,,,,,,,,,,,,,,,,,,,,,,,68,42,2,34,2.072593931,1.397982259,47,Experiment,,,,,,,,,93,53,-6,-6,,,,,,,,,,,,,,,1213.703183,1214.399848,1213.703183,1214.399848,91.83673469,1583522643,1583522645,1.550047874,1583522640,1583522643,,,SA,1,21,female,undergrad,2020_Mar_06_1104,AdjustEyeTrack,3.1.5,60.01659291
122,Stimuli/Morph122.JPG,Stimuli/Morph122.png,Stimuli/BlurLevel5/BlurEditedMorph122,Stimuli/BlurLevel5/BlurEditedMorph122.png,Stimuli/BlurLevel5/NumberedMorphs/BlurEditedMorph122.png,Stimuli/BlurLevel5/OriginalBlur/BlurEditedMorph122.png,Stimuli/BlurMorphTrio/EditedMorph122.png,None,None,,,,,1,0,1,0,0,42,42,121,,,,,,,,,,,,,,,,,,,,,,,3,43,2,1,2.499619238,0.043631016,122,Experiment,,,,,,,,,109,127,-5,-5,,,,,,,,,,,,,,,1218.752058,1219.454777,1218.752058,1219.454777,93.19727891,1583522648,1583522649,1.205457926,1583522645,1583522648,,,SA,1,21,female,undergrad,2020_Mar_06_1104,AdjustEyeTrack,3.1.5,60.01659291
140,Stimuli/Morph140.JPG,Stimuli/Morph140.png,Stimuli/BlurLevel5/BlurEditedMorph140,Stimuli/BlurLevel5/BlurEditedMorph140.png,Stimuli/BlurLevel5/NumberedMorphs/BlurEditedMorph140.png,Stimuli/BlurLevel5/OriginalBlur/BlurEditedMorph140.png,Stimuli/BlurMorphTrio/EditedMorph140.png,None,None,,,,,1,0,1,0,0,43,43,139,,,,,,,,,,,,,,,,,,,,,,,74,44,2,270,-4.59E-16,-2.5,140,Experiment,,,,,,,,,125,144,-4,-4,,,,,,,,,,,,,,,1223.346703,1224.049729,1223.346703,1224.049729,94.55782313,1583522653,1583522655,1.896116972,1583522650,1583522653,,,SA,1,21,female,undergrad,2020_Mar_06_1104,AdjustEyeTrack,3.1.5,60.01659291
54,Stimuli/Morph54.JPG,Stimuli/Morph54.png,Stimuli/BlurLevel5/BlurEditedMorph54,Stimuli/BlurLevel5/BlurEditedMorph54.png,Stimuli/BlurLevel5/NumberedMorphs/BlurEditedMorph54.png,Stimuli/BlurLevel5/OriginalBlur/BlurEditedMorph54.png,Stimuli/BlurMorphTrio/EditedMorph54.png,010150right.gif,Stimuli/normal_thumbnails/54right.gif,,,,,1,0,1,0,0,44,44,53,,,,,,,,,,,,,,,,,,,,,,,87,45,2,108,-0.772542486,2.377641291,54,Experiment,,,,,,,,,141,63,-9,-9,,,,,,,,,,,,,,,1228.597922,1229.285622,1228.597922,1229.285622,87.75510204,1583522658,1583522661,2.799389124,1583522655,1583522658,,,SA,1,21,female,undergrad,2020_Mar_06_1104,AdjustEyeTrack,3.1.5,60.01659291
63,Stimuli/Morph63.JPG,Stimuli/Morph63.png,Stimuli/BlurLevel5/BlurEditedMorph63,Stimuli/BlurLevel5/BlurEditedMorph63.png,Stimuli/BlurLevel5/NumberedMorphs/BlurEditedMorph63.png,Stimuli/BlurLevel5/OriginalBlur/BlurEditedMorph63.png,Stimuli/BlurMorphTrio/EditedMorph63.png,020206right.gif,Stimuli/normal_thumbnails/63right.gif,,,,,1,0,1,0,0,45,45,62,,,,,,,,,,,,,,,,,,,,,,,35,46,2,90,1.53E-16,2.5,63,Experiment,,,,,,,,,123,44,19,19,,,,,,,,,,,,,,,1234.690765,1235.387662,1234.690765,1235.387662,74.14965986,1583522664,1583522667,2.816882849,1583522661,1583522664,,,SA,1,21,female,undergrad,2020_Mar_06_1104,AdjustEyeTrack,3.1.5,60.01659291
2,Stimuli/Morph2.JPG,Stimuli/Morph2.png,Stimuli/BlurLevel5/BlurEditedMorph2,Stimuli/BlurLevel5/BlurEditedMorph2.png,Stimuli/BlurLevel5/NumberedMorphs/BlurEditedMorph2.png,Stimuli/BlurLevel5/OriginalBlur/BlurEditedMorph2.png,Stimuli/BlurMorphTrio/EditedMorph2.png,010006right.gif,Stimuli/normal_thumbnails/2right.gif,,,,,1,0,1,0,0,46,46,1,,,,,,,,,,,,,,,,,,,,,,,57,47,2,162,-2.377641291,0.772542486,2,Experiment,,,,,,,,,34,2,0,0,,,,,,,,,,,,,,,1240.975956,1241.692467,1240.975956,1241.692467,100,1583522670,1583522674,3.365083933,1583522667,1583522670,,,SA,1,21,female,undergrad,2020_Mar_06_1104,AdjustEyeTrack,3.1.5,60.01659291
144,Stimuli/Morph144.JPG,Stimuli/Morph144.png,Stimuli/BlurLevel5/BlurEditedMorph144,Stimuli/BlurLevel5/BlurEditedMorph144.png,Stimuli/BlurLevel5/NumberedMorphs/BlurEditedMorph144.png,Stimuli/BlurLevel5/OriginalBlur/BlurEditedMorph144.png,Stimuli/BlurMorphTrio/EditedMorph144.png,None,None,,,,,1,0,1,0,0,47,47,143,,,,,,,,,,,,,,,,,,,,,,,71,48,2,21,2.333951066,0.895919874,144,Experiment,,,,,,,,,48,18,126,-21,,,,,,,,,,,,,,,1247.577779,1248.267579,1247.577779,1248.267579,71.42857143,1583522677,1583522680,2.799167871,1583522674,1583522677,,,SA,1,21,female,undergrad,2020_Mar_06_1104,AdjustEyeTrack,3.1.5,60.01659291
100,Stimuli/Morph100.JPG,Stimuli/Morph100.png,Stimuli/BlurLevel5/BlurEditedMorph100,Stimuli/BlurLevel5/BlurEditedMorph100.png,Stimuli/BlurLevel5/NumberedMorphs/BlurEditedMorph100.png,Stimuli/BlurLevel5/OriginalBlur/BlurEditedMorph100.png,Stimuli/BlurMorphTrio/EditedMorph100.png,020297right.gif,Stimuli/normal_thumbnails/100right.gif,,,,,1,0,1,0,0,48,48,99,,,,,,,,,,,,,,,,,,,,,,,37,49,2,295,1.056545654,-2.265769468,100,Experiment,,,,,,,,,99,98,2,2,,,,,,,,,,,,,,,1253.784174,1254.482345,1253.784174,1254.482345,97.27891156,1583522683,1583522688,4.382837772,1583522680,1583522683,,,SA,1,21,female,undergrad,2020_Mar_06_1104,AdjustEyeTrack,3.1.5,60.01659291
46,Stimuli/Morph46.JPG,Stimuli/Morph46.png,Stimuli/BlurLevel5/BlurEditedMorph46,Stimuli/BlurLevel5/BlurEditedMorph46.png,Stimuli/BlurLevel5/NumberedMorphs/BlurEditedMorph46.png,Stimuli/BlurLevel5/OriginalBlur/BlurEditedMorph46.png,Stimuli/BlurMorphTrio/EditedMorph46.png,010128right.gif,Stimuli/normal_thumbnails/46right.gif,,,,,1,0,1,0,0,49,49,45,,,,,,,,,,,,,,,,,,,,,,,87,50,2,347,2.435925162,-0.562377636,46,Experiment,,,,,,,,,144,60,-14,-14,,,,,,,,,,,,,,,1261.517383,1262.225215,1261.517383,1262.225215,80.95238095,1583522691,1583522693,2.399183035,1583522688,1583522691,,,SA,1,21,female,undergrad,2020_Mar_06_1104,AdjustEyeTrack,3.1.5,60.01659291
92,Stimuli/Morph92.JPG,Stimuli/Morph92.png,Stimuli/BlurLevel5/BlurEditedMorph92,Stimuli/BlurLevel5/BlurEditedMorph92.png,Stimuli/BlurLevel5/NumberedMorphs/BlurEditedMorph92.png,Stimuli/BlurLevel5/OriginalBlur/BlurEditedMorph92.png,Stimuli/BlurMorphTrio/EditedMorph92.png,020277right.gif,Stimuli/normal_thumbnails/92right.gif,,,,,1,0,1,0,0,50,50,91,,,,,,,,,,,,,,,,,,,,,,,81,51,2,193,-2.435925162,-0.562377636,92,Experiment,,,,,,,,,125,102,-10,-10,,,,,,,,,,,,,,,1267.16705,1267.852127,1267.16705,1267.852127,86.39455782,1583522697,1583522699,2.933973074,1583522694,1583522697,,,SA,1,21,female,undergrad,2020_Mar_06_1104,AdjustEyeTrack,3.1.5,60.01659291
128,Stimuli/Morph128.JPG,Stimuli/Morph128.png,Stimuli/BlurLevel5/BlurEditedMorph128,Stimuli/BlurLevel5/BlurEditedMorph128.png,Stimuli/BlurLevel5/NumberedMorphs/BlurEditedMorph128.png,Stimuli/BlurLevel5/OriginalBlur/BlurEditedMorph128.png,Stimuli/BlurMorphTrio/EditedMorph128.png,None,None,,,,,1,0,1,0,0,51,51,127,,,,,,,,,,,,,,,,,,,,,,,82,52,2,356,2.493910126,-0.174391184,128,Experiment,,,,,,,,,52,87,41,41,,,,,,,,,,,,,,,1273.398935,1274.107228,1273.398935,1274.107228,44.21768707,1583522703,1583522706,2.748193026,1583522700,1583522703,,,SA,1,21,female,undergrad,2020_Mar_06_1104,AdjustEyeTrack,3.1.5,60.01659291
78,Stimuli/Morph78.JPG,Stimuli/Morph78.png,Stimuli/BlurLevel5/BlurEditedMorph78,Stimuli/BlurLevel5/BlurEditedMorph78.png,Stimuli/BlurLevel5/NumberedMorphs/BlurEditedMorph78.png,Stimuli/BlurLevel5/OriginalBlur/BlurEditedMorph78.png,Stimuli/BlurMorphTrio/EditedMorph78.png,020238right.gif,Stimuli/normal_thumbnails/78right.gif,,,,,1,0,1,0,0,52,52,77,,,,,,,,,,,,,,,,,,,,,,,77,53,2,339,2.333951066,-0.895919874,78,Experiment,,,,,,,,,5,87,-9,-9,,,,,,,,,,,,,,,1279.453165,1280.159305,1279.453165,1280.159305,87.75510204,1583522709,1583522711,2.432991982,1583522706,1583522709,,,SA,1,21,female,undergrad,2020_Mar_06_1104,AdjustEyeTrack,3.1.5,60.01659291
67,Stimuli/Morph67.JPG,Stimuli/Morph67.png,Stimuli/BlurLevel5/BlurEditedMorph67,Stimuli/BlurLevel5/BlurEditedMorph67.png,Stimuli/BlurLevel5/NumberedMorphs/BlurEditedMorph67.png,Stimuli/BlurLevel5/OriginalBlur/BlurEditedMorph67.png,Stimuli/BlurMorphTrio/EditedMorph67.png,020217right.gif,Stimuli/normal_thumbnails/67right.gif,,,,,1,0,1,0,0,53,53,66,,,,,,,,,,,,,,,,,,,,,,,14,54,2,307,1.504537558,-1.996588775,67,Experiment,,,,,,,,,12,86,-19,-19,,,,,,,,,,,,,,,1285.357629,1286.081109,1285.357629,1286.081109,74.14965986,1583522715,1583522717,2.58357811,1583522712,1583522715,,,SA,1,21,female,undergrad,2020_Mar_06_1104,AdjustEyeTrack,3.1.5,60.01659291
95,Stimuli/Morph95.JPG,Stimuli/Morph95.png,Stimuli/BlurLevel5/BlurEditedMorph95,Stimuli/BlurLevel5/BlurEditedMorph95.png,Stimuli/BlurLevel5/NumberedMorphs/BlurEditedMorph95.png,Stimuli/BlurLevel5/OriginalBlur/BlurEditedMorph95.png,Stimuli/BlurMorphTrio/EditedMorph95.png,020287right.gif,Stimuli/normal_thumbnails/95right.gif,,,,,1,0,1,0,0,54,54,94,,,,,,,,,,,,,,,,,,,,,,,60,55,2,44,1.798349501,1.736645926,95,Experiment,,,,,,,,,19,86,9,9,,,,,,,,,,,,,,,1291.529916,1292.237571,1291.529916,1292.237571,87.75510204,1583522721,1583522724,2.802979946,1583522718,1583522721,,,SA,1,21,female,undergrad,2020_Mar_06_1104,AdjustEyeTrack,3.1.5,60.01659291
84,Stimuli/Morph84.JPG,Stimuli/Morph84.png,Stimuli/BlurLevel5/BlurEditedMorph84,Stimuli/BlurLevel5/BlurEditedMorph84.png,Stimuli/BlurLevel5/NumberedMorphs/BlurEditedMorph84.png,Stimuli/BlurLevel5/OriginalBlur/BlurEditedMorph84.png,Stimuli/BlurMorphTrio/EditedMorph84.png,020261right.gif,Stimuli/normal_thumbnails/84right.gif,,,,,1,0,1,0,0,55,55,83,,,,,,,,,,,,,,,,,,,,,,,46,56,2,162,-2.377641291,0.772542486,84,Experiment,,,,,,,,,102,94,-10,-10,,,,,,,,,,,,,,,1297.59147,1298.275337,1297.59147,1298.275337,86.39455782,1583522727,1583522731,3.76635623,1583522724,1583522727,,,SA,1,21,female,undergrad,2020_Mar_06_1104,AdjustEyeTrack,3.1.5,60.01659291
85,Stimuli/Morph85.JPG,Stimuli/Morph85.png,Stimuli/BlurLevel5/BlurEditedMorph85,Stimuli/BlurLevel5/BlurEditedMorph85.png,Stimuli/BlurLevel5/NumberedMorphs/BlurEditedMorph85.png,Stimuli/BlurLevel5/OriginalBlur/BlurEditedMorph85.png,Stimuli/BlurMorphTrio/EditedMorph85.png,020264right.gif,Stimuli/normal_thumbnails/85right.gif,,,,,1,0,1,0,0,56,56,84,,,,,,,,,,,,,,,,,,,,,,,85,57,2,32,2.12012024,1.324798161,85,Experiment,,,,,,,,,113,80,5,5,,,,,,,,,,,,,,,1304.592393,1305.27036,1304.592393,1305.27036,93.19727891,1583522734,1583522735,1.383298874,1583522731,1583522734,,,SA,1,21,female,undergrad,2020_Mar_06_1104,AdjustEyeTrack,3.1.5,60.01659291
86,Stimuli/Morph86.JPG,Stimuli/Morph86.png,Stimuli/BlurLevel5/BlurEditedMorph86,Stimuli/BlurLevel5/BlurEditedMorph86.png,Stimuli/BlurLevel5/NumberedMorphs/BlurEditedMorph86.png,Stimuli/BlurLevel5/OriginalBlur/BlurEditedMorph86.png,Stimuli/BlurMorphTrio/EditedMorph86.png,020266right.gif,Stimuli/normal_thumbnails/86right.gif,,,,,1,0,1,0,0,57,57,85,,,,,,,,,,,,,,,,,,,,,,,99,58,2,269,-0.043631016,-2.499619238,86,Experiment,,,,,,,,,127,83,3,3,,,,,,,,,,,,,,,1309.101354,1309.774941,1309.101354,1309.774941,95.91836735,1583522738,1583522740,1.883523226,1583522736,1583522738,,,SA,1,21,female,undergrad,2020_Mar_06_1104,AdjustEyeTrack,3.1.5,60.01659291
