stimulusID,stimulus_JPG,stimulusPath,stimulusPath2,stimulusPath3,stimulusPath4,stimulusPath5,stimulusPath6,xRayOriginal,xRayPath,Training.thisRepN,Training.thisTrialN,Training.thisN,Training.thisIndex,Blocks.thisRepN,Blocks.thisTrialN,Blocks.thisN,Blocks.thisIndex,Trials.thisRepN,Trials.thisTrialN,Trials.thisN,Trials.thisIndex,text_2.started,text_2.stopped,image.started,image.stopped,image_2.started,image_2.stopped,image_3.started,image_3.stopped,image_4.started,image_4.stopped,image_6.started,image_6.stopped,image_7.started,image_7.stopped,image_8.started,image_8.stopped,image_9.started,image_9.stopped,image_10.started,image_10.stopped,image_12.started,image_12.stopped,xrayID,trialNumber,blockNumber,stimLocationDeg,stimXCoord,stimYCoord,stimulusID,blockType,trainingXray.started,trainingXray.stopped,trainingTumors.started,trainingTumors.stopped,trainingScore%,startTrainingRespTime,endTrainingRespTime,trainingRT,morphTrack,morphID,errorRaw,errorCorrected,startTrainingStimTime,endTrainingStimTime,key_resp_3.keys,key_resp_3.rt,text.started,text.stopped,text_3.started,text_3.stopped,text_4.started,text_4.stopped,key_resp_5.keys,key_resp_5.rt,key_resp_5.started,key_resp_5.stopped,xray1.started,xray1.stopped,tumors.started,tumors.stopped,trialCorrect%,startRespTime,endRespTime,RT,startStimTime,endStimTime,key_resp.keys,key_resp.rt,participant,session,age,gender,status,date,expName,psychopyVersion,frameRate
103,Stimuli/Morph103.JPG,Stimuli/Morph103.png,Stimuli/BlurLevel5/BlurEditedMorph103,Stimuli/BlurLevel5/BlurEditedMorph103.png,Stimuli/BlurLevel5/NumberedMorphs/BlurEditedMorph103.png,Stimuli/BlurLevel5/OriginalBlur/BlurEditedMorph103.png,Stimuli/BlurMorphTrio/EditedMorph103.png,None,None,0,0,0,102,,,,,,,,,66.68574172,None,66.68574172,None,66.68574172,None,66.68574172,None,66.68574172,None,66.68574172,None,66.68574172,None,66.68574172,None,66.68574172,None,66.68574172,None,66.68574172,None,97,-100,-100,50,1.606969024,1.915111108,103,training,159.2065491,159.9047607,159.2065491,159.9047607,98.63945578,1583518540,1583518544,3.833141088,122,102,1,1,1583518537,1583518540,space,2.298260946,,,,,,,,,,,,,,,,,,,,,,,AS,1,19,male,undergrad,2020_Mar_06_1014,AdjustEyeTrack,3.1.5,59.89881569
129,Stimuli/Morph129.JPG,Stimuli/Morph129.png,Stimuli/BlurLevel5/BlurEditedMorph129,Stimuli/BlurLevel5/BlurEditedMorph129.png,Stimuli/BlurLevel5/NumberedMorphs/BlurEditedMorph129.png,Stimuli/BlurLevel5/OriginalBlur/BlurEditedMorph129.png,Stimuli/BlurMorphTrio/EditedMorph129.png,None,None,0,1,1,128,,,,,,,,,,,,,,,,,,,,,,,,,,,,,,,2,-100,-100,241,-1.212024051,-2.186549268,129,training,169.0912434,169.7827821,169.0912434,169.7827821,95.91836735,1583518550,1583518554,4.316268921,64,126,3,3,1583518547,1583518550,space,8.332298181,,,,,,,,,,,,,,,,,,,,,,,AS,1,19,male,undergrad,2020_Mar_06_1014,AdjustEyeTrack,3.1.5,59.89881569
73,Stimuli/Morph73.JPG,Stimuli/Morph73.png,Stimuli/BlurLevel5/BlurEditedMorph73,Stimuli/BlurLevel5/BlurEditedMorph73.png,Stimuli/BlurLevel5/NumberedMorphs/BlurEditedMorph73.png,Stimuli/BlurLevel5/OriginalBlur/BlurEditedMorph73.png,Stimuli/BlurMorphTrio/EditedMorph73.png,020230right.gif,Stimuli/normal_thumbnails/73right.gif,0,2,2,72,,,,,,,,,,,,,,,,,,,,,,,,,,,,,,,7,-100,-100,120,-1.25,2.165063509,73,training,185.538073,186.2365873,185.538073,186.2365873,91.83673469,1583518566,1583518571,4.616204977,103,79,-6,-6,1583518563,1583518566,space,3.927780229,,,,,,,,,,,,,,,,,,,,,,,AS,1,19,male,undergrad,2020_Mar_06_1014,AdjustEyeTrack,3.1.5,59.89881569
11,Stimuli/Morph11.JPG,Stimuli/Morph11.png,Stimuli/BlurLevel5/BlurEditedMorph11,Stimuli/BlurLevel5/BlurEditedMorph11.png,Stimuli/BlurLevel5/NumberedMorphs/BlurEditedMorph11.png,Stimuli/BlurLevel5/OriginalBlur/BlurEditedMorph11.png,Stimuli/BlurMorphTrio/EditedMorph11.png,010024right.gif,Stimuli/normal_thumbnails/11right.gif,0,3,3,10,,,,,,,,,,,,,,,,,,,,,,,,,,,,,,,32,-100,-100,162,-2.377641291,0.772542486,11,training,198.1083112,198.8042115,198.1083112,198.8042115,67.34693878,1583518579,1583518586,7.53387332,32,35,-24,-24,1583518576,1583518579,space,2.292314821,,,,,,,,,,,,,,,,,,,,,,,AS,1,19,male,undergrad,2020_Mar_06_1014,AdjustEyeTrack,3.1.5,59.89881569
77,Stimuli/Morph77.JPG,Stimuli/Morph77.png,Stimuli/BlurLevel5/BlurEditedMorph77,Stimuli/BlurLevel5/BlurEditedMorph77.png,Stimuli/BlurLevel5/NumberedMorphs/BlurEditedMorph77.png,Stimuli/BlurLevel5/OriginalBlur/BlurEditedMorph77.png,Stimuli/BlurMorphTrio/EditedMorph77.png,020235right.gif,Stimuli/normal_thumbnails/77right.gif,0,4,4,76,,,,,,,,,,,,,,,,,,,,,,,,,,,,,,,36,-100,-100,22,2.317959636,0.936516484,77,training,211.8902024,212.5989212,211.8902024,212.5989212,57.82312925,1583518593,1583518599,6.783061028,126,108,-31,-31,1583518589,1583518593,space,0.897562276,,,,,,,,,,,,,,,,,,,,,,,AS,1,19,male,undergrad,2020_Mar_06_1014,AdjustEyeTrack,3.1.5,59.89881569
87,Stimuli/Morph87.JPG,Stimuli/Morph87.png,Stimuli/BlurLevel5/BlurEditedMorph87,Stimuli/BlurLevel5/BlurEditedMorph87.png,Stimuli/BlurLevel5/NumberedMorphs/BlurEditedMorph87.png,Stimuli/BlurLevel5/OriginalBlur/BlurEditedMorph87.png,Stimuli/BlurMorphTrio/EditedMorph87.png,020270right.gif,Stimuli/normal_thumbnails/87right.gif,0,5,5,86,,,,,,,,,,,,,,,,,,,,,,,,,,,,,,,70,-100,-100,222,-1.857862064,-1.672826516,87,training,223.0566274,223.7323558,223.0566274,223.7323558,71.42857143,1583518604,1583518607,2.749668121,130,108,-21,-21,1583518601,1583518604,space,1.41996884,,,,,,,,,,,,,,,,,,,,,,,AS,1,19,male,undergrad,2020_Mar_06_1014,AdjustEyeTrack,3.1.5,59.89881569
18,Stimuli/Morph18.JPG,Stimuli/Morph18.png,Stimuli/BlurLevel5/BlurEditedMorph18,Stimuli/BlurLevel5/BlurEditedMorph18.png,Stimuli/BlurLevel5/NumberedMorphs/BlurEditedMorph18.png,Stimuli/BlurLevel5/OriginalBlur/BlurEditedMorph18.png,Stimuli/BlurMorphTrio/EditedMorph18.png,010039right.gif,Stimuli/normal_thumbnails/18right.gif,0,6,6,17,,,,,,,,,,,,,,,,,,,,,,,,,,,,,,,75,-100,-100,1,2.499619238,0.043631016,18,training,230.6512324,231.3397841,230.6512324,231.3397841,100,1583518611,1583518615,3.197472095,76,18,0,0,1583518609,1583518611,space,1.328612467,,,,,,,,,,,,,,,,,,,,,,,AS,1,19,male,undergrad,2020_Mar_06_1014,AdjustEyeTrack,3.1.5,59.89881569
146,Stimuli/Morph146.JPG,Stimuli/Morph146.png,Stimuli/BlurLevel5/BlurEditedMorph146,Stimuli/BlurLevel5/BlurEditedMorph146.png,Stimuli/BlurLevel5/NumberedMorphs/BlurEditedMorph146.png,Stimuli/BlurLevel5/OriginalBlur/BlurEditedMorph146.png,Stimuli/BlurMorphTrio/EditedMorph146.png,None,None,0,7,7,145,,,,,,,,,,,,,,,,,,,,,,,,,,,,,,,93,-100,-100,159,-2.333951066,0.895919874,146,training,239.7026683,240.4336436,239.7026683,240.4336436,91.83673469,1583518620,1583518623,2.433484077,135,140,6,6,1583518617,1583518620,space,0.816960989,,,,,,,,,,,,,,,,,,,,,,,AS,1,19,male,undergrad,2020_Mar_06_1014,AdjustEyeTrack,3.1.5,59.89881569
3,Stimuli/Morph3.JPG,Stimuli/Morph3.png,Stimuli/BlurLevel5/BlurEditedMorph3,Stimuli/BlurLevel5/BlurEditedMorph3.png,Stimuli/BlurLevel5/NumberedMorphs/BlurEditedMorph3.png,Stimuli/BlurLevel5/OriginalBlur/BlurEditedMorph3.png,Stimuli/BlurMorphTrio/EditedMorph3.png,010009right.gif,Stimuli/normal_thumbnails/3right.gif,0,8,8,2,,,,,,,,,,,,,,,,,,,,,,,,,,,,,,,43,-100,-100,37,1.996588775,1.504537558,3,training,246.7116242,247.4096353,246.7116242,247.4096353,94.55782313,1583518627,1583518629,1.817633867,95,7,-4,-4,1583518624,1583518627,space,0.882325417,,,,,,,,,,,,,,,,,,,,,,,AS,1,19,male,undergrad,2020_Mar_06_1014,AdjustEyeTrack,3.1.5,59.89881569
19,Stimuli/Morph19.JPG,Stimuli/Morph19.png,Stimuli/BlurLevel5/BlurEditedMorph19,Stimuli/BlurLevel5/BlurEditedMorph19.png,Stimuli/BlurLevel5/NumberedMorphs/BlurEditedMorph19.png,Stimuli/BlurLevel5/OriginalBlur/BlurEditedMorph19.png,Stimuli/BlurMorphTrio/EditedMorph19.png,010045right.gif,Stimuli/normal_thumbnails/19right.gif,0,9,9,18,,,,,,,,,,,,,,,,,,,,,,,,,,,,,,,88,-100,-100,225,-1.767766953,-1.767766953,19,training,253.2686691,254.0329859,253.2686691,254.0329859,87.75510204,1583518634,1583518637,3.367495298,140,28,-9,-9,1583518631,1583518634,space,0.852063483,,,,,,,,,,,,,,,,,,,,,,,AS,1,19,male,undergrad,2020_Mar_06_1014,AdjustEyeTrack,3.1.5,59.89881569
,,,,,,,,,,,,,,,,,,,,,,,,,,,,,,,,,,,,,,,,,,,,,-100,-100,,,,,training,,,,,,,,,,,,,,,,,261.0013673,None,261.0013673,None,261.0013673,None,space,73.69000899,261.0013673,None,,,,,,,,,,,,,AS,1,19,male,undergrad,2020_Mar_06_1014,AdjustEyeTrack,3.1.5,59.89881569
13,Stimuli/Morph13.JPG,Stimuli/Morph13.png,Stimuli/BlurLevel5/BlurEditedMorph13,Stimuli/BlurLevel5/BlurEditedMorph13.png,Stimuli/BlurLevel5/NumberedMorphs/BlurEditedMorph13.png,Stimuli/BlurLevel5/OriginalBlur/BlurEditedMorph13.png,Stimuli/BlurMorphTrio/EditedMorph13.png,010027right.gif,Stimuli/normal_thumbnails/13right.gif,,,,,0,0,0,0,0,0,0,12,,,,,,,,,,,,,,,,,,,,,,,94,1,1,165,-2.414814566,0.647047613,13,Experiment,,,,,,,,,70,15,-2,-2,,,,,,,,,,,,,,,336.5743612,337.2803396,336.5743612,337.2803396,97.27891156,1583518717,1583518721,3.468932867,1583518714,1583518717,,,AS,1,19,male,undergrad,2020_Mar_06_1014,AdjustEyeTrack,3.1.5,59.89881569
139,Stimuli/Morph139.JPG,Stimuli/Morph139.png,Stimuli/BlurLevel5/BlurEditedMorph139,Stimuli/BlurLevel5/BlurEditedMorph139.png,Stimuli/BlurLevel5/NumberedMorphs/BlurEditedMorph139.png,Stimuli/BlurLevel5/OriginalBlur/BlurEditedMorph139.png,Stimuli/BlurMorphTrio/EditedMorph139.png,None,None,,,,,0,0,0,0,0,1,1,138,,,,,,,,,,,,,,,,,,,,,,,95,2,1,92,-0.087248742,2.498477068,139,Experiment,,,,,,,,,103,7,132,-15,,,,,,,,,,,,,,,343.9897378,344.6805934,343.9897378,344.6805934,79.59183673,1583518725,1583518728,3.216319084,1583518721,1583518725,,,AS,1,19,male,undergrad,2020_Mar_06_1014,AdjustEyeTrack,3.1.5,59.89881569
95,Stimuli/Morph95.JPG,Stimuli/Morph95.png,Stimuli/BlurLevel5/BlurEditedMorph95,Stimuli/BlurLevel5/BlurEditedMorph95.png,Stimuli/BlurLevel5/NumberedMorphs/BlurEditedMorph95.png,Stimuli/BlurLevel5/OriginalBlur/BlurEditedMorph95.png,Stimuli/BlurMorphTrio/EditedMorph95.png,020287right.gif,Stimuli/normal_thumbnails/95right.gif,,,,,0,0,0,0,0,2,2,94,,,,,,,,,,,,,,,,,,,,,,,38,3,1,306,1.469463131,-2.022542486,95,Experiment,,,,,,,,,108,108,-13,-13,,,,,,,,,,,,,,,351.1838996,351.9187778,351.1838996,351.9187778,82.31292517,1583518732,1583518733,0.766999245,1583518728,1583518732,,,AS,1,19,male,undergrad,2020_Mar_06_1014,AdjustEyeTrack,3.1.5,59.89881569
87,Stimuli/Morph87.JPG,Stimuli/Morph87.png,Stimuli/BlurLevel5/BlurEditedMorph87,Stimuli/BlurLevel5/BlurEditedMorph87.png,Stimuli/BlurLevel5/NumberedMorphs/BlurEditedMorph87.png,Stimuli/BlurLevel5/OriginalBlur/BlurEditedMorph87.png,Stimuli/BlurMorphTrio/EditedMorph87.png,020270right.gif,Stimuli/normal_thumbnails/87right.gif,,,,,0,0,0,0,0,3,3,86,,,,,,,,,,,,,,,,,,,,,,,74,4,1,320,1.915111108,-1.606969024,87,Experiment,,,,,,,,,42,120,-33,-33,,,,,,,,,,,,,,,355.4951538,356.1900541,355.4951538,356.1900541,55.10204082,1583518736,1583518741,4.533948183,1583518733,1583518736,,,AS,1,19,male,undergrad,2020_Mar_06_1014,AdjustEyeTrack,3.1.5,59.89881569
112,Stimuli/Morph112.JPG,Stimuli/Morph112.png,Stimuli/BlurLevel5/BlurEditedMorph112,Stimuli/BlurLevel5/BlurEditedMorph112.png,Stimuli/BlurLevel5/NumberedMorphs/BlurEditedMorph112.png,Stimuli/BlurLevel5/OriginalBlur/BlurEditedMorph112.png,Stimuli/BlurMorphTrio/EditedMorph112.png,None,None,,,,,0,0,0,0,0,4,4,111,,,,,,,,,,,,,,,,,,,,,,,85,5,1,341,2.363796439,-0.813920386,112,Experiment,,,,,,,,,65,106,6,6,,,,,,,,,,,,,,,363.3697586,364.0469158,363.3697586,364.0469158,91.83673469,1583518744,1583518746,1.600635052,1583518741,1583518744,,,AS,1,19,male,undergrad,2020_Mar_06_1014,AdjustEyeTrack,3.1.5,59.89881569
58,Stimuli/Morph58.JPG,Stimuli/Morph58.png,Stimuli/BlurLevel5/BlurEditedMorph58,Stimuli/BlurLevel5/BlurEditedMorph58.png,Stimuli/BlurLevel5/NumberedMorphs/BlurEditedMorph58.png,Stimuli/BlurLevel5/OriginalBlur/BlurEditedMorph58.png,Stimuli/BlurMorphTrio/EditedMorph58.png,010159right.gif,Stimuli/normal_thumbnails/58right.gif,,,,,0,0,0,0,0,5,5,57,,,,,,,,,,,,,,,,,,,,,,,74,6,1,0,2.5,0,58,Experiment,,,,,,,,,64,47,11,11,,,,,,,,,,,,,,,368.1939854,368.8980414,368.1939854,368.8980414,85.03401361,1583518749,1583518751,2.331220865,1583518746,1583518749,,,AS,1,19,male,undergrad,2020_Mar_06_1014,AdjustEyeTrack,3.1.5,59.89881569
108,Stimuli/Morph108.JPG,Stimuli/Morph108.png,Stimuli/BlurLevel5/BlurEditedMorph108,Stimuli/BlurLevel5/BlurEditedMorph108.png,Stimuli/BlurLevel5/NumberedMorphs/BlurEditedMorph108.png,Stimuli/BlurLevel5/OriginalBlur/BlurEditedMorph108.png,Stimuli/BlurMorphTrio/EditedMorph108.png,None,None,,,,,0,0,0,0,0,6,6,107,,,,,,,,,,,,,,,,,,,,,,,60,7,1,114,-1.016841608,2.283863644,108,Experiment,,,,,,,,,35,99,9,9,,,,,,,,,,,,,,,374.1551836,374.8633568,374.1551836,374.8633568,87.75510204,1583518755,1583518757,1.733696938,1583518752,1583518755,,,AS,1,19,male,undergrad,2020_Mar_06_1014,AdjustEyeTrack,3.1.5,59.89881569
96,Stimuli/Morph96.JPG,Stimuli/Morph96.png,Stimuli/BlurLevel5/BlurEditedMorph96,Stimuli/BlurLevel5/BlurEditedMorph96.png,Stimuli/BlurLevel5/NumberedMorphs/BlurEditedMorph96.png,Stimuli/BlurLevel5/OriginalBlur/BlurEditedMorph96.png,Stimuli/BlurMorphTrio/EditedMorph96.png,020292right.gif,Stimuli/normal_thumbnails/96right.gif,,,,,0,0,0,0,0,7,7,95,,,,,,,,,,,,,,,,,,,,,,,20,8,1,242,-1.173678907,-2.207368982,96,Experiment,,,,,,,,,96,107,-11,-11,,,,,,,,,,,,,,,379.384893,380.0799496,379.384893,380.0799496,85.03401361,1583518760,1583518761,1.07020402,1583518757,1583518760,,,AS,1,19,male,undergrad,2020_Mar_06_1014,AdjustEyeTrack,3.1.5,59.89881569
99,Stimuli/Morph99.JPG,Stimuli/Morph99.png,Stimuli/BlurLevel5/BlurEditedMorph99,Stimuli/BlurLevel5/BlurEditedMorph99.png,Stimuli/BlurLevel5/NumberedMorphs/BlurEditedMorph99.png,Stimuli/BlurLevel5/OriginalBlur/BlurEditedMorph99.png,Stimuli/BlurMorphTrio/EditedMorph99.png,020299right.gif,Stimuli/normal_thumbnails/99right.gif,,,,,0,0,0,0,0,8,8,98,,,,,,,,,,,,,,,,,,,,,,,78,9,1,141,-1.942864904,1.573300978,99,Experiment,,,,,,,,,132,107,-8,-8,,,,,,,,,,,,,,,383.7561086,384.4357965,383.7561086,384.4357965,89.11564626,1583518764,1583518768,3.319591045,1583518762,1583518764,,,AS,1,19,male,undergrad,2020_Mar_06_1014,AdjustEyeTrack,3.1.5,59.89881569
72,Stimuli/Morph72.JPG,Stimuli/Morph72.png,Stimuli/BlurLevel5/BlurEditedMorph72,Stimuli/BlurLevel5/BlurEditedMorph72.png,Stimuli/BlurLevel5/NumberedMorphs/BlurEditedMorph72.png,Stimuli/BlurLevel5/OriginalBlur/BlurEditedMorph72.png,Stimuli/BlurMorphTrio/EditedMorph72.png,020227right.gif,Stimuli/normal_thumbnails/72right.gif,,,,,0,0,0,0,0,9,9,71,,,,,,,,,,,,,,,,,,,,,,,29,10,1,227,-1.7049959,-1.828384254,72,Experiment,,,,,,,,,106,78,-6,-6,,,,,,,,,,,,,,,390.9604844,391.6646778,390.9604844,391.6646778,91.83673469,1583518772,1583518773,1.236195087,1583518768,1583518772,,,AS,1,19,male,undergrad,2020_Mar_06_1014,AdjustEyeTrack,3.1.5,59.89881569
107,Stimuli/Morph107.JPG,Stimuli/Morph107.png,Stimuli/BlurLevel5/BlurEditedMorph107,Stimuli/BlurLevel5/BlurEditedMorph107.png,Stimuli/BlurLevel5/NumberedMorphs/BlurEditedMorph107.png,Stimuli/BlurLevel5/OriginalBlur/BlurEditedMorph107.png,Stimuli/BlurMorphTrio/EditedMorph107.png,None,None,,,,,0,0,0,0,0,10,10,106,,,,,,,,,,,,,,,,,,,,,,,92,11,1,53,1.504537558,1.996588775,107,Experiment,,,,,,,,,125,106,1,1,,,,,,,,,,,,,,,396.2829248,397.0212468,396.2829248,397.0212468,98.63945578,1583518777,1583518780,3.269390106,1583518773,1583518777,,,AS,1,19,male,undergrad,2020_Mar_06_1014,AdjustEyeTrack,3.1.5,59.89881569
41,Stimuli/Morph41.JPG,Stimuli/Morph41.png,Stimuli/BlurLevel5/BlurEditedMorph41,Stimuli/BlurLevel5/BlurEditedMorph41.png,Stimuli/BlurLevel5/NumberedMorphs/BlurEditedMorph41.png,Stimuli/BlurLevel5/OriginalBlur/BlurEditedMorph41.png,Stimuli/BlurMorphTrio/EditedMorph41.png,010112right.gif,Stimuli/normal_thumbnails/41right.gif,,,,,0,0,0,0,0,11,11,40,,,,,,,,,,,,,,,,,,,,,,,58,12,1,266,-0.174391184,-2.493910126,41,Experiment,,,,,,,,,136,45,-4,-4,,,,,,,,,,,,,,,402.9765408,403.6735993,402.9765408,403.6735993,94.55782313,1583518784,1583518786,2.447034836,1583518781,1583518784,,,AS,1,19,male,undergrad,2020_Mar_06_1014,AdjustEyeTrack,3.1.5,59.89881569
21,Stimuli/Morph21.JPG,Stimuli/Morph21.png,Stimuli/BlurLevel5/BlurEditedMorph21,Stimuli/BlurLevel5/BlurEditedMorph21.png,Stimuli/BlurLevel5/NumberedMorphs/BlurEditedMorph21.png,Stimuli/BlurLevel5/OriginalBlur/BlurEditedMorph21.png,Stimuli/BlurMorphTrio/EditedMorph21.png,010049right.gif,Stimuli/normal_thumbnails/21right.gif,,,,,0,0,0,0,0,12,12,20,,,,,,,,,,,,,,,,,,,,,,,45,13,1,208,-2.207368982,-1.173678907,21,Experiment,,,,,,,,,119,16,5,5,,,,,,,,,,,,,,,409.2050861,409.8847563,409.2050861,409.8847563,93.19727891,1583518790,1583518793,2.786836863,1583518787,1583518790,,,AS,1,19,male,undergrad,2020_Mar_06_1014,AdjustEyeTrack,3.1.5,59.89881569
90,Stimuli/Morph90.JPG,Stimuli/Morph90.png,Stimuli/BlurLevel5/BlurEditedMorph90,Stimuli/BlurLevel5/BlurEditedMorph90.png,Stimuli/BlurLevel5/NumberedMorphs/BlurEditedMorph90.png,Stimuli/BlurLevel5/OriginalBlur/BlurEditedMorph90.png,Stimuli/BlurMorphTrio/EditedMorph90.png,020275right.gif,Stimuli/normal_thumbnails/90right.gif,,,,,0,0,0,0,0,13,13,89,,,,,,,,,,,,,,,,,,,,,,,100,14,1,248,-0.936516484,-2.317959636,90,Experiment,,,,,,,,,146,120,-30,-30,,,,,,,,,,,,,,,415.2990853,415.9845269,415.2990853,415.9845269,59.18367347,1583518796,1583518799,3.372159004,1583518793,1583518796,,,AS,1,19,male,undergrad,2020_Mar_06_1014,AdjustEyeTrack,3.1.5,59.89881569
28,Stimuli/Morph28.JPG,Stimuli/Morph28.png,Stimuli/BlurLevel5/BlurEditedMorph28,Stimuli/BlurLevel5/BlurEditedMorph28.png,Stimuli/BlurLevel5/NumberedMorphs/BlurEditedMorph28.png,Stimuli/BlurLevel5/OriginalBlur/BlurEditedMorph28.png,Stimuli/BlurMorphTrio/EditedMorph28.png,010073right.gif,Stimuli/normal_thumbnails/28right.gif,,,,,0,0,0,0,0,14,14,27,,,,,,,,,,,,,,,,,,,,,,,48,15,1,345,2.414814566,-0.647047613,28,Experiment,,,,,,,,,52,14,14,14,,,,,,,,,,,,,,,422.0859652,422.7716863,422.0859652,422.7716863,80.95238095,1583518803,1583518804,1.42119503,1583518800,1583518803,,,AS,1,19,male,undergrad,2020_Mar_06_1014,AdjustEyeTrack,3.1.5,59.89881569
119,Stimuli/Morph119.JPG,Stimuli/Morph119.png,Stimuli/BlurLevel5/BlurEditedMorph119,Stimuli/BlurLevel5/BlurEditedMorph119.png,Stimuli/BlurLevel5/NumberedMorphs/BlurEditedMorph119.png,Stimuli/BlurLevel5/OriginalBlur/BlurEditedMorph119.png,Stimuli/BlurMorphTrio/EditedMorph119.png,None,None,,,,,0,0,0,0,0,15,15,118,,,,,,,,,,,,,,,,,,,,,,,57,16,1,300,1.25,-2.165063509,119,Experiment,,,,,,,,,137,96,23,23,,,,,,,,,,,,,,,427.0539303,427.7731411,427.0539303,427.7731411,68.70748299,1583518808,1583518812,3.69885397,1583518805,1583518808,,,AS,1,19,male,undergrad,2020_Mar_06_1014,AdjustEyeTrack,3.1.5,59.89881569
93,Stimuli/Morph93.JPG,Stimuli/Morph93.png,Stimuli/BlurLevel5/BlurEditedMorph93,Stimuli/BlurLevel5/BlurEditedMorph93.png,Stimuli/BlurLevel5/NumberedMorphs/BlurEditedMorph93.png,Stimuli/BlurLevel5/OriginalBlur/BlurEditedMorph93.png,Stimuli/BlurMorphTrio/EditedMorph93.png,020280right.gif,Stimuli/normal_thumbnails/93right.gif,,,,,0,0,0,0,0,16,16,92,,,,,,,,,,,,,,,,,,,,,,,83,17,1,235,-1.433941091,-2.047880111,93,Experiment,,,,,,,,,145,50,43,43,,,,,,,,,,,,,,,434.4663935,435.1817411,434.4663935,435.1817411,41.49659864,1583518815,1583518816,1.250139952,1583518812,1583518815,,,AS,1,19,male,undergrad,2020_Mar_06_1014,AdjustEyeTrack,3.1.5,59.89881569
67,Stimuli/Morph67.JPG,Stimuli/Morph67.png,Stimuli/BlurLevel5/BlurEditedMorph67,Stimuli/BlurLevel5/BlurEditedMorph67.png,Stimuli/BlurLevel5/NumberedMorphs/BlurEditedMorph67.png,Stimuli/BlurLevel5/OriginalBlur/BlurEditedMorph67.png,Stimuli/BlurMorphTrio/EditedMorph67.png,020217right.gif,Stimuli/normal_thumbnails/67right.gif,,,,,0,0,0,0,0,17,17,66,,,,,,,,,,,,,,,,,,,,,,,51,18,1,285,0.647047613,-2.414814566,67,Experiment,,,,,,,,,31,48,19,19,,,,,,,,,,,,,,,439.4920337,440.1900483,439.4920337,440.1900483,74.14965986,1583518820,1583518824,4.146243095,1583518817,1583518820,,,AS,1,19,male,undergrad,2020_Mar_06_1014,AdjustEyeTrack,3.1.5,59.89881569
76,Stimuli/Morph76.JPG,Stimuli/Morph76.png,Stimuli/BlurLevel5/BlurEditedMorph76,Stimuli/BlurLevel5/BlurEditedMorph76.png,Stimuli/BlurLevel5/NumberedMorphs/BlurEditedMorph76.png,Stimuli/BlurLevel5/OriginalBlur/BlurEditedMorph76.png,Stimuli/BlurMorphTrio/EditedMorph76.png,020234right.gif,Stimuli/normal_thumbnails/76right.gif,,,,,0,0,0,0,0,18,18,75,,,,,,,,,,,,,,,,,,,,,,,49,19,1,344,2.40315424,-0.68909339,76,Experiment,,,,,,,,,107,65,11,11,,,,,,,,,,,,,,,447.1816158,447.9056984,447.1816158,447.9056984,85.03401361,1583518828,1583518832,4.070021868,1583518825,1583518828,,,AS,1,19,male,undergrad,2020_Mar_06_1014,AdjustEyeTrack,3.1.5,59.89881569
56,Stimuli/Morph56.JPG,Stimuli/Morph56.png,Stimuli/BlurLevel5/BlurEditedMorph56,Stimuli/BlurLevel5/BlurEditedMorph56.png,Stimuli/BlurLevel5/NumberedMorphs/BlurEditedMorph56.png,Stimuli/BlurLevel5/OriginalBlur/BlurEditedMorph56.png,Stimuli/BlurMorphTrio/EditedMorph56.png,010157right.gif,Stimuli/normal_thumbnails/56right.gif,,,,,0,0,0,0,0,19,19,55,,,,,,,,,,,,,,,,,,,,,,,28,20,1,26,2.246985116,1.095927867,56,Experiment,,,,,,,,,19,58,-2,-2,,,,,,,,,,,,,,,454.8883418,455.6027087,454.8883418,455.6027087,97.27891156,1583518836,1583518838,2.362293005,1583518833,1583518836,,,AS,1,19,male,undergrad,2020_Mar_06_1014,AdjustEyeTrack,3.1.5,59.89881569
77,Stimuli/Morph77.JPG,Stimuli/Morph77.png,Stimuli/BlurLevel5/BlurEditedMorph77,Stimuli/BlurLevel5/BlurEditedMorph77.png,Stimuli/BlurLevel5/NumberedMorphs/BlurEditedMorph77.png,Stimuli/BlurLevel5/OriginalBlur/BlurEditedMorph77.png,Stimuli/BlurMorphTrio/EditedMorph77.png,020235right.gif,Stimuli/normal_thumbnails/77right.gif,,,,,0,0,0,0,0,20,20,76,,,,,,,,,,,,,,,,,,,,,,,63,21,1,166,-2.425739316,0.604804739,77,Experiment,,,,,,,,,120,80,-3,-3,,,,,,,,,,,,,,,460.7566945,461.4453499,460.7566945,461.4453499,95.91836735,1583518842,1583518844,2.666627884,1583518839,1583518841,,,AS,1,19,male,undergrad,2020_Mar_06_1014,AdjustEyeTrack,3.1.5,59.89881569
62,Stimuli/Morph62.JPG,Stimuli/Morph62.png,Stimuli/BlurLevel5/BlurEditedMorph62,Stimuli/BlurLevel5/BlurEditedMorph62.png,Stimuli/BlurLevel5/NumberedMorphs/BlurEditedMorph62.png,Stimuli/BlurLevel5/OriginalBlur/BlurEditedMorph62.png,Stimuli/BlurMorphTrio/EditedMorph62.png,020205right.gif,Stimuli/normal_thumbnails/62right.gif,,,,,0,0,0,0,0,21,21,61,,,,,,,,,,,,,,,,,,,,,,,59,22,1,291,0.895919874,-2.333951066,62,Experiment,,,,,,,,,15,72,-10,-10,,,,,,,,,,,,,,,466.5307577,467.2215458,466.5307577,467.2215458,86.39455782,1583518847,1583518849,1.614892006,1583518845,1583518847,,,AS,1,19,male,undergrad,2020_Mar_06_1014,AdjustEyeTrack,3.1.5,59.89881569
130,Stimuli/Morph130.JPG,Stimuli/Morph130.png,Stimuli/BlurLevel5/BlurEditedMorph130,Stimuli/BlurLevel5/BlurEditedMorph130.png,Stimuli/BlurLevel5/NumberedMorphs/BlurEditedMorph130.png,Stimuli/BlurLevel5/OriginalBlur/BlurEditedMorph130.png,Stimuli/BlurMorphTrio/EditedMorph130.png,None,None,,,,,0,0,0,0,0,22,22,129,,,,,,,,,,,,,,,,,,,,,,,71,23,1,139,-1.886773951,1.640147572,130,Experiment,,,,,,,,,31,77,53,53,,,,,,,,,,,,,,,471.4439138,472.1213765,471.4439138,472.1213765,27.89115646,1583518852,1583518857,4.631659746,1583518849,1583518852,,,AS,1,19,male,undergrad,2020_Mar_06_1014,AdjustEyeTrack,3.1.5,59.89881569
7,Stimuli/Morph7.JPG,Stimuli/Morph7.png,Stimuli/BlurLevel5/BlurEditedMorph7,Stimuli/BlurLevel5/BlurEditedMorph7.png,Stimuli/BlurLevel5/NumberedMorphs/BlurEditedMorph7.png,Stimuli/BlurLevel5/OriginalBlur/BlurEditedMorph7.png,Stimuli/BlurMorphTrio/EditedMorph7.png,010013right.gif,Stimuli/normal_thumbnails/7right.gif,,,,,0,0,0,0,0,23,23,6,,,,,,,,,,,,,,,,,,,,,,,50,24,1,358,2.498477068,-0.087248742,7,Experiment,,,,,,,,,4,13,-6,-6,,,,,,,,,,,,,,,479.7390782,480.4366423,479.7390782,480.4366423,91.83673469,1583518860,1583518864,3.482847929,1583518857,1583518860,,,AS,1,19,male,undergrad,2020_Mar_06_1014,AdjustEyeTrack,3.1.5,59.89881569
120,Stimuli/Morph120.JPG,Stimuli/Morph120.png,Stimuli/BlurLevel5/BlurEditedMorph120,Stimuli/BlurLevel5/BlurEditedMorph120.png,Stimuli/BlurLevel5/NumberedMorphs/BlurEditedMorph120.png,Stimuli/BlurLevel5/OriginalBlur/BlurEditedMorph120.png,Stimuli/BlurMorphTrio/EditedMorph120.png,None,None,,,,,0,0,0,0,0,24,24,119,,,,,,,,,,,,,,,,,,,,,,,87,25,1,296,1.095927867,-2.246985116,120,Experiment,,,,,,,,,31,119,1,1,,,,,,,,,,,,,,,486.5654925,487.2784909,486.5654925,487.2784909,98.63945578,1583518867,1583518870,2.450196981,1583518864,1583518867,,,AS,1,19,male,undergrad,2020_Mar_06_1014,AdjustEyeTrack,3.1.5,59.89881569
79,Stimuli/Morph79.JPG,Stimuli/Morph79.png,Stimuli/BlurLevel5/BlurEditedMorph79,Stimuli/BlurLevel5/BlurEditedMorph79.png,Stimuli/BlurLevel5/NumberedMorphs/BlurEditedMorph79.png,Stimuli/BlurLevel5/OriginalBlur/BlurEditedMorph79.png,Stimuli/BlurMorphTrio/EditedMorph79.png,020239right.gif,Stimuli/normal_thumbnails/79right.gif,,,,,0,0,0,0,0,25,25,78,,,,,,,,,,,,,,,,,,,,,,,48,26,1,143,-1.996588775,1.504537558,79,Experiment,,,,,,,,,110,44,35,35,,,,,,,,,,,,,,,492.5179188,493.2008239,492.5179188,493.2008239,52.38095238,1583518873,1583518875,1.948466301,1583518870,1583518873,,,AS,1,19,male,undergrad,2020_Mar_06_1014,AdjustEyeTrack,3.1.5,59.89881569
1,Stimuli/Morph1.JPG,Stimuli/Morph1.png,Stimuli/BlurLevel5/BlurEditedMorph1,Stimuli/BlurLevel5/BlurEditedMorph1.png,Stimuli/BlurLevel5/NumberedMorphs/BlurEditedMorph1.png,Stimuli/BlurLevel5/OriginalBlur/BlurEditedMorph1.png,Stimuli/BlurMorphTrio/EditedMorph1.png,010003right.gif,Stimuli/normal_thumbnails/1right.gif,,,,,0,0,0,0,0,26,26,0,,,,,,,,,,,,,,,,,,,,,,,96,27,1,111,-0.895919874,2.333951066,1,Experiment,,,,,,,,,54,11,-10,-10,,,,,,,,,,,,,,,498.6944509,499.4198369,498.6944509,499.4198369,86.39455782,1583518879,1583518881,1.866398811,1583518876,1583518879,,,AS,1,19,male,undergrad,2020_Mar_06_1014,AdjustEyeTrack,3.1.5,59.89881569
11,Stimuli/Morph11.JPG,Stimuli/Morph11.png,Stimuli/BlurLevel5/BlurEditedMorph11,Stimuli/BlurLevel5/BlurEditedMorph11.png,Stimuli/BlurLevel5/NumberedMorphs/BlurEditedMorph11.png,Stimuli/BlurLevel5/OriginalBlur/BlurEditedMorph11.png,Stimuli/BlurMorphTrio/EditedMorph11.png,010024right.gif,Stimuli/normal_thumbnails/11right.gif,,,,,0,0,0,0,0,27,27,10,,,,,,,,,,,,,,,,,,,,,,,58,28,1,44,1.798349501,1.736645926,11,Experiment,,,,,,,,,104,12,-1,-1,,,,,,,,,,,,,,,504.0903155,504.7842781,504.0903155,504.7842781,98.63945578,1583518885,1583518887,2.252737999,1583518882,1583518885,,,AS,1,19,male,undergrad,2020_Mar_06_1014,AdjustEyeTrack,3.1.5,59.89881569
6,Stimuli/Morph6.JPG,Stimuli/Morph6.png,Stimuli/BlurLevel5/BlurEditedMorph6,Stimuli/BlurLevel5/BlurEditedMorph6.png,Stimuli/BlurLevel5/NumberedMorphs/BlurEditedMorph6.png,Stimuli/BlurLevel5/OriginalBlur/BlurEditedMorph6.png,Stimuli/BlurMorphTrio/EditedMorph6.png,010012right.gif,Stimuli/normal_thumbnails/6right.gif,,,,,0,0,0,0,0,28,28,5,,,,,,,,,,,,,,,,,,,,,,,83,29,1,49,1.640147572,1.886773951,6,Experiment,,,,,,,,,32,10,-4,-4,,,,,,,,,,,,,,,509.934499,510.6310348,509.934499,510.6310348,94.55782313,1583518891,1583518892,1.530785084,1583518888,1583518891,,,AS,1,19,male,undergrad,2020_Mar_06_1014,AdjustEyeTrack,3.1.5,59.89881569
17,Stimuli/Morph17.JPG,Stimuli/Morph17.png,Stimuli/BlurLevel5/BlurEditedMorph17,Stimuli/BlurLevel5/BlurEditedMorph17.png,Stimuli/BlurLevel5/NumberedMorphs/BlurEditedMorph17.png,Stimuli/BlurLevel5/OriginalBlur/BlurEditedMorph17.png,Stimuli/BlurMorphTrio/EditedMorph17.png,010036right.gif,Stimuli/normal_thumbnails/17right.gif,,,,,0,0,0,0,0,29,29,16,,,,,,,,,,,,,,,,,,,,,,,99,30,1,288,0.772542486,-2.377641291,17,Experiment,,,,,,,,,15,19,-2,-2,,,,,,,,,,,,,,,514.737774,515.4221089,514.737774,515.4221089,97.27891156,1583518895,1583518898,2.083300114,1583518893,1583518895,,,AS,1,19,male,undergrad,2020_Mar_06_1014,AdjustEyeTrack,3.1.5,59.89881569
122,Stimuli/Morph122.JPG,Stimuli/Morph122.png,Stimuli/BlurLevel5/BlurEditedMorph122,Stimuli/BlurLevel5/BlurEditedMorph122.png,Stimuli/BlurLevel5/NumberedMorphs/BlurEditedMorph122.png,Stimuli/BlurLevel5/OriginalBlur/BlurEditedMorph122.png,Stimuli/BlurMorphTrio/EditedMorph122.png,None,None,,,,,0,0,0,0,0,30,30,121,,,,,,,,,,,,,,,,,,,,,,,78,31,1,110,-0.855050358,2.349231552,122,Experiment,,,,,,,,,69,141,-19,-19,,,,,,,,,,,,,,,520.1297619,520.8048076,520.1297619,520.8048076,74.14965986,1583518901,1583518904,3.227575064,1583518898,1583518901,,,AS,1,19,male,undergrad,2020_Mar_06_1014,AdjustEyeTrack,3.1.5,59.89881569
47,Stimuli/Morph47.JPG,Stimuli/Morph47.png,Stimuli/BlurLevel5/BlurEditedMorph47,Stimuli/BlurLevel5/BlurEditedMorph47.png,Stimuli/BlurLevel5/NumberedMorphs/BlurEditedMorph47.png,Stimuli/BlurLevel5/OriginalBlur/BlurEditedMorph47.png,Stimuli/BlurMorphTrio/EditedMorph47.png,010130right.gif,Stimuli/normal_thumbnails/47right.gif,,,,,0,0,0,0,0,31,31,46,,,,,,,,,,,,,,,,,,,,,,,57,32,1,8,2.475670172,0.347932752,47,Experiment,,,,,,,,,53,57,-10,-10,,,,,,,,,,,,,,,526.8160957,527.5241506,526.8160957,527.5241506,86.39455782,1583518908,1583518910,2.799787998,1583518905,1583518908,,,AS,1,19,male,undergrad,2020_Mar_06_1014,AdjustEyeTrack,3.1.5,59.89881569
49,Stimuli/Morph49.JPG,Stimuli/Morph49.png,Stimuli/BlurLevel5/BlurEditedMorph49,Stimuli/BlurLevel5/BlurEditedMorph49.png,Stimuli/BlurLevel5/NumberedMorphs/BlurEditedMorph49.png,Stimuli/BlurLevel5/OriginalBlur/BlurEditedMorph49.png,Stimuli/BlurMorphTrio/EditedMorph49.png,010135right.gif,Stimuli/normal_thumbnails/49right.gif,,,,,0,0,0,0,0,32,32,48,,,,,,,,,,,,,,,,,,,,,,,5,33,1,111,-0.895919874,2.333951066,49,Experiment,,,,,,,,,55,50,-1,-1,,,,,,,,,,,,,,,532.9832191,533.6664214,532.9832191,533.6664214,98.63945578,1583518914,1583518916,2.750193119,1583518911,1583518914,,,AS,1,19,male,undergrad,2020_Mar_06_1014,AdjustEyeTrack,3.1.5,59.89881569
66,Stimuli/Morph66.JPG,Stimuli/Morph66.png,Stimuli/BlurLevel5/BlurEditedMorph66,Stimuli/BlurLevel5/BlurEditedMorph66.png,Stimuli/BlurLevel5/NumberedMorphs/BlurEditedMorph66.png,Stimuli/BlurLevel5/OriginalBlur/BlurEditedMorph66.png,Stimuli/BlurMorphTrio/EditedMorph66.png,020212right.gif,Stimuli/normal_thumbnails/66right.gif,,,,,0,0,0,0,0,33,33,65,,,,,,,,,,,,,,,,,,,,,,,67,34,1,14,2.425739316,0.604804739,66,Experiment,,,,,,,,,49,65,1,1,,,,,,,,,,,,,,,539.3143546,540.0218412,539.3143546,540.0218412,98.63945578,1583518920,1583518921,0.982327938,1583518917,1583518920,,,AS,1,19,male,undergrad,2020_Mar_06_1014,AdjustEyeTrack,3.1.5,59.89881569
26,Stimuli/Morph26.JPG,Stimuli/Morph26.png,Stimuli/BlurLevel5/BlurEditedMorph26,Stimuli/BlurLevel5/BlurEditedMorph26.png,Stimuli/BlurLevel5/NumberedMorphs/BlurEditedMorph26.png,Stimuli/BlurLevel5/OriginalBlur/BlurEditedMorph26.png,Stimuli/BlurMorphTrio/EditedMorph26.png,010070right.gif,Stimuli/normal_thumbnails/26right.gif,,,,,0,0,0,0,0,34,34,25,,,,,,,,,,,,,,,,,,,,,,,26,35,1,85,0.217889357,2.490486745,26,Experiment,,,,,,,,,22,22,4,4,,,,,,,,,,,,,,,543.6735714,544.3540188,543.6735714,544.3540188,94.55782313,1583518924,1583518926,1.982610226,1583518922,1583518924,,,AS,1,19,male,undergrad,2020_Mar_06_1014,AdjustEyeTrack,3.1.5,59.89881569
103,Stimuli/Morph103.JPG,Stimuli/Morph103.png,Stimuli/BlurLevel5/BlurEditedMorph103,Stimuli/BlurLevel5/BlurEditedMorph103.png,Stimuli/BlurLevel5/NumberedMorphs/BlurEditedMorph103.png,Stimuli/BlurLevel5/OriginalBlur/BlurEditedMorph103.png,Stimuli/BlurMorphTrio/EditedMorph103.png,None,None,,,,,0,0,0,0,0,35,35,102,,,,,,,,,,,,,,,,,,,,,,,32,36,1,179,-2.499619238,0.043631016,103,Experiment,,,,,,,,,139,86,17,17,,,,,,,,,,,,,,,549.3210051,550.0179543,549.3210051,550.0179543,76.8707483,1583518930,1583518932,2.348955154,1583518927,1583518930,,,AS,1,19,male,undergrad,2020_Mar_06_1014,AdjustEyeTrack,3.1.5,59.89881569
29,Stimuli/Morph29.JPG,Stimuli/Morph29.png,Stimuli/BlurLevel5/BlurEditedMorph29,Stimuli/BlurLevel5/BlurEditedMorph29.png,Stimuli/BlurLevel5/NumberedMorphs/BlurEditedMorph29.png,Stimuli/BlurLevel5/OriginalBlur/BlurEditedMorph29.png,Stimuli/BlurMorphTrio/EditedMorph29.png,010074right.gif,Stimuli/normal_thumbnails/29right.gif,,,,,0,0,0,0,0,36,36,28,,,,,,,,,,,,,,,,,,,,,,,44,37,1,35,2.047880111,1.433941091,29,Experiment,,,,,,,,,42,45,-16,-16,,,,,,,,,,,,,,,555.2339616,555.949518,555.2339616,555.949518,78.23129252,1583518936,1583518942,6.099768162,1583518933,1583518936,,,AS,1,19,male,undergrad,2020_Mar_06_1014,AdjustEyeTrack,3.1.5,59.89881569
9,Stimuli/Morph9.JPG,Stimuli/Morph9.png,Stimuli/BlurLevel5/BlurEditedMorph9,Stimuli/BlurLevel5/BlurEditedMorph9.png,Stimuli/BlurLevel5/NumberedMorphs/BlurEditedMorph9.png,Stimuli/BlurLevel5/OriginalBlur/BlurEditedMorph9.png,Stimuli/BlurMorphTrio/EditedMorph9.png,010015right.gif,Stimuli/normal_thumbnails/9right.gif,,,,,0,0,0,0,0,37,37,8,,,,,,,,,,,,,,,,,,,,,,,50,38,1,276,0.261321158,-2.486304738,9,Experiment,,,,,,,,,126,9,0,0,,,,,,,,,,,,,,,564.926749,565.6290126,564.926749,565.6290126,100,1583518946,1583518949,2.962579966,1583518943,1583518946,,,AS,1,19,male,undergrad,2020_Mar_06_1014,AdjustEyeTrack,3.1.5,59.89881569
91,Stimuli/Morph91.JPG,Stimuli/Morph91.png,Stimuli/BlurLevel5/BlurEditedMorph91,Stimuli/BlurLevel5/BlurEditedMorph91.png,Stimuli/BlurLevel5/NumberedMorphs/BlurEditedMorph91.png,Stimuli/BlurLevel5/OriginalBlur/BlurEditedMorph91.png,Stimuli/BlurMorphTrio/EditedMorph91.png,020276right.gif,Stimuli/normal_thumbnails/91right.gif,,,,,0,0,0,0,0,38,38,90,,,,,,,,,,,,,,,,,,,,,,,35,39,1,293,0.976827821,-2.301262134,91,Experiment,,,,,,,,,11,124,-33,-33,,,,,,,,,,,,,,,571.2023296,571.8857457,571.2023296,571.8857457,55.10204082,1583518952,1583518955,2.566553831,1583518949,1583518952,,,AS,1,19,male,undergrad,2020_Mar_06_1014,AdjustEyeTrack,3.1.5,59.89881569
88,Stimuli/Morph88.JPG,Stimuli/Morph88.png,Stimuli/BlurLevel5/BlurEditedMorph88,Stimuli/BlurLevel5/BlurEditedMorph88.png,Stimuli/BlurLevel5/NumberedMorphs/BlurEditedMorph88.png,Stimuli/BlurLevel5/OriginalBlur/BlurEditedMorph88.png,Stimuli/BlurMorphTrio/EditedMorph88.png,020271right.gif,Stimuli/normal_thumbnails/88right.gif,,,,,0,0,0,0,0,39,39,87,,,,,,,,,,,,,,,,,,,,,,,84,40,1,196,-2.40315424,-0.68909339,88,Experiment,,,,,,,,,14,110,-22,-22,,,,,,,,,,,,,,,577.2670911,577.9472812,577.2670911,577.9472812,70.06802721,1583518958,1583518960,2.014955997,1583518955,1583518958,,,AS,1,19,male,undergrad,2020_Mar_06_1014,AdjustEyeTrack,3.1.5,59.89881569
110,Stimuli/Morph110.JPG,Stimuli/Morph110.png,Stimuli/BlurLevel5/BlurEditedMorph110,Stimuli/BlurLevel5/BlurEditedMorph110.png,Stimuli/BlurLevel5/NumberedMorphs/BlurEditedMorph110.png,Stimuli/BlurLevel5/OriginalBlur/BlurEditedMorph110.png,Stimuli/BlurMorphTrio/EditedMorph110.png,None,None,,,,,0,0,0,0,0,40,40,109,,,,,,,,,,,,,,,,,,,,,,,71,41,1,341,2.363796439,-0.813920386,110,Experiment,,,,,,,,,75,106,4,4,,,,,,,,,,,,,,,582.5248508,583.2149376,582.5248508,583.2149376,94.55782313,1583518963,1583518965,1.785816193,1583518961,1583518963,,,AS,1,19,male,undergrad,2020_Mar_06_1014,AdjustEyeTrack,3.1.5,59.89881569
117,Stimuli/Morph117.JPG,Stimuli/Morph117.png,Stimuli/BlurLevel5/BlurEditedMorph117,Stimuli/BlurLevel5/BlurEditedMorph117.png,Stimuli/BlurLevel5/NumberedMorphs/BlurEditedMorph117.png,Stimuli/BlurLevel5/OriginalBlur/BlurEditedMorph117.png,Stimuli/BlurMorphTrio/EditedMorph117.png,None,None,,,,,0,0,0,0,0,41,41,116,,,,,,,,,,,,,,,,,,,,,,,43,42,1,198,-2.377641291,-0.772542486,117,Experiment,,,,,,,,,124,102,15,15,,,,,,,,,,,,,,,587.7024069,588.3887175,587.7024069,588.3887175,79.59183673,1583518968,1583518970,1.550366879,1583518966,1583518968,,,AS,1,19,male,undergrad,2020_Mar_06_1014,AdjustEyeTrack,3.1.5,59.89881569
40,Stimuli/Morph40.JPG,Stimuli/Morph40.png,Stimuli/BlurLevel5/BlurEditedMorph40,Stimuli/BlurLevel5/BlurEditedMorph40.png,Stimuli/BlurLevel5/NumberedMorphs/BlurEditedMorph40.png,Stimuli/BlurLevel5/OriginalBlur/BlurEditedMorph40.png,Stimuli/BlurMorphTrio/EditedMorph40.png,010110right.gif,Stimuli/normal_thumbnails/40right.gif,,,,,0,0,0,0,0,42,42,39,,,,,,,,,,,,,,,,,,,,,,,59,43,1,22,2.317959636,0.936516484,40,Experiment,,,,,,,,,45,52,-12,-12,,,,,,,,,,,,,,,592.5360518,593.2196735,592.5360518,593.2196735,83.67346939,1583518973,1583518975,1.432896137,1583518971,1583518973,,,AS,1,19,male,undergrad,2020_Mar_06_1014,AdjustEyeTrack,3.1.5,59.89881569
98,Stimuli/Morph98.JPG,Stimuli/Morph98.png,Stimuli/BlurLevel5/BlurEditedMorph98,Stimuli/BlurLevel5/BlurEditedMorph98.png,Stimuli/BlurLevel5/NumberedMorphs/BlurEditedMorph98.png,Stimuli/BlurLevel5/OriginalBlur/BlurEditedMorph98.png,Stimuli/BlurMorphTrio/EditedMorph98.png,020298right.gif,Stimuli/normal_thumbnails/98right.gif,,,,,0,0,0,0,0,43,43,97,,,,,,,,,,,,,,,,,,,,,,,59,44,1,10,2.462019383,0.434120444,98,Experiment,,,,,,,,,48,114,-16,-16,,,,,,,,,,,,,,,596.9305392,597.6438687,596.9305392,597.6438687,78.23129252,1583518978,1583518980,1.849338055,1583518975,1583518978,,,AS,1,19,male,undergrad,2020_Mar_06_1014,AdjustEyeTrack,3.1.5,59.89881569
100,Stimuli/Morph100.JPG,Stimuli/Morph100.png,Stimuli/BlurLevel5/BlurEditedMorph100,Stimuli/BlurLevel5/BlurEditedMorph100.png,Stimuli/BlurLevel5/NumberedMorphs/BlurEditedMorph100.png,Stimuli/BlurLevel5/OriginalBlur/BlurEditedMorph100.png,Stimuli/BlurMorphTrio/EditedMorph100.png,020297right.gif,Stimuli/normal_thumbnails/100right.gif,,,,,0,0,0,0,0,44,44,99,,,,,,,,,,,,,,,,,,,,,,,50,45,1,84,0.261321158,2.486304738,100,Experiment,,,,,,,,,145,105,-5,-5,,,,,,,,,,,,,,,602.2848122,602.9854846,602.2848122,602.9854846,93.19727891,1583518983,1583518984,1.200107098,1583518980,1583518983,,,AS,1,19,male,undergrad,2020_Mar_06_1014,AdjustEyeTrack,3.1.5,59.89881569
54,Stimuli/Morph54.JPG,Stimuli/Morph54.png,Stimuli/BlurLevel5/BlurEditedMorph54,Stimuli/BlurLevel5/BlurEditedMorph54.png,Stimuli/BlurLevel5/NumberedMorphs/BlurEditedMorph54.png,Stimuli/BlurLevel5/OriginalBlur/BlurEditedMorph54.png,Stimuli/BlurMorphTrio/EditedMorph54.png,010150right.gif,Stimuli/normal_thumbnails/54right.gif,,,,,0,0,0,0,0,45,45,53,,,,,,,,,,,,,,,,,,,,,,,4,46,1,3,2.496573837,0.130839891,54,Experiment,,,,,,,,,86,47,7,7,,,,,,,,,,,,,,,607.0320478,607.7612797,607.0320478,607.7612797,90.47619048,1583518988,1583518990,2.247817993,1583518985,1583518988,,,AS,1,19,male,undergrad,2020_Mar_06_1014,AdjustEyeTrack,3.1.5,59.89881569
121,Stimuli/Morph121.JPG,Stimuli/Morph121.png,Stimuli/BlurLevel5/BlurEditedMorph121,Stimuli/BlurLevel5/BlurEditedMorph121.png,Stimuli/BlurLevel5/NumberedMorphs/BlurEditedMorph121.png,Stimuli/BlurLevel5/OriginalBlur/BlurEditedMorph121.png,Stimuli/BlurMorphTrio/EditedMorph121.png,None,None,,,,,0,0,0,0,0,46,46,120,,,,,,,,,,,,,,,,,,,,,,,21,47,1,345,2.414814566,-0.647047613,121,Experiment,,,,,,,,,64,115,6,6,,,,,,,,,,,,,,,612.663081,613.3715966,612.663081,613.3715966,91.83673469,1583518993,1583518995,1.999655962,1583518991,1583518993,,,AS,1,19,male,undergrad,2020_Mar_06_1014,AdjustEyeTrack,3.1.5,59.89881569
104,Stimuli/Morph104.JPG,Stimuli/Morph104.png,Stimuli/BlurLevel5/BlurEditedMorph104,Stimuli/BlurLevel5/BlurEditedMorph104.png,Stimuli/BlurLevel5/NumberedMorphs/BlurEditedMorph104.png,Stimuli/BlurLevel5/OriginalBlur/BlurEditedMorph104.png,Stimuli/BlurMorphTrio/EditedMorph104.png,None,None,,,,,0,0,0,0,0,47,47,103,,,,,,,,,,,,,,,,,,,,,,,90,48,1,8,2.475670172,0.347932752,104,Experiment,,,,,,,,,134,107,-3,-3,,,,,,,,,,,,,,,617.9454663,618.6606762,617.9454663,618.6606762,95.91836735,1583518999,1583519000,0.850451946,1583518996,1583518999,,,AS,1,19,male,undergrad,2020_Mar_06_1014,AdjustEyeTrack,3.1.5,59.89881569
106,Stimuli/Morph106.JPG,Stimuli/Morph106.png,Stimuli/BlurLevel5/BlurEditedMorph106,Stimuli/BlurLevel5/BlurEditedMorph106.png,Stimuli/BlurLevel5/NumberedMorphs/BlurEditedMorph106.png,Stimuli/BlurLevel5/OriginalBlur/BlurEditedMorph106.png,Stimuli/BlurMorphTrio/EditedMorph106.png,None,None,,,,,0,0,0,0,0,48,48,105,,,,,,,,,,,,,,,,,,,,,,,100,49,1,249,-0.895919874,-2.333951066,106,Experiment,,,,,,,,,103,96,10,10,,,,,,,,,,,,,,,622.1373691,622.8503348,622.1373691,622.8503348,86.39455782,1583519003,1583519004,0.732576132,1583519000,1583519003,,,AS,1,19,male,undergrad,2020_Mar_06_1014,AdjustEyeTrack,3.1.5,59.89881569
127,Stimuli/Morph127.JPG,Stimuli/Morph127.png,Stimuli/BlurLevel5/BlurEditedMorph127,Stimuli/BlurLevel5/BlurEditedMorph127.png,Stimuli/BlurLevel5/NumberedMorphs/BlurEditedMorph127.png,Stimuli/BlurLevel5/OriginalBlur/BlurEditedMorph127.png,Stimuli/BlurMorphTrio/EditedMorph127.png,None,None,,,,,0,0,0,0,0,49,49,126,,,,,,,,,,,,,,,,,,,,,,,43,50,1,117,-1.134976249,2.22751631,127,Experiment,,,,,,,,,28,110,17,17,,,,,,,,,,,,,,,626.228228,626.9204662,626.228228,626.9204662,76.8707483,1583519007,1583519010,2.74801302,1583519004,1583519007,,,AS,1,19,male,undergrad,2020_Mar_06_1014,AdjustEyeTrack,3.1.5,59.89881569
140,Stimuli/Morph140.JPG,Stimuli/Morph140.png,Stimuli/BlurLevel5/BlurEditedMorph140,Stimuli/BlurLevel5/BlurEditedMorph140.png,Stimuli/BlurLevel5/NumberedMorphs/BlurEditedMorph140.png,Stimuli/BlurLevel5/OriginalBlur/BlurEditedMorph140.png,Stimuli/BlurMorphTrio/EditedMorph140.png,None,None,,,,,0,0,0,0,0,50,50,139,,,,,,,,,,,,,,,,,,,,,,,41,51,1,156,-2.283863644,1.016841608,140,Experiment,,,,,,,,,2,117,23,23,,,,,,,,,,,,,,,632.3524728,633.0598905,632.3524728,633.0598905,68.70748299,1583519013,1583519014,1.212297916,1583519010,1583519013,,,AS,1,19,male,undergrad,2020_Mar_06_1014,AdjustEyeTrack,3.1.5,59.89881569
129,Stimuli/Morph129.JPG,Stimuli/Morph129.png,Stimuli/BlurLevel5/BlurEditedMorph129,Stimuli/BlurLevel5/BlurEditedMorph129.png,Stimuli/BlurLevel5/NumberedMorphs/BlurEditedMorph129.png,Stimuli/BlurLevel5/OriginalBlur/BlurEditedMorph129.png,Stimuli/BlurMorphTrio/EditedMorph129.png,None,None,,,,,0,0,0,0,0,51,51,128,,,,,,,,,,,,,,,,,,,,,,,16,52,1,357,2.496573837,-0.130839891,129,Experiment,,,,,,,,,21,21,108,-39,,,,,,,,,,,,,,,637.013592,637.7336726,637.013592,637.7336726,46.93877551,1583519018,1583519019,1.40076685,1583519015,1583519018,,,AS,1,19,male,undergrad,2020_Mar_06_1014,AdjustEyeTrack,3.1.5,59.89881569
102,Stimuli/Morph102.JPG,Stimuli/Morph102.png,Stimuli/BlurLevel5/BlurEditedMorph102,Stimuli/BlurLevel5/BlurEditedMorph102.png,Stimuli/BlurLevel5/NumberedMorphs/BlurEditedMorph102.png,Stimuli/BlurLevel5/OriginalBlur/BlurEditedMorph102.png,Stimuli/BlurMorphTrio/EditedMorph102.png,None,None,,,,,0,0,0,0,0,52,52,101,,,,,,,,,,,,,,,,,,,,,,,68,53,1,290,0.855050358,-2.349231552,102,Experiment,,,,,,,,,136,112,-10,-10,,,,,,,,,,,,,,,641.771548,642.4850778,641.771548,642.4850778,86.39455782,1583519023,1583519024,1.049936771,1583519020,1583519023,,,AS,1,19,male,undergrad,2020_Mar_06_1014,AdjustEyeTrack,3.1.5,59.89881569
114,Stimuli/Morph114.JPG,Stimuli/Morph114.png,Stimuli/BlurLevel5/BlurEditedMorph114,Stimuli/BlurLevel5/BlurEditedMorph114.png,Stimuli/BlurLevel5/NumberedMorphs/BlurEditedMorph114.png,Stimuli/BlurLevel5/OriginalBlur/BlurEditedMorph114.png,Stimuli/BlurMorphTrio/EditedMorph114.png,None,None,,,,,0,0,0,0,0,53,53,113,,,,,,,,,,,,,,,,,,,,,,,36,54,1,246,-1.016841608,-2.283863644,114,Experiment,,,,,,,,,90,90,24,24,,,,,,,,,,,,,,,646.317072,647.0389954,646.317072,647.0389954,67.34693878,1583519027,1583519028,1.317634821,1583519024,1583519027,,,AS,1,19,male,undergrad,2020_Mar_06_1014,AdjustEyeTrack,3.1.5,59.89881569
2,Stimuli/Morph2.JPG,Stimuli/Morph2.png,Stimuli/BlurLevel5/BlurEditedMorph2,Stimuli/BlurLevel5/BlurEditedMorph2.png,Stimuli/BlurLevel5/NumberedMorphs/BlurEditedMorph2.png,Stimuli/BlurLevel5/OriginalBlur/BlurEditedMorph2.png,Stimuli/BlurMorphTrio/EditedMorph2.png,010006right.gif,Stimuli/normal_thumbnails/2right.gif,,,,,0,0,0,0,0,54,54,1,,,,,,,,,,,,,,,,,,,,,,,11,55,1,164,-2.40315424,0.68909339,2,Experiment,,,,,,,,,131,142,-140,7,,,,,,,,,,,,,,,651.3395352,652.0965496,651.3395352,652.0965496,90.47619048,1583519032,1583519036,3.682478905,1583519029,1583519032,,,AS,1,19,male,undergrad,2020_Mar_06_1014,AdjustEyeTrack,3.1.5,59.89881569
30,Stimuli/Morph30.JPG,Stimuli/Morph30.png,Stimuli/BlurLevel5/BlurEditedMorph30,Stimuli/BlurLevel5/BlurEditedMorph30.png,Stimuli/BlurLevel5/NumberedMorphs/BlurEditedMorph30.png,Stimuli/BlurLevel5/OriginalBlur/BlurEditedMorph30.png,Stimuli/BlurMorphTrio/EditedMorph30.png,010076right.gif,Stimuli/normal_thumbnails/30right.gif,,,,,0,0,0,0,0,55,55,29,,,,,,,,,,,,,,,,,,,,,,,66,56,1,285,0.647047613,-2.414814566,30,Experiment,,,,,,,,,104,23,7,7,,,,,,,,,,,,,,,658.3533936,659.0646709,658.3533936,659.0646709,90.47619048,1583519039,1583519042,2.895929098,1583519036,1583519039,,,AS,1,19,male,undergrad,2020_Mar_06_1014,AdjustEyeTrack,3.1.5,59.89881569
128,Stimuli/Morph128.JPG,Stimuli/Morph128.png,Stimuli/BlurLevel5/BlurEditedMorph128,Stimuli/BlurLevel5/BlurEditedMorph128.png,Stimuli/BlurLevel5/NumberedMorphs/BlurEditedMorph128.png,Stimuli/BlurLevel5/OriginalBlur/BlurEditedMorph128.png,Stimuli/BlurMorphTrio/EditedMorph128.png,None,None,,,,,0,0,0,0,0,56,56,127,,,,,,,,,,,,,,,,,,,,,,,15,57,1,88,0.087248742,2.498477068,128,Experiment,,,,,,,,,14,106,22,22,,,,,,,,,,,,,,,664.5717709,665.3039939,664.5717709,665.3039939,70.06802721,1583519045,1583519047,1.766569376,1583519043,1583519045,,,AS,1,19,male,undergrad,2020_Mar_06_1014,AdjustEyeTrack,3.1.5,59.89881569
81,Stimuli/Morph81.JPG,Stimuli/Morph81.png,Stimuli/BlurLevel5/BlurEditedMorph81,Stimuli/BlurLevel5/BlurEditedMorph81.png,Stimuli/BlurLevel5/NumberedMorphs/BlurEditedMorph81.png,Stimuli/BlurLevel5/OriginalBlur/BlurEditedMorph81.png,Stimuli/BlurMorphTrio/EditedMorph81.png,020245right.gif,Stimuli/normal_thumbnails/81right.gif,,,,,0,0,0,0,0,57,57,80,,,,,,,,,,,,,,,,,,,,,,,69,58,1,28,2.207368982,1.173678907,81,Experiment,,,,,,,,,7,71,10,10,,,,,,,,,,,,,,,669.9836721,670.7398874,669.9836721,670.7398874,86.39455782,1583519051,1583519053,2.083772182,1583519048,1583519051,,,AS,1,19,male,undergrad,2020_Mar_06_1014,AdjustEyeTrack,3.1.5,59.89881569
115,Stimuli/Morph115.JPG,Stimuli/Morph115.png,Stimuli/BlurLevel5/BlurEditedMorph115,Stimuli/BlurLevel5/BlurEditedMorph115.png,Stimuli/BlurLevel5/NumberedMorphs/BlurEditedMorph115.png,Stimuli/BlurLevel5/OriginalBlur/BlurEditedMorph115.png,Stimuli/BlurMorphTrio/EditedMorph115.png,None,None,,,,,0,0,0,0,0,58,58,114,,,,,,,,,,,,,,,,,,,,,,,24,59,1,227,-1.7049959,-1.828384254,115,Experiment,,,,,,,,,92,92,23,23,,,,,,,,,,,,,,,675.5206255,676.2340783,675.5206255,676.2340783,68.70748299,1583519056,1583519057,0.782171011,1583519053,1583519056,,,AS,1,19,male,undergrad,2020_Mar_06_1014,AdjustEyeTrack,3.1.5,59.89881569
8,Stimuli/Morph8.JPG,Stimuli/Morph8.png,Stimuli/BlurLevel5/BlurEditedMorph8,Stimuli/BlurLevel5/BlurEditedMorph8.png,Stimuli/BlurLevel5/NumberedMorphs/BlurEditedMorph8.png,Stimuli/BlurLevel5/OriginalBlur/BlurEditedMorph8.png,Stimuli/BlurMorphTrio/EditedMorph8.png,010014right.gif,Stimuli/normal_thumbnails/8right.gif,,,,,0,0,0,0,0,59,59,7,,,,,,,,,,,,,,,,,,,,,,,87,60,1,171,-2.469220851,0.391086163,8,Experiment,,,,,,,,,80,7,1,1,,,,,,,,,,,,,,,679.6713343,680.3844368,679.6713343,680.3844368,98.63945578,1583519060,1583519064,3.266658068,1583519058,1583519060,,,AS,1,19,male,undergrad,2020_Mar_06_1014,AdjustEyeTrack,3.1.5,59.89881569
19,Stimuli/Morph19.JPG,Stimuli/Morph19.png,Stimuli/BlurLevel5/BlurEditedMorph19,Stimuli/BlurLevel5/BlurEditedMorph19.png,Stimuli/BlurLevel5/NumberedMorphs/BlurEditedMorph19.png,Stimuli/BlurLevel5/OriginalBlur/BlurEditedMorph19.png,Stimuli/BlurMorphTrio/EditedMorph19.png,010045right.gif,Stimuli/normal_thumbnails/19right.gif,,,,,0,0,0,0,0,60,60,18,,,,,,,,,,,,,,,,,,,,,,,82,61,1,17,2.39076189,0.730929262,19,Experiment,,,,,,,,,63,5,14,14,,,,,,,,,,,,,,,686.2959513,687.0236281,686.2959513,687.0236281,80.95238095,1583519067,1583519072,4.68184495,1583519064,1583519067,,,AS,1,19,male,undergrad,2020_Mar_06_1014,AdjustEyeTrack,3.1.5,59.89881569
105,Stimuli/Morph105.JPG,Stimuli/Morph105.png,Stimuli/BlurLevel5/BlurEditedMorph105,Stimuli/BlurLevel5/BlurEditedMorph105.png,Stimuli/BlurLevel5/NumberedMorphs/BlurEditedMorph105.png,Stimuli/BlurLevel5/OriginalBlur/BlurEditedMorph105.png,Stimuli/BlurMorphTrio/EditedMorph105.png,None,None,,,,,0,0,0,0,0,61,61,104,,,,,,,,,,,,,,,,,,,,,,,42,62,1,291,0.895919874,-2.333951066,105,Experiment,,,,,,,,,49,114,-9,-9,,,,,,,,,,,,,,,694.6476802,695.3820485,694.6476802,695.3820485,87.75510204,1583519076,1583519077,1.66245389,1583519072,1583519075,,,AS,1,19,male,undergrad,2020_Mar_06_1014,AdjustEyeTrack,3.1.5,59.89881569
118,Stimuli/Morph118.JPG,Stimuli/Morph118.png,Stimuli/BlurLevel5/BlurEditedMorph118,Stimuli/BlurLevel5/BlurEditedMorph118.png,Stimuli/BlurLevel5/NumberedMorphs/BlurEditedMorph118.png,Stimuli/BlurLevel5/OriginalBlur/BlurEditedMorph118.png,Stimuli/BlurMorphTrio/EditedMorph118.png,None,None,,,,,0,0,0,0,0,62,62,117,,,,,,,,,,,,,,,,,,,,,,,27,63,1,74,0.68909339,2.40315424,118,Experiment,,,,,,,,,101,106,12,12,,,,,,,,,,,,,,,699.8586108,700.5754828,699.8586108,700.5754828,83.67346939,1583519081,1583519083,2.074903011,1583519078,1583519081,,,AS,1,19,male,undergrad,2020_Mar_06_1014,AdjustEyeTrack,3.1.5,59.89881569
45,Stimuli/Morph45.JPG,Stimuli/Morph45.png,Stimuli/BlurLevel5/BlurEditedMorph45,Stimuli/BlurLevel5/BlurEditedMorph45.png,Stimuli/BlurLevel5/NumberedMorphs/BlurEditedMorph45.png,Stimuli/BlurLevel5/OriginalBlur/BlurEditedMorph45.png,Stimuli/BlurMorphTrio/EditedMorph45.png,010127right.gif,Stimuli/normal_thumbnails/45right.gif,,,,,0,0,0,0,0,63,63,44,,,,,,,,,,,,,,,,,,,,,,,35,64,1,294,1.016841608,-2.283863644,45,Experiment,,,,,,,,,63,56,-11,-11,,,,,,,,,,,,,,,705.3222454,706.0433528,705.3222454,706.0433528,85.03401361,1583519086,1583519088,1.666981697,1583519083,1583519086,,,AS,1,19,male,undergrad,2020_Mar_06_1014,AdjustEyeTrack,3.1.5,59.89881569
20,Stimuli/Morph20.JPG,Stimuli/Morph20.png,Stimuli/BlurLevel5/BlurEditedMorph20,Stimuli/BlurLevel5/BlurEditedMorph20.png,Stimuli/BlurLevel5/NumberedMorphs/BlurEditedMorph20.png,Stimuli/BlurLevel5/OriginalBlur/BlurEditedMorph20.png,Stimuli/BlurMorphTrio/EditedMorph20.png,010046right.gif,Stimuli/normal_thumbnails/20right.gif,,,,,0,0,0,0,0,64,64,19,,,,,,,,,,,,,,,,,,,,,,,31,65,1,123,-1.361597588,2.09667642,20,Experiment,,,,,,,,,72,15,5,5,,,,,,,,,,,,,,,710.4584177,711.1783246,710.4584177,711.1783246,93.19727891,1583519091,1583519093,1.611822844,1583519088,1583519091,,,AS,1,19,male,undergrad,2020_Mar_06_1014,AdjustEyeTrack,3.1.5,59.89881569
34,Stimuli/Morph34.JPG,Stimuli/Morph34.png,Stimuli/BlurLevel5/BlurEditedMorph34,Stimuli/BlurLevel5/BlurEditedMorph34.png,Stimuli/BlurLevel5/NumberedMorphs/BlurEditedMorph34.png,Stimuli/BlurLevel5/OriginalBlur/BlurEditedMorph34.png,Stimuli/BlurMorphTrio/EditedMorph34.png,010090right.gif,Stimuli/normal_thumbnails/34right.gif,,,,,0,0,0,0,0,65,65,33,,,,,,,,,,,,,,,,,,,,,,,55,66,1,332,2.207368982,-1.173678907,34,Experiment,,,,,,,,,92,22,12,12,,,,,,,,,,,,,,,715.4296227,716.1518991,715.4296227,716.1518991,83.67346939,1583519096,1583519098,2.12181592,1583519093,1583519096,,,AS,1,19,male,undergrad,2020_Mar_06_1014,AdjustEyeTrack,3.1.5,59.89881569
138,Stimuli/Morph138.JPG,Stimuli/Morph138.png,Stimuli/BlurLevel5/BlurEditedMorph138,Stimuli/BlurLevel5/BlurEditedMorph138.png,Stimuli/BlurLevel5/NumberedMorphs/BlurEditedMorph138.png,Stimuli/BlurLevel5/OriginalBlur/BlurEditedMorph138.png,Stimuli/BlurMorphTrio/EditedMorph138.png,None,None,,,,,0,0,0,0,0,66,66,137,,,,,,,,,,,,,,,,,,,,,,,48,67,1,111,-0.895919874,2.333951066,138,Experiment,,,,,,,,,56,142,-4,-4,,,,,,,,,,,,,,,720.9322697,721.6496577,720.9322697,721.6496577,94.55782313,1583519102,1583519103,1.51465416,1583519099,1583519102,,,AS,1,19,male,undergrad,2020_Mar_06_1014,AdjustEyeTrack,3.1.5,59.89881569
82,Stimuli/Morph82.JPG,Stimuli/Morph82.png,Stimuli/BlurLevel5/BlurEditedMorph82,Stimuli/BlurLevel5/BlurEditedMorph82.png,Stimuli/BlurLevel5/NumberedMorphs/BlurEditedMorph82.png,Stimuli/BlurLevel5/OriginalBlur/BlurEditedMorph82.png,Stimuli/BlurMorphTrio/EditedMorph82.png,020247right.gif,Stimuli/normal_thumbnails/82right.gif,,,,,0,0,0,0,0,67,67,81,,,,,,,,,,,,,,,,,,,,,,,99,68,1,59,1.287595187,2.142918252,82,Experiment,,,,,,,,,21,115,-33,-33,,,,,,,,,,,,,,,725.671696,726.375303,725.671696,726.375303,55.10204082,1583519106,1583519109,2.473460913,1583519104,1583519106,,,AS,1,19,male,undergrad,2020_Mar_06_1014,AdjustEyeTrack,3.1.5,59.89881569
147,Stimuli/Morph147.JPG,Stimuli/Morph147.png,Stimuli/BlurLevel5/BlurEditedMorph147,Stimuli/BlurLevel5/BlurEditedMorph147.png,Stimuli/BlurLevel5/NumberedMorphs/BlurEditedMorph147.png,Stimuli/BlurLevel5/OriginalBlur/BlurEditedMorph147.png,Stimuli/BlurMorphTrio/EditedMorph147.png,None,None,,,,,0,0,0,0,0,68,68,146,,,,,,,,,,,,,,,,,,,,,,,80,69,1,247,-0.976827821,-2.301262134,147,Experiment,,,,,,,,,87,6,141,-6,,,,,,,,,,,,,,,731.4141814,732.1278403,731.4141814,732.1278403,91.83673469,1583519112,1583519114,1.949839115,1583519109,1583519112,,,AS,1,19,male,undergrad,2020_Mar_06_1014,AdjustEyeTrack,3.1.5,59.89881569
59,Stimuli/Morph59.JPG,Stimuli/Morph59.png,Stimuli/BlurLevel5/BlurEditedMorph59,Stimuli/BlurLevel5/BlurEditedMorph59.png,Stimuli/BlurLevel5/NumberedMorphs/BlurEditedMorph59.png,Stimuli/BlurLevel5/OriginalBlur/BlurEditedMorph59.png,Stimuli/BlurMorphTrio/EditedMorph59.png,010160right.gif,Stimuli/normal_thumbnails/59right.gif,,,,,0,0,0,0,0,69,69,58,,,,,,,,,,,,,,,,,,,,,,,26,70,1,101,-0.477022488,2.454067959,59,Experiment,,,,,,,,,29,64,-5,-5,,,,,,,,,,,,,,,736.6645628,737.3655303,736.6645628,737.3655303,93.19727891,1583519117,1583519119,1.249390125,1583519115,1583519117,,,AS,1,19,male,undergrad,2020_Mar_06_1014,AdjustEyeTrack,3.1.5,59.89881569
43,Stimuli/Morph43.JPG,Stimuli/Morph43.png,Stimuli/BlurLevel5/BlurEditedMorph43,Stimuli/BlurLevel5/BlurEditedMorph43.png,Stimuli/BlurLevel5/NumberedMorphs/BlurEditedMorph43.png,Stimuli/BlurLevel5/OriginalBlur/BlurEditedMorph43.png,Stimuli/BlurMorphTrio/EditedMorph43.png,010124right.gif,Stimuli/normal_thumbnails/43right.gif,,,,,0,0,0,0,0,70,70,42,,,,,,,,,,,,,,,,,,,,,,,38,71,1,60,1.25,2.165063509,43,Experiment,,,,,,,,,54,57,-14,-14,,,,,,,,,,,,,,,741.3153273,742.0774129,741.3153273,742.0774129,80.95238095,1583519122,1583519123,0.91639185,1583519119,1583519122,,,AS,1,19,male,undergrad,2020_Mar_06_1014,AdjustEyeTrack,3.1.5,59.89881569
78,Stimuli/Morph78.JPG,Stimuli/Morph78.png,Stimuli/BlurLevel5/BlurEditedMorph78,Stimuli/BlurLevel5/BlurEditedMorph78.png,Stimuli/BlurLevel5/NumberedMorphs/BlurEditedMorph78.png,Stimuli/BlurLevel5/OriginalBlur/BlurEditedMorph78.png,Stimuli/BlurMorphTrio/EditedMorph78.png,020238right.gif,Stimuli/normal_thumbnails/78right.gif,,,,,0,0,0,0,0,71,71,77,,,,,,,,,,,,,,,,,,,,,,,21,72,1,273,0.130839891,-2.496573837,78,Experiment,,,,,,,,,4,98,-20,-20,,,,,,,,,,,,,,,745.5978365,746.3098186,745.5978365,746.3098186,72.78911565,1583519126,1583519128,1.215703964,1583519124,1583519126,,,AS,1,19,male,undergrad,2020_Mar_06_1014,AdjustEyeTrack,3.1.5,59.89881569
31,Stimuli/Morph31.JPG,Stimuli/Morph31.png,Stimuli/BlurLevel5/BlurEditedMorph31,Stimuli/BlurLevel5/BlurEditedMorph31.png,Stimuli/BlurLevel5/NumberedMorphs/BlurEditedMorph31.png,Stimuli/BlurLevel5/OriginalBlur/BlurEditedMorph31.png,Stimuli/BlurMorphTrio/EditedMorph31.png,010079right.gif,Stimuli/normal_thumbnails/31right.gif,,,,,0,0,0,0,0,72,72,30,,,,,,,,,,,,,,,,,,,,,,,94,73,1,66,1.016841608,2.283863644,31,Experiment,,,,,,,,,47,40,-9,-9,,,,,,,,,,,,,,,750.4451873,751.1653694,750.4451873,751.1653694,87.75510204,1583519131,1583519134,2.963205814,1583519128,1583519131,,,AS,1,19,male,undergrad,2020_Mar_06_1014,AdjustEyeTrack,3.1.5,59.89881569
68,Stimuli/Morph68.JPG,Stimuli/Morph68.png,Stimuli/BlurLevel5/BlurEditedMorph68,Stimuli/BlurLevel5/BlurEditedMorph68.png,Stimuli/BlurLevel5/NumberedMorphs/BlurEditedMorph68.png,Stimuli/BlurLevel5/OriginalBlur/BlurEditedMorph68.png,Stimuli/BlurMorphTrio/EditedMorph68.png,020218right.gif,Stimuli/normal_thumbnails/68right.gif,,,,,0,0,0,0,0,73,73,67,,,,,,,,,,,,,,,,,,,,,,,20,74,1,129,-1.573300978,1.942864904,68,Experiment,,,,,,,,,43,59,9,9,,,,,,,,,,,,,,,756.7897536,757.5084862,756.7897536,757.5084862,87.75510204,1583519138,1583519138,0.771311045,1583519135,1583519138,,,AS,1,19,male,undergrad,2020_Mar_06_1014,AdjustEyeTrack,3.1.5,59.89881569
50,Stimuli/Morph50.JPG,Stimuli/Morph50.png,Stimuli/BlurLevel5/BlurEditedMorph50,Stimuli/BlurLevel5/BlurEditedMorph50.png,Stimuli/BlurLevel5/NumberedMorphs/BlurEditedMorph50.png,Stimuli/BlurLevel5/OriginalBlur/BlurEditedMorph50.png,Stimuli/BlurMorphTrio/EditedMorph50.png,010142right.gif,Stimuli/normal_thumbnails/50right.gif,,,,,0,0,0,0,0,74,74,49,,,,,,,,,,,,,,,,,,,,,,,59,75,1,338,2.317959636,-0.936516484,50,Experiment,,,,,,,,,85,39,11,11,,,,,,,,,,,,,,,760.7401704,761.4450767,760.7401704,761.4450767,85.03401361,1583519142,1583519144,2.332807302,1583519139,1583519142,,,AS,1,19,male,undergrad,2020_Mar_06_1014,AdjustEyeTrack,3.1.5,59.89881569
135,Stimuli/Morph135.JPG,Stimuli/Morph135.png,Stimuli/BlurLevel5/BlurEditedMorph135,Stimuli/BlurLevel5/BlurEditedMorph135.png,Stimuli/BlurLevel5/NumberedMorphs/BlurEditedMorph135.png,Stimuli/BlurLevel5/OriginalBlur/BlurEditedMorph135.png,Stimuli/BlurMorphTrio/EditedMorph135.png,None,None,,,,,0,0,0,0,0,75,75,134,,,,,,,,,,,,,,,,,,,,,,,21,76,1,182,-2.498477068,-0.087248742,135,Experiment,,,,,,,,,123,4,131,-16,,,,,,,,,,,,,,,766.2826928,766.9830428,766.2826928,766.9830428,78.23129252,1583519147,1583519148,0.833825111,1583519144,1583519147,,,AS,1,19,male,undergrad,2020_Mar_06_1014,AdjustEyeTrack,3.1.5,59.89881569
4,Stimuli/Morph4.JPG,Stimuli/Morph4.png,Stimuli/BlurLevel5/BlurEditedMorph4,Stimuli/BlurLevel5/BlurEditedMorph4.png,Stimuli/BlurLevel5/NumberedMorphs/BlurEditedMorph4.png,Stimuli/BlurLevel5/OriginalBlur/BlurEditedMorph4.png,Stimuli/BlurMorphTrio/EditedMorph4.png,010010right.gif,Stimuli/normal_thumbnails/4right.gif,,,,,0,0,0,0,0,76,76,3,,,,,,,,,,,,,,,,,,,,,,,73,77,1,274,0.174391184,-2.493910126,4,Experiment,,,,,,,,,42,7,-3,-3,,,,,,,,,,,,,,,770.4226639,771.1355417,770.4226639,771.1355417,95.91836735,1583519151,1583519152,1.151007891,1583519148,1583519151,,,AS,1,19,male,undergrad,2020_Mar_06_1014,AdjustEyeTrack,3.1.5,59.89881569
27,Stimuli/Morph27.JPG,Stimuli/Morph27.png,Stimuli/BlurLevel5/BlurEditedMorph27,Stimuli/BlurLevel5/BlurEditedMorph27.png,Stimuli/BlurLevel5/NumberedMorphs/BlurEditedMorph27.png,Stimuli/BlurLevel5/OriginalBlur/BlurEditedMorph27.png,Stimuli/BlurMorphTrio/EditedMorph27.png,010072right.gif,Stimuli/normal_thumbnails/27right.gif,,,,,0,0,0,0,0,77,77,26,,,,,,,,,,,,,,,,,,,,,,,39,78,1,148,-2.12012024,1.324798161,27,Experiment,,,,,,,,,100,12,15,15,,,,,,,,,,,,,,,775.0650635,775.7405021,775.0650635,775.7405021,79.59183673,1583519156,1583519158,2.200869799,1583519153,1583519156,,,AS,1,19,male,undergrad,2020_Mar_06_1014,AdjustEyeTrack,3.1.5,59.89881569
44,Stimuli/Morph44.JPG,Stimuli/Morph44.png,Stimuli/BlurLevel5/BlurEditedMorph44,Stimuli/BlurLevel5/BlurEditedMorph44.png,Stimuli/BlurLevel5/NumberedMorphs/BlurEditedMorph44.png,Stimuli/BlurLevel5/OriginalBlur/BlurEditedMorph44.png,Stimuli/BlurMorphTrio/EditedMorph44.png,010126right.gif,Stimuli/normal_thumbnails/44right.gif,,,,,0,0,0,0,0,78,78,43,,,,,,,,,,,,,,,,,,,,,,,8,79,1,350,2.462019383,-0.434120444,44,Experiment,,,,,,,,,79,58,-14,-14,,,,,,,,,,,,,,,780.398201,781.1203284,780.398201,781.1203284,80.95238095,1583519161,1583519164,2.696332932,1583519158,1583519161,,,AS,1,19,male,undergrad,2020_Mar_06_1014,AdjustEyeTrack,3.1.5,59.89881569
109,Stimuli/Morph109.JPG,Stimuli/Morph109.png,Stimuli/BlurLevel5/BlurEditedMorph109,Stimuli/BlurLevel5/BlurEditedMorph109.png,Stimuli/BlurLevel5/NumberedMorphs/BlurEditedMorph109.png,Stimuli/BlurLevel5/OriginalBlur/BlurEditedMorph109.png,Stimuli/BlurMorphTrio/EditedMorph109.png,None,None,,,,,0,0,0,0,0,79,79,108,,,,,,,,,,,,,,,,,,,,,,,42,80,1,6,2.486304738,0.261321158,109,Experiment,,,,,,,,,48,124,-15,-15,,,,,,,,,,,,,,,786.7618485,787.5078706,786.7618485,787.5078706,79.59183673,1583519168,1583519169,1.813960075,1583519164,1583519168,,,AS,1,19,male,undergrad,2020_Mar_06_1014,AdjustEyeTrack,3.1.5,59.89881569
80,Stimuli/Morph80.JPG,Stimuli/Morph80.png,Stimuli/BlurLevel5/BlurEditedMorph80,Stimuli/BlurLevel5/BlurEditedMorph80.png,Stimuli/BlurLevel5/NumberedMorphs/BlurEditedMorph80.png,Stimuli/BlurLevel5/OriginalBlur/BlurEditedMorph80.png,Stimuli/BlurMorphTrio/EditedMorph80.png,020240right.gif,Stimuli/normal_thumbnails/80right.gif,,,,,0,0,0,0,0,80,80,79,,,,,,,,,,,,,,,,,,,,,,,11,81,1,148,-2.12012024,1.324798161,80,Experiment,,,,,,,,,36,106,-26,-26,,,,,,,,,,,,,,,792.331928,793.0576498,792.331928,793.0576498,64.62585034,1583519173,1583519175,2.017326832,1583519170,1583519173,,,AS,1,19,male,undergrad,2020_Mar_06_1014,AdjustEyeTrack,3.1.5,59.89881569
61,Stimuli/Morph61.JPG,Stimuli/Morph61.png,Stimuli/BlurLevel5/BlurEditedMorph61,Stimuli/BlurLevel5/BlurEditedMorph61.png,Stimuli/BlurLevel5/NumberedMorphs/BlurEditedMorph61.png,Stimuli/BlurLevel5/OriginalBlur/BlurEditedMorph61.png,Stimuli/BlurMorphTrio/EditedMorph61.png,020201right.gif,Stimuli/normal_thumbnails/61right.gif,,,,,0,0,0,0,0,81,81,60,,,,,,,,,,,,,,,,,,,,,,,10,82,1,336,2.283863644,-1.016841608,61,Experiment,,,,,,,,,105,42,19,19,,,,,,,,,,,,,,,797.7975882,798.5276518,797.7975882,798.5276518,74.14965986,1583519179,1583519181,1.982762098,1583519176,1583519179,,,AS,1,19,male,undergrad,2020_Mar_06_1014,AdjustEyeTrack,3.1.5,59.89881569
39,Stimuli/Morph39.JPG,Stimuli/Morph39.png,Stimuli/BlurLevel5/BlurEditedMorph39,Stimuli/BlurLevel5/BlurEditedMorph39.png,Stimuli/BlurLevel5/NumberedMorphs/BlurEditedMorph39.png,Stimuli/BlurLevel5/OriginalBlur/BlurEditedMorph39.png,Stimuli/BlurMorphTrio/EditedMorph39.png,010109right.gif,Stimuli/normal_thumbnails/39right.gif,,,,,0,0,0,0,0,82,82,38,,,,,,,,,,,,,,,,,,,,,,,36,83,1,172,-2.475670172,0.347932752,39,Experiment,,,,,,,,,122,43,-4,-4,,,,,,,,,,,,,,,803.3615747,804.074653,803.3615747,804.074653,94.55782313,1583519184,1583519187,3.001119375,1583519181,1583519184,,,AS,1,19,male,undergrad,2020_Mar_06_1014,AdjustEyeTrack,3.1.5,59.89881569
133,Stimuli/Morph133.JPG,Stimuli/Morph133.png,Stimuli/BlurLevel5/BlurEditedMorph133,Stimuli/BlurLevel5/BlurEditedMorph133.png,Stimuli/BlurLevel5/NumberedMorphs/BlurEditedMorph133.png,Stimuli/BlurLevel5/OriginalBlur/BlurEditedMorph133.png,Stimuli/BlurMorphTrio/EditedMorph133.png,None,None,,,,,0,0,0,0,0,83,83,132,,,,,,,,,,,,,,,,,,,,,,,9,84,1,251,-0.813920386,-2.363796439,133,Experiment,,,,,,,,,130,118,15,15,,,,,,,,,,,,,,,809.5123259,810.2102448,809.5123259,810.2102448,79.59183673,1583519190,1583519191,0.996084929,1583519188,1583519190,,,AS,1,19,male,undergrad,2020_Mar_06_1014,AdjustEyeTrack,3.1.5,59.89881569
141,Stimuli/Morph141.JPG,Stimuli/Morph141.png,Stimuli/BlurLevel5/BlurEditedMorph141,Stimuli/BlurLevel5/BlurEditedMorph141.png,Stimuli/BlurLevel5/NumberedMorphs/BlurEditedMorph141.png,Stimuli/BlurLevel5/OriginalBlur/BlurEditedMorph141.png,Stimuli/BlurMorphTrio/EditedMorph141.png,None,None,,,,,0,0,0,0,0,84,84,140,,,,,,,,,,,,,,,,,,,,,,,88,85,1,134,-1.736645926,1.798349501,141,Experiment,,,,,,,,,15,1,140,-7,,,,,,,,,,,,,,,813.9103856,814.6408692,813.9103856,814.6408692,90.47619048,1583519195,1583519197,2.198225737,1583519192,1583519195,,,AS,1,19,male,undergrad,2020_Mar_06_1014,AdjustEyeTrack,3.1.5,59.89881569
137,Stimuli/Morph137.JPG,Stimuli/Morph137.png,Stimuli/BlurLevel5/BlurEditedMorph137,Stimuli/BlurLevel5/BlurEditedMorph137.png,Stimuli/BlurLevel5/NumberedMorphs/BlurEditedMorph137.png,Stimuli/BlurLevel5/OriginalBlur/BlurEditedMorph137.png,Stimuli/BlurMorphTrio/EditedMorph137.png,None,None,,,,,1,0,1,0,0,0,0,136,,,,,,,,,,,,,,,,,,,,,,,49,1,2,109,-0.813920386,2.363796439,137,Experiment,,,,,,,,,82,13,124,-23,,,,,,,,,,,,,,,843.9856322,844.6849843,843.9856322,844.6849843,68.70748299,1583519225,1583519228,2.828783989,1583519222,1583519225,space,23.71536223,AS,1,19,male,undergrad,2020_Mar_06_1014,AdjustEyeTrack,3.1.5,59.89881569
146,Stimuli/Morph146.JPG,Stimuli/Morph146.png,Stimuli/BlurLevel5/BlurEditedMorph146,Stimuli/BlurLevel5/BlurEditedMorph146.png,Stimuli/BlurLevel5/NumberedMorphs/BlurEditedMorph146.png,Stimuli/BlurLevel5/OriginalBlur/BlurEditedMorph146.png,Stimuli/BlurMorphTrio/EditedMorph146.png,None,None,,,,,1,0,1,0,0,1,1,145,,,,,,,,,,,,,,,,,,,,,,,5,2,2,134,-1.736645926,1.798349501,146,Experiment,,,,,,,,,6,3,143,-4,,,,,,,,,,,,,,,850.1083091,850.7930833,850.1083091,850.7930833,94.55782313,1583519231,1583519232,1.267493725,1583519228,1583519231,,,AS,1,19,male,undergrad,2020_Mar_06_1014,AdjustEyeTrack,3.1.5,59.89881569
64,Stimuli/Morph64.JPG,Stimuli/Morph64.png,Stimuli/BlurLevel5/BlurEditedMorph64,Stimuli/BlurLevel5/BlurEditedMorph64.png,Stimuli/BlurLevel5/NumberedMorphs/BlurEditedMorph64.png,Stimuli/BlurLevel5/OriginalBlur/BlurEditedMorph64.png,Stimuli/BlurMorphTrio/EditedMorph64.png,020208right.gif,Stimuli/normal_thumbnails/64right.gif,,,,,1,0,1,0,0,2,2,63,,,,,,,,,,,,,,,,,,,,,,,87,3,2,300,1.25,-2.165063509,64,Experiment,,,,,,,,,81,49,15,15,,,,,,,,,,,,,,,854.6994544,855.3908799,854.6994544,855.3908799,79.59183673,1583519235,1583519237,1.732939959,1583519233,1583519235,,,AS,1,19,male,undergrad,2020_Mar_06_1014,AdjustEyeTrack,3.1.5,59.89881569
147,Stimuli/Morph147.JPG,Stimuli/Morph147.png,Stimuli/BlurLevel5/BlurEditedMorph147,Stimuli/BlurLevel5/BlurEditedMorph147.png,Stimuli/BlurLevel5/NumberedMorphs/BlurEditedMorph147.png,Stimuli/BlurLevel5/OriginalBlur/BlurEditedMorph147.png,Stimuli/BlurMorphTrio/EditedMorph147.png,None,None,,,,,1,0,1,0,0,3,3,146,,,,,,,,,,,,,,,,,,,,,,,1,4,2,213,-2.09667642,-1.361597588,147,Experiment,,,,,,,,,3,5,142,-5,,,,,,,,,,,,,,,859.1741066,859.8174969,859.1741066,859.8174969,93.19727891,1583519240,1583519241,0.999503851,1583519238,1583519240,,,AS,1,19,male,undergrad,2020_Mar_06_1014,AdjustEyeTrack,3.1.5,59.89881569
36,Stimuli/Morph36.JPG,Stimuli/Morph36.png,Stimuli/BlurLevel5/BlurEditedMorph36,Stimuli/BlurLevel5/BlurEditedMorph36.png,Stimuli/BlurLevel5/NumberedMorphs/BlurEditedMorph36.png,Stimuli/BlurLevel5/OriginalBlur/BlurEditedMorph36.png,Stimuli/BlurMorphTrio/EditedMorph36.png,010095right.gif,Stimuli/normal_thumbnails/36right.gif,,,,,1,0,1,0,0,4,4,35,,,,,,,,,,,,,,,,,,,,,,,69,5,2,307,1.504537558,-1.996588775,36,Experiment,,,,,,,,,118,2,34,34,,,,,,,,,,,,,,,863.6006722,864.3325099,863.6006722,864.3325099,53.7414966,1583519244,1583519247,2.846840143,1583519241,1583519244,,,AS,1,19,male,undergrad,2020_Mar_06_1014,AdjustEyeTrack,3.1.5,59.89881569
83,Stimuli/Morph83.JPG,Stimuli/Morph83.png,Stimuli/BlurLevel5/BlurEditedMorph83,Stimuli/BlurLevel5/BlurEditedMorph83.png,Stimuli/BlurLevel5/NumberedMorphs/BlurEditedMorph83.png,Stimuli/BlurLevel5/OriginalBlur/BlurEditedMorph83.png,Stimuli/BlurMorphTrio/EditedMorph83.png,020259right.gif,Stimuli/normal_thumbnails/83right.gif,,,,,1,0,1,0,0,5,5,82,,,,,,,,,,,,,,,,,,,,,,,14,6,2,108,-0.772542486,2.377641291,83,Experiment,,,,,,,,,4,96,-13,-13,,,,,,,,,,,,,,,869.9586366,870.6732346,869.9586366,870.6732346,82.31292517,1583519251,1583519253,2.067304134,1583519248,1583519251,,,AS,1,19,male,undergrad,2020_Mar_06_1014,AdjustEyeTrack,3.1.5,59.89881569
44,Stimuli/Morph44.JPG,Stimuli/Morph44.png,Stimuli/BlurLevel5/BlurEditedMorph44,Stimuli/BlurLevel5/BlurEditedMorph44.png,Stimuli/BlurLevel5/NumberedMorphs/BlurEditedMorph44.png,Stimuli/BlurLevel5/OriginalBlur/BlurEditedMorph44.png,Stimuli/BlurMorphTrio/EditedMorph44.png,010126right.gif,Stimuli/normal_thumbnails/44right.gif,,,,,1,0,1,0,0,6,6,43,,,,,,,,,,,,,,,,,,,,,,,32,7,2,17,2.39076189,0.730929262,44,Experiment,,,,,,,,,140,52,-8,-8,,,,,,,,,,,,,,,875.612101,876.3223674,875.612101,876.3223674,89.11564626,1583519256,1583519258,1.566498756,1583519253,1583519256,,,AS,1,19,male,undergrad,2020_Mar_06_1014,AdjustEyeTrack,3.1.5,59.89881569
133,Stimuli/Morph133.JPG,Stimuli/Morph133.png,Stimuli/BlurLevel5/BlurEditedMorph133,Stimuli/BlurLevel5/BlurEditedMorph133.png,Stimuli/BlurLevel5/NumberedMorphs/BlurEditedMorph133.png,Stimuli/BlurLevel5/OriginalBlur/BlurEditedMorph133.png,Stimuli/BlurMorphTrio/EditedMorph133.png,None,None,,,,,1,0,1,0,0,7,7,132,,,,,,,,,,,,,,,,,,,,,,,54,8,2,299,1.212024051,-2.186549268,133,Experiment,,,,,,,,,6,113,20,20,,,,,,,,,,,,,,,880.512699,881.2239464,880.512699,881.2239464,72.78911565,1583519261,1583519262,0.998491287,1583519259,1583519261,,,AS,1,19,male,undergrad,2020_Mar_06_1014,AdjustEyeTrack,3.1.5,59.89881569
31,Stimuli/Morph31.JPG,Stimuli/Morph31.png,Stimuli/BlurLevel5/BlurEditedMorph31,Stimuli/BlurLevel5/BlurEditedMorph31.png,Stimuli/BlurLevel5/NumberedMorphs/BlurEditedMorph31.png,Stimuli/BlurLevel5/OriginalBlur/BlurEditedMorph31.png,Stimuli/BlurMorphTrio/EditedMorph31.png,010079right.gif,Stimuli/normal_thumbnails/31right.gif,,,,,1,0,1,0,0,8,8,30,,,,,,,,,,,,,,,,,,,,,,,60,9,2,127,-1.504537558,1.996588775,31,Experiment,,,,,,,,,29,55,-24,-24,,,,,,,,,,,,,,,885.1238874,885.841812,885.1238874,885.841812,67.34693878,1583519266,1583519267,0.866564035,1583519263,1583519266,,,AS,1,19,male,undergrad,2020_Mar_06_1014,AdjustEyeTrack,3.1.5,59.89881569
55,Stimuli/Morph55.JPG,Stimuli/Morph55.png,Stimuli/BlurLevel5/BlurEditedMorph55,Stimuli/BlurLevel5/BlurEditedMorph55.png,Stimuli/BlurLevel5/NumberedMorphs/BlurEditedMorph55.png,Stimuli/BlurLevel5/OriginalBlur/BlurEditedMorph55.png,Stimuli/BlurMorphTrio/EditedMorph55.png,010151right.gif,Stimuli/normal_thumbnails/55right.gif,,,,,1,0,1,0,0,9,9,54,,,,,,,,,,,,,,,,,,,,,,,50,10,2,244,-1.095927867,-2.246985116,55,Experiment,,,,,,,,,72,48,7,7,,,,,,,,,,,,,,,889.4112576,890.124738,889.4112576,890.124738,90.47619048,1583519270,1583519273,2.351018906,1583519267,1583519270,,,AS,1,19,male,undergrad,2020_Mar_06_1014,AdjustEyeTrack,3.1.5,59.89881569
145,Stimuli/Morph145.JPG,Stimuli/Morph145.png,Stimuli/BlurLevel5/BlurEditedMorph145,Stimuli/BlurLevel5/BlurEditedMorph145.png,Stimuli/BlurLevel5/NumberedMorphs/BlurEditedMorph145.png,Stimuli/BlurLevel5/OriginalBlur/BlurEditedMorph145.png,Stimuli/BlurMorphTrio/EditedMorph145.png,None,None,,,,,1,0,1,0,0,10,10,144,,,,,,,,,,,,,,,,,,,,,,,36,11,2,189,-2.469220851,-0.391086163,145,Experiment,,,,,,,,,82,19,126,-21,,,,,,,,,,,,,,,895.2866745,895.9993558,895.2866745,895.9993558,71.42857143,1583519276,1583519277,1.381525278,1583519273,1583519276,,,AS,1,19,male,undergrad,2020_Mar_06_1014,AdjustEyeTrack,3.1.5,59.89881569
102,Stimuli/Morph102.JPG,Stimuli/Morph102.png,Stimuli/BlurLevel5/BlurEditedMorph102,Stimuli/BlurLevel5/BlurEditedMorph102.png,Stimuli/BlurLevel5/NumberedMorphs/BlurEditedMorph102.png,Stimuli/BlurLevel5/OriginalBlur/BlurEditedMorph102.png,Stimuli/BlurMorphTrio/EditedMorph102.png,None,None,,,,,1,0,1,0,0,11,11,101,,,,,,,,,,,,,,,,,,,,,,,22,12,2,133,-1.7049959,1.828384254,102,Experiment,,,,,,,,,41,110,-8,-8,,,,,,,,,,,,,,,900.0408823,900.7585117,900.0408823,900.7585117,89.11564626,1583519281,1583519282,1.482734919,1583519278,1583519281,,,AS,1,19,male,undergrad,2020_Mar_06_1014,AdjustEyeTrack,3.1.5,59.89881569
16,Stimuli/Morph16.JPG,Stimuli/Morph16.png,Stimuli/BlurLevel5/BlurEditedMorph16,Stimuli/BlurLevel5/BlurEditedMorph16.png,Stimuli/BlurLevel5/NumberedMorphs/BlurEditedMorph16.png,Stimuli/BlurLevel5/OriginalBlur/BlurEditedMorph16.png,Stimuli/BlurMorphTrio/EditedMorph16.png,010034right.gif,Stimuli/normal_thumbnails/16right.gif,,,,,1,0,1,0,0,12,12,15,,,,,,,,,,,,,,,,,,,,,,,98,13,2,173,-2.481365379,0.304673359,16,Experiment,,,,,,,,,78,131,-115,32,,,,,,,,,,,,,,,905.0496974,905.7623906,905.0496974,905.7623906,56.46258503,1583519286,1583519287,1.510939121,1583519283,1583519286,,,AS,1,19,male,undergrad,2020_Mar_06_1014,AdjustEyeTrack,3.1.5,59.89881569
93,Stimuli/Morph93.JPG,Stimuli/Morph93.png,Stimuli/BlurLevel5/BlurEditedMorph93,Stimuli/BlurLevel5/BlurEditedMorph93.png,Stimuli/BlurLevel5/NumberedMorphs/BlurEditedMorph93.png,Stimuli/BlurLevel5/OriginalBlur/BlurEditedMorph93.png,Stimuli/BlurMorphTrio/EditedMorph93.png,020280right.gif,Stimuli/normal_thumbnails/93right.gif,,,,,1,0,1,0,0,13,13,92,,,,,,,,,,,,,,,,,,,,,,,34,14,2,41,1.886773951,1.640147572,93,Experiment,,,,,,,,,70,119,-26,-26,,,,,,,,,,,,,,,910.1969395,910.9308824,910.1969395,910.9308824,64.62585034,1583519291,1583519293,2.117635965,1583519288,1583519291,,,AS,1,19,male,undergrad,2020_Mar_06_1014,AdjustEyeTrack,3.1.5,59.89881569
61,Stimuli/Morph61.JPG,Stimuli/Morph61.png,Stimuli/BlurLevel5/BlurEditedMorph61,Stimuli/BlurLevel5/BlurEditedMorph61.png,Stimuli/BlurLevel5/NumberedMorphs/BlurEditedMorph61.png,Stimuli/BlurLevel5/OriginalBlur/BlurEditedMorph61.png,Stimuli/BlurMorphTrio/EditedMorph61.png,020201right.gif,Stimuli/normal_thumbnails/61right.gif,,,,,1,0,1,0,0,14,14,60,,,,,,,,,,,,,,,,,,,,,,,51,15,2,80,0.434120444,2.462019383,61,Experiment,,,,,,,,,117,122,-61,-61,,,,,,,,,,,,,,,915.9074999,916.6179744,915.9074999,916.6179744,17.00680272,1583519297,1583519297,0.572776794,1583519294,1583519297,,,AS,1,19,male,undergrad,2020_Mar_06_1014,AdjustEyeTrack,3.1.5,59.89881569
19,Stimuli/Morph19.JPG,Stimuli/Morph19.png,Stimuli/BlurLevel5/BlurEditedMorph19,Stimuli/BlurLevel5/BlurEditedMorph19.png,Stimuli/BlurLevel5/NumberedMorphs/BlurEditedMorph19.png,Stimuli/BlurLevel5/OriginalBlur/BlurEditedMorph19.png,Stimuli/BlurMorphTrio/EditedMorph19.png,010045right.gif,Stimuli/normal_thumbnails/19right.gif,,,,,1,0,1,0,0,15,15,18,,,,,,,,,,,,,,,,,,,,,,,84,16,2,330,2.165063509,-1.25,19,Experiment,,,,,,,,,120,8,11,11,,,,,,,,,,,,,,,919.8097429,920.5061943,919.8097429,920.5061943,85.03401361,1583519301,1583519303,2.683834076,1583519298,1583519301,,,AS,1,19,male,undergrad,2020_Mar_06_1014,AdjustEyeTrack,3.1.5,59.89881569
71,Stimuli/Morph71.JPG,Stimuli/Morph71.png,Stimuli/BlurLevel5/BlurEditedMorph71,Stimuli/BlurLevel5/BlurEditedMorph71.png,Stimuli/BlurLevel5/NumberedMorphs/BlurEditedMorph71.png,Stimuli/BlurLevel5/OriginalBlur/BlurEditedMorph71.png,Stimuli/BlurMorphTrio/EditedMorph71.png,020225right.gif,Stimuli/normal_thumbnails/71right.gif,,,,,1,0,1,0,0,16,16,70,,,,,,,,,,,,,,,,,,,,,,,6,17,2,46,1.736645926,1.798349501,71,Experiment,,,,,,,,,99,41,30,30,,,,,,,,,,,,,,,926.0714771,926.8088835,926.0714771,926.8088835,59.18367347,1583519307,1583519309,1.950208187,1583519304,1583519307,,,AS,1,19,male,undergrad,2020_Mar_06_1014,AdjustEyeTrack,3.1.5,59.89881569
68,Stimuli/Morph68.JPG,Stimuli/Morph68.png,Stimuli/BlurLevel5/BlurEditedMorph68,Stimuli/BlurLevel5/BlurEditedMorph68.png,Stimuli/BlurLevel5/NumberedMorphs/BlurEditedMorph68.png,Stimuli/BlurLevel5/OriginalBlur/BlurEditedMorph68.png,Stimuli/BlurMorphTrio/EditedMorph68.png,020218right.gif,Stimuli/normal_thumbnails/68right.gif,,,,,1,0,1,0,0,17,17,67,,,,,,,,,,,,,,,,,,,,,,,2,18,2,25,2.265769468,1.056545654,68,Experiment,,,,,,,,,54,71,-3,-3,,,,,,,,,,,,,,,931.381171,932.0918693,931.381171,932.0918693,95.91836735,1583519312,1583519315,2.450055122,1583519309,1583519312,,,AS,1,19,male,undergrad,2020_Mar_06_1014,AdjustEyeTrack,3.1.5,59.89881569
92,Stimuli/Morph92.JPG,Stimuli/Morph92.png,Stimuli/BlurLevel5/BlurEditedMorph92,Stimuli/BlurLevel5/BlurEditedMorph92.png,Stimuli/BlurLevel5/NumberedMorphs/BlurEditedMorph92.png,Stimuli/BlurLevel5/OriginalBlur/BlurEditedMorph92.png,Stimuli/BlurMorphTrio/EditedMorph92.png,020277right.gif,Stimuli/normal_thumbnails/92right.gif,,,,,1,0,1,0,0,18,18,91,,,,,,,,,,,,,,,,,,,,,,,31,19,2,287,0.730929262,-2.39076189,92,Experiment,,,,,,,,,13,104,-12,-12,,,,,,,,,,,,,,,937.2766288,937.9982092,937.2766288,937.9982092,83.67346939,1583519318,1583519320,1.466368198,1583519315,1583519318,,,AS,1,19,male,undergrad,2020_Mar_06_1014,AdjustEyeTrack,3.1.5,59.89881569
25,Stimuli/Morph25.JPG,Stimuli/Morph25.png,Stimuli/BlurLevel5/BlurEditedMorph25,Stimuli/BlurLevel5/BlurEditedMorph25.png,Stimuli/BlurLevel5/NumberedMorphs/BlurEditedMorph25.png,Stimuli/BlurLevel5/OriginalBlur/BlurEditedMorph25.png,Stimuli/BlurMorphTrio/EditedMorph25.png,010069right.gif,Stimuli/normal_thumbnails/25right.gif,,,,,1,0,1,0,0,19,19,24,,,,,,,,,,,,,,,,,,,,,,,38,20,2,306,1.469463131,-2.022542486,25,Experiment,,,,,,,,,105,17,8,8,,,,,,,,,,,,,,,942.2253208,942.962776,942.2253208,942.962776,89.11564626,1583519323,1583519325,1.45329833,1583519320,1583519323,,,AS,1,19,male,undergrad,2020_Mar_06_1014,AdjustEyeTrack,3.1.5,59.89881569
72,Stimuli/Morph72.JPG,Stimuli/Morph72.png,Stimuli/BlurLevel5/BlurEditedMorph72,Stimuli/BlurLevel5/BlurEditedMorph72.png,Stimuli/BlurLevel5/NumberedMorphs/BlurEditedMorph72.png,Stimuli/BlurLevel5/OriginalBlur/BlurEditedMorph72.png,Stimuli/BlurMorphTrio/EditedMorph72.png,020227right.gif,Stimuli/normal_thumbnails/72right.gif,,,,,1,0,1,0,0,20,20,71,,,,,,,,,,,,,,,,,,,,,,,66,21,2,237,-1.361597588,-2.09667642,72,Experiment,,,,,,,,,2,45,27,27,,,,,,,,,,,,,,,946.9794777,947.675961,946.9794777,947.675961,63.26530612,1583519328,1583519330,2.236428976,1583519325,1583519328,,,AS,1,19,male,undergrad,2020_Mar_06_1014,AdjustEyeTrack,3.1.5,59.89881569
117,Stimuli/Morph117.JPG,Stimuli/Morph117.png,Stimuli/BlurLevel5/BlurEditedMorph117,Stimuli/BlurLevel5/BlurEditedMorph117.png,Stimuli/BlurLevel5/NumberedMorphs/BlurEditedMorph117.png,Stimuli/BlurLevel5/OriginalBlur/BlurEditedMorph117.png,Stimuli/BlurMorphTrio/EditedMorph117.png,None,None,,,,,1,0,1,0,0,21,21,116,,,,,,,,,,,,,,,,,,,,,,,71,22,2,337,2.301262134,-0.976827821,117,Experiment,,,,,,,,,133,79,38,38,,,,,,,,,,,,,,,952.4451979,953.156073,952.4451979,953.156073,48.29931973,1583519333,1583519337,3.382615089,1583519331,1583519333,,,AS,1,19,male,undergrad,2020_Mar_06_1014,AdjustEyeTrack,3.1.5,59.89881569
34,Stimuli/Morph34.JPG,Stimuli/Morph34.png,Stimuli/BlurLevel5/BlurEditedMorph34,Stimuli/BlurLevel5/BlurEditedMorph34.png,Stimuli/BlurLevel5/NumberedMorphs/BlurEditedMorph34.png,Stimuli/BlurLevel5/OriginalBlur/BlurEditedMorph34.png,Stimuli/BlurMorphTrio/EditedMorph34.png,010090right.gif,Stimuli/normal_thumbnails/34right.gif,,,,,1,0,1,0,0,22,22,33,,,,,,,,,,,,,,,,,,,,,,,43,23,2,287,0.730929262,-2.39076189,34,Experiment,,,,,,,,,123,44,-10,-10,,,,,,,,,,,,,,,959.18811,959.9061349,959.18811,959.9061349,86.39455782,1583519340,1583519342,2.08287096,1583519337,1583519340,,,AS,1,19,male,undergrad,2020_Mar_06_1014,AdjustEyeTrack,3.1.5,59.89881569
56,Stimuli/Morph56.JPG,Stimuli/Morph56.png,Stimuli/BlurLevel5/BlurEditedMorph56,Stimuli/BlurLevel5/BlurEditedMorph56.png,Stimuli/BlurLevel5/NumberedMorphs/BlurEditedMorph56.png,Stimuli/BlurLevel5/OriginalBlur/BlurEditedMorph56.png,Stimuli/BlurMorphTrio/EditedMorph56.png,010157right.gif,Stimuli/normal_thumbnails/56right.gif,,,,,1,0,1,0,0,23,23,55,,,,,,,,,,,,,,,,,,,,,,,48,24,2,10,2.462019383,0.434120444,56,Experiment,,,,,,,,,101,51,5,5,,,,,,,,,,,,,,,964.643808,965.3549983,964.643808,965.3549983,93.19727891,1583519345,1583519347,2.001495123,1583519343,1583519345,,,AS,1,19,male,undergrad,2020_Mar_06_1014,AdjustEyeTrack,3.1.5,59.89881569
43,Stimuli/Morph43.JPG,Stimuli/Morph43.png,Stimuli/BlurLevel5/BlurEditedMorph43,Stimuli/BlurLevel5/BlurEditedMorph43.png,Stimuli/BlurLevel5/NumberedMorphs/BlurEditedMorph43.png,Stimuli/BlurLevel5/OriginalBlur/BlurEditedMorph43.png,Stimuli/BlurMorphTrio/EditedMorph43.png,010124right.gif,Stimuli/normal_thumbnails/43right.gif,,,,,1,0,1,0,0,24,24,42,,,,,,,,,,,,,,,,,,,,,,,97,25,2,4,2.493910126,0.174391184,43,Experiment,,,,,,,,,22,65,-22,-22,,,,,,,,,,,,,,,970.1607158,970.8828862,970.1607158,970.8828862,70.06802721,1583519351,1583519353,1.75036025,1583519348,1583519351,,,AS,1,19,male,undergrad,2020_Mar_06_1014,AdjustEyeTrack,3.1.5,59.89881569
79,Stimuli/Morph79.JPG,Stimuli/Morph79.png,Stimuli/BlurLevel5/BlurEditedMorph79,Stimuli/BlurLevel5/BlurEditedMorph79.png,Stimuli/BlurLevel5/NumberedMorphs/BlurEditedMorph79.png,Stimuli/BlurLevel5/OriginalBlur/BlurEditedMorph79.png,Stimuli/BlurMorphTrio/EditedMorph79.png,020239right.gif,Stimuli/normal_thumbnails/79right.gif,,,,,1,0,1,0,0,25,25,78,,,,,,,,,,,,,,,,,,,,,,,8,26,2,69,0.895919874,2.333951066,79,Experiment,,,,,,,,,96,22,57,57,,,,,,,,,,,,,,,975.3535628,976.0720123,975.3535628,976.0720123,22.44897959,1583519356,1583519358,1.834424257,1583519353,1583519356,,,AS,1,19,male,undergrad,2020_Mar_06_1014,AdjustEyeTrack,3.1.5,59.89881569
140,Stimuli/Morph140.JPG,Stimuli/Morph140.png,Stimuli/BlurLevel5/BlurEditedMorph140,Stimuli/BlurLevel5/BlurEditedMorph140.png,Stimuli/BlurLevel5/NumberedMorphs/BlurEditedMorph140.png,Stimuli/BlurLevel5/OriginalBlur/BlurEditedMorph140.png,Stimuli/BlurMorphTrio/EditedMorph140.png,None,None,,,,,1,0,1,0,0,26,26,139,,,,,,,,,,,,,,,,,,,,,,,16,27,2,357,2.496573837,-0.130839891,140,Experiment,,,,,,,,,58,12,128,-19,,,,,,,,,,,,,,,980.6494174,981.364427,980.6494174,981.364427,74.14965986,1583519361,1583519363,1.36864686,1583519359,1583519361,,,AS,1,19,male,undergrad,2020_Mar_06_1014,AdjustEyeTrack,3.1.5,59.89881569
73,Stimuli/Morph73.JPG,Stimuli/Morph73.png,Stimuli/BlurLevel5/BlurEditedMorph73,Stimuli/BlurLevel5/BlurEditedMorph73.png,Stimuli/BlurLevel5/NumberedMorphs/BlurEditedMorph73.png,Stimuli/BlurLevel5/OriginalBlur/BlurEditedMorph73.png,Stimuli/BlurMorphTrio/EditedMorph73.png,020230right.gif,Stimuli/normal_thumbnails/73right.gif,,,,,1,0,1,0,0,27,27,72,,,,,,,,,,,,,,,,,,,,,,,53,28,2,357,2.496573837,-0.130839891,73,Experiment,,,,,,,,,52,41,32,32,,,,,,,,,,,,,,,985.5605856,986.28052,985.5605856,986.28052,56.46258503,1583519366,1583519368,1.830333948,1583519363,1583519366,,,AS,1,19,male,undergrad,2020_Mar_06_1014,AdjustEyeTrack,3.1.5,59.89881569
20,Stimuli/Morph20.JPG,Stimuli/Morph20.png,Stimuli/BlurLevel5/BlurEditedMorph20,Stimuli/BlurLevel5/BlurEditedMorph20.png,Stimuli/BlurLevel5/NumberedMorphs/BlurEditedMorph20.png,Stimuli/BlurLevel5/OriginalBlur/BlurEditedMorph20.png,Stimuli/BlurMorphTrio/EditedMorph20.png,010046right.gif,Stimuli/normal_thumbnails/20right.gif,,,,,1,0,1,0,0,28,28,19,,,,,,,,,,,,,,,,,,,,,,,28,29,2,79,0.477022488,2.454067959,20,Experiment,,,,,,,,,93,93,-73,-73,,,,,,,,,,,,,,,990.9535335,991.6666761,990.9535335,991.6666761,0.680272109,1583519372,1583519372,0.150689125,1583519369,1583519372,,,AS,1,19,male,undergrad,2020_Mar_06_1014,AdjustEyeTrack,3.1.5,59.89881569
27,Stimuli/Morph27.JPG,Stimuli/Morph27.png,Stimuli/BlurLevel5/BlurEditedMorph27,Stimuli/BlurLevel5/BlurEditedMorph27.png,Stimuli/BlurLevel5/NumberedMorphs/BlurEditedMorph27.png,Stimuli/BlurLevel5/OriginalBlur/BlurEditedMorph27.png,Stimuli/BlurMorphTrio/EditedMorph27.png,010072right.gif,Stimuli/normal_thumbnails/27right.gif,,,,,1,0,1,0,0,29,29,26,,,,,,,,,,,,,,,,,,,,,,,86,30,2,74,0.68909339,2.40315424,27,Experiment,,,,,,,,,113,70,-43,-43,,,,,,,,,,,,,,,994.5566412,995.2614837,994.5566412,995.2614837,41.49659864,1583519375,1583519379,3.302422047,1583519372,1583519375,,,AS,1,19,male,undergrad,2020_Mar_06_1014,AdjustEyeTrack,3.1.5,59.89881569
12,Stimuli/Morph12.JPG,Stimuli/Morph12.png,Stimuli/BlurLevel5/BlurEditedMorph12,Stimuli/BlurLevel5/BlurEditedMorph12.png,Stimuli/BlurLevel5/NumberedMorphs/BlurEditedMorph12.png,Stimuli/BlurLevel5/OriginalBlur/BlurEditedMorph12.png,Stimuli/BlurMorphTrio/EditedMorph12.png,010026right.gif,Stimuli/normal_thumbnails/12right.gif,,,,,1,0,1,0,0,30,30,11,,,,,,,,,,,,,,,,,,,,,,,45,31,2,288,0.772542486,-2.377641291,12,Experiment,,,,,,,,,13,13,-1,-1,,,,,,,,,,,,,,,1001.059913,1001.771604,1001.059913,1001.771604,98.63945578,1583519382,1583519384,2.285611153,1583519379,1583519382,,,AS,1,19,male,undergrad,2020_Mar_06_1014,AdjustEyeTrack,3.1.5,59.89881569
54,Stimuli/Morph54.JPG,Stimuli/Morph54.png,Stimuli/BlurLevel5/BlurEditedMorph54,Stimuli/BlurLevel5/BlurEditedMorph54.png,Stimuli/BlurLevel5/NumberedMorphs/BlurEditedMorph54.png,Stimuli/BlurLevel5/OriginalBlur/BlurEditedMorph54.png,Stimuli/BlurMorphTrio/EditedMorph54.png,010150right.gif,Stimuli/normal_thumbnails/54right.gif,,,,,1,0,1,0,0,31,31,53,,,,,,,,,,,,,,,,,,,,,,,21,32,2,32,2.12012024,1.324798161,54,Experiment,,,,,,,,,26,57,-3,-3,,,,,,,,,,,,,,,1006.641634,1007.338891,1006.641634,1007.338891,95.91836735,1583519387,1583519389,1.35278511,1583519385,1583519387,,,AS,1,19,male,undergrad,2020_Mar_06_1014,AdjustEyeTrack,3.1.5,59.89881569
26,Stimuli/Morph26.JPG,Stimuli/Morph26.png,Stimuli/BlurLevel5/BlurEditedMorph26,Stimuli/BlurLevel5/BlurEditedMorph26.png,Stimuli/BlurLevel5/NumberedMorphs/BlurEditedMorph26.png,Stimuli/BlurLevel5/OriginalBlur/BlurEditedMorph26.png,Stimuli/BlurMorphTrio/EditedMorph26.png,010070right.gif,Stimuli/normal_thumbnails/26right.gif,,,,,1,0,1,0,0,32,32,25,,,,,,,,,,,,,,,,,,,,,,,21,33,2,55,1.433941091,2.047880111,26,Experiment,,,,,,,,,88,16,10,10,,,,,,,,,,,,,,,1011.093863,1011.807942,1011.093863,1011.807942,86.39455782,1583519392,1583519394,1.750531197,1583519389,1583519392,,,AS,1,19,male,undergrad,2020_Mar_06_1014,AdjustEyeTrack,3.1.5,59.89881569
78,Stimuli/Morph78.JPG,Stimuli/Morph78.png,Stimuli/BlurLevel5/BlurEditedMorph78,Stimuli/BlurLevel5/BlurEditedMorph78.png,Stimuli/BlurLevel5/NumberedMorphs/BlurEditedMorph78.png,Stimuli/BlurLevel5/OriginalBlur/BlurEditedMorph78.png,Stimuli/BlurMorphTrio/EditedMorph78.png,020238right.gif,Stimuli/normal_thumbnails/78right.gif,,,,,1,0,1,0,0,33,33,77,,,,,,,,,,,,,,,,,,,,,,,28,34,2,221,-1.886773951,-1.640147572,78,Experiment,,,,,,,,,10,67,11,11,,,,,,,,,,,,,,,1016.362871,1017.083519,1016.362871,1017.083519,85.03401361,1583519397,1583519400,2.617250919,1583519394,1583519397,,,AS,1,19,male,undergrad,2020_Mar_06_1014,AdjustEyeTrack,3.1.5,59.89881569
70,Stimuli/Morph70.JPG,Stimuli/Morph70.png,Stimuli/BlurLevel5/BlurEditedMorph70,Stimuli/BlurLevel5/BlurEditedMorph70.png,Stimuli/BlurLevel5/NumberedMorphs/BlurEditedMorph70.png,Stimuli/BlurLevel5/OriginalBlur/BlurEditedMorph70.png,Stimuli/BlurMorphTrio/EditedMorph70.png,020221right.gif,Stimuli/normal_thumbnails/70right.gif,,,,,1,0,1,0,0,34,34,69,,,,,,,,,,,,,,,,,,,,,,,37,35,2,132,-1.672826516,1.857862064,70,Experiment,,,,,,,,,69,71,-1,-1,,,,,,,,,,,,,,,1022.411247,1023.129814,1022.411247,1023.129814,98.63945578,1583519403,1583519405,1.851409197,1583519400,1583519403,,,AS,1,19,male,undergrad,2020_Mar_06_1014,AdjustEyeTrack,3.1.5,59.89881569
103,Stimuli/Morph103.JPG,Stimuli/Morph103.png,Stimuli/BlurLevel5/BlurEditedMorph103,Stimuli/BlurLevel5/BlurEditedMorph103.png,Stimuli/BlurLevel5/NumberedMorphs/BlurEditedMorph103.png,Stimuli/BlurLevel5/OriginalBlur/BlurEditedMorph103.png,Stimuli/BlurMorphTrio/EditedMorph103.png,None,None,,,,,1,0,1,0,0,35,35,102,,,,,,,,,,,,,,,,,,,,,,,31,36,2,185,-2.490486745,-0.217889357,103,Experiment,,,,,,,,,92,97,6,6,,,,,,,,,,,,,,,1027.720093,1028.432356,1027.720093,1028.432356,91.83673469,1583519409,1583519410,1.534991264,1583519406,1583519409,,,AS,1,19,male,undergrad,2020_Mar_06_1014,AdjustEyeTrack,3.1.5,59.89881569
134,Stimuli/Morph134.JPG,Stimuli/Morph134.png,Stimuli/BlurLevel5/BlurEditedMorph134,Stimuli/BlurLevel5/BlurEditedMorph134.png,Stimuli/BlurLevel5/NumberedMorphs/BlurEditedMorph134.png,Stimuli/BlurLevel5/OriginalBlur/BlurEditedMorph134.png,Stimuli/BlurMorphTrio/EditedMorph134.png,None,None,,,,,1,0,1,0,0,36,36,133,,,,,,,,,,,,,,,,,,,,,,,31,37,2,80,0.434120444,2.462019383,134,Experiment,,,,,,,,,115,95,39,39,,,,,,,,,,,,,,,1032.476116,1033.199288,1032.476116,1033.199288,46.93877551,1583519413,1583519415,1.535073757,1583519411,1583519413,,,AS,1,19,male,undergrad,2020_Mar_06_1014,AdjustEyeTrack,3.1.5,59.89881569
23,Stimuli/Morph23.JPG,Stimuli/Morph23.png,Stimuli/BlurLevel5/BlurEditedMorph23,Stimuli/BlurLevel5/BlurEditedMorph23.png,Stimuli/BlurLevel5/NumberedMorphs/BlurEditedMorph23.png,Stimuli/BlurLevel5/OriginalBlur/BlurEditedMorph23.png,Stimuli/BlurMorphTrio/EditedMorph23.png,010063right.gif,Stimuli/normal_thumbnails/23right.gif,,,,,1,0,1,0,0,37,37,22,,,,,,,,,,,,,,,,,,,,,,,64,38,2,83,0.304673359,2.481365379,23,Experiment,,,,,,,,,51,51,-28,-28,,,,,,,,,,,,,,,1037.3463,1038.05763,1037.3463,1038.05763,61.9047619,1583519418,1583519419,1.133296967,1583519415,1583519418,,,AS,1,19,male,undergrad,2020_Mar_06_1014,AdjustEyeTrack,3.1.5,59.89881569
85,Stimuli/Morph85.JPG,Stimuli/Morph85.png,Stimuli/BlurLevel5/BlurEditedMorph85,Stimuli/BlurLevel5/BlurEditedMorph85.png,Stimuli/BlurLevel5/NumberedMorphs/BlurEditedMorph85.png,Stimuli/BlurLevel5/OriginalBlur/BlurEditedMorph85.png,Stimuli/BlurMorphTrio/EditedMorph85.png,020264right.gif,Stimuli/normal_thumbnails/85right.gif,,,,,1,0,1,0,0,38,38,84,,,,,,,,,,,,,,,,,,,,,,,24,39,2,217,-1.996588775,-1.504537558,85,Experiment,,,,,,,,,37,109,-24,-24,,,,,,,,,,,,,,,1041.889979,1042.595214,1041.889979,1042.595214,67.34693878,1583519423,1583519425,1.852668762,1583519420,1583519423,,,AS,1,19,male,undergrad,2020_Mar_06_1014,AdjustEyeTrack,3.1.5,59.89881569
46,Stimuli/Morph46.JPG,Stimuli/Morph46.png,Stimuli/BlurLevel5/BlurEditedMorph46,Stimuli/BlurLevel5/BlurEditedMorph46.png,Stimuli/BlurLevel5/NumberedMorphs/BlurEditedMorph46.png,Stimuli/BlurLevel5/OriginalBlur/BlurEditedMorph46.png,Stimuli/BlurMorphTrio/EditedMorph46.png,010128right.gif,Stimuli/normal_thumbnails/46right.gif,,,,,1,0,1,0,0,39,39,45,,,,,,,,,,,,,,,,,,,,,,,79,40,2,123,-1.361597588,2.09667642,46,Experiment,,,,,,,,,83,31,15,15,,,,,,,,,,,,,,,1047.044631,1047.794413,1047.044631,1047.794413,79.59183673,1583519428,1583519430,1.999726057,1583519425,1583519428,,,AS,1,19,male,undergrad,2020_Mar_06_1014,AdjustEyeTrack,3.1.5,59.89881569
13,Stimuli/Morph13.JPG,Stimuli/Morph13.png,Stimuli/BlurLevel5/BlurEditedMorph13,Stimuli/BlurLevel5/BlurEditedMorph13.png,Stimuli/BlurLevel5/NumberedMorphs/BlurEditedMorph13.png,Stimuli/BlurLevel5/OriginalBlur/BlurEditedMorph13.png,Stimuli/BlurMorphTrio/EditedMorph13.png,010027right.gif,Stimuli/normal_thumbnails/13right.gif,,,,,1,0,1,0,0,40,40,12,,,,,,,,,,,,,,,,,,,,,,,10,41,2,273,0.130839891,-2.496573837,13,Experiment,,,,,,,,,82,43,-30,-30,,,,,,,,,,,,,,,1052.485822,1053.204295,1052.485822,1053.204295,59.18367347,1583519433,1583519436,2.383602858,1583519430,1583519433,,,AS,1,19,male,undergrad,2020_Mar_06_1014,AdjustEyeTrack,3.1.5,59.89881569
10,Stimuli/Morph10.JPG,Stimuli/Morph10.png,Stimuli/BlurLevel5/BlurEditedMorph10,Stimuli/BlurLevel5/BlurEditedMorph10.png,Stimuli/BlurLevel5/NumberedMorphs/BlurEditedMorph10.png,Stimuli/BlurLevel5/OriginalBlur/BlurEditedMorph10.png,Stimuli/BlurMorphTrio/EditedMorph10.png,010016right.gif,Stimuli/normal_thumbnails/10right.gif,,,,,1,0,1,0,0,41,41,9,,,,,,,,,,,,,,,,,,,,,,,88,42,2,296,1.095927867,-2.246985116,10,Experiment,,,,,,,,,22,22,-12,-12,,,,,,,,,,,,,,,1058.390081,1059.11381,1058.390081,1059.11381,83.67346939,1583519439,1583519440,0.563610792,1583519436,1583519439,,,AS,1,19,male,undergrad,2020_Mar_06_1014,AdjustEyeTrack,3.1.5,59.89881569
14,Stimuli/Morph14.JPG,Stimuli/Morph14.png,Stimuli/BlurLevel5/BlurEditedMorph14,Stimuli/BlurLevel5/BlurEditedMorph14.png,Stimuli/BlurLevel5/NumberedMorphs/BlurEditedMorph14.png,Stimuli/BlurLevel5/OriginalBlur/BlurEditedMorph14.png,Stimuli/BlurMorphTrio/EditedMorph14.png,010030right.gif,Stimuli/normal_thumbnails/14right.gif,,,,,1,0,1,0,0,42,42,13,,,,,,,,,,,,,,,,,,,,,,,35,43,2,240,-1.25,-2.165063509,14,Experiment,,,,,,,,,51,2,12,12,,,,,,,,,,,,,,,1062.382001,1063.097759,1062.382001,1063.097759,83.67346939,1583519443,1583519445,1.315416813,1583519440,1583519443,,,AS,1,19,male,undergrad,2020_Mar_06_1014,AdjustEyeTrack,3.1.5,59.89881569
110,Stimuli/Morph110.JPG,Stimuli/Morph110.png,Stimuli/BlurLevel5/BlurEditedMorph110,Stimuli/BlurLevel5/BlurEditedMorph110.png,Stimuli/BlurLevel5/NumberedMorphs/BlurEditedMorph110.png,Stimuli/BlurLevel5/OriginalBlur/BlurEditedMorph110.png,Stimuli/BlurMorphTrio/EditedMorph110.png,None,None,,,,,1,0,1,0,0,43,43,109,,,,,,,,,,,,,,,,,,,,,,,83,44,2,37,1.996588775,1.504537558,110,Experiment,,,,,,,,,137,102,8,8,,,,,,,,,,,,,,,1067.24075,1067.948695,1067.24075,1067.948695,89.11564626,1583519448,1583519449,1.065028906,1583519445,1583519448,,,AS,1,19,male,undergrad,2020_Mar_06_1014,AdjustEyeTrack,3.1.5,59.89881569
119,Stimuli/Morph119.JPG,Stimuli/Morph119.png,Stimuli/BlurLevel5/BlurEditedMorph119,Stimuli/BlurLevel5/BlurEditedMorph119.png,Stimuli/BlurLevel5/NumberedMorphs/BlurEditedMorph119.png,Stimuli/BlurLevel5/OriginalBlur/BlurEditedMorph119.png,Stimuli/BlurMorphTrio/EditedMorph119.png,None,None,,,,,1,0,1,0,0,44,44,118,,,,,,,,,,,,,,,,,,,,,,,18,45,2,349,2.454067959,-0.477022488,119,Experiment,,,,,,,,,145,109,10,10,,,,,,,,,,,,,,,1071.449834,1072.158152,1071.449834,1072.158152,86.39455782,1583519452,1583519454,1.63345933,1583519450,1583519452,,,AS,1,19,male,undergrad,2020_Mar_06_1014,AdjustEyeTrack,3.1.5,59.89881569
131,Stimuli/Morph131.JPG,Stimuli/Morph131.png,Stimuli/BlurLevel5/BlurEditedMorph131,Stimuli/BlurLevel5/BlurEditedMorph131.png,Stimuli/BlurLevel5/NumberedMorphs/BlurEditedMorph131.png,Stimuli/BlurLevel5/OriginalBlur/BlurEditedMorph131.png,Stimuli/BlurMorphTrio/EditedMorph131.png,None,None,,,,,1,0,1,0,0,45,45,130,,,,,,,,,,,,,,,,,,,,,,,52,46,2,215,-2.047880111,-1.433941091,131,Experiment,,,,,,,,,77,147,-16,-16,,,,,,,,,,,,,,,1076.468212,1077.17585,1076.468212,1077.17585,78.23129252,1583519457,1583519460,2.182996035,1583519454,1583519457,,,AS,1,19,male,undergrad,2020_Mar_06_1014,AdjustEyeTrack,3.1.5,59.89881569
89,Stimuli/Morph89.JPG,Stimuli/Morph89.png,Stimuli/BlurLevel5/BlurEditedMorph89,Stimuli/BlurLevel5/BlurEditedMorph89.png,Stimuli/BlurLevel5/NumberedMorphs/BlurEditedMorph89.png,Stimuli/BlurLevel5/OriginalBlur/BlurEditedMorph89.png,Stimuli/BlurMorphTrio/EditedMorph89.png,020273right.gif,Stimuli/normal_thumbnails/89right.gif,,,,,1,0,1,0,0,46,46,88,,,,,,,,,,,,,,,,,,,,,,,7,47,2,163,-2.39076189,0.730929262,89,Experiment,,,,,,,,,123,92,-3,-3,,,,,,,,,,,,,,,1082.101099,1082.792792,1082.101099,1082.792792,95.91836735,1583519463,1583519464,1.066129923,1583519460,1583519463,,,AS,1,19,male,undergrad,2020_Mar_06_1014,AdjustEyeTrack,3.1.5,59.89881569
112,Stimuli/Morph112.JPG,Stimuli/Morph112.png,Stimuli/BlurLevel5/BlurEditedMorph112,Stimuli/BlurLevel5/BlurEditedMorph112.png,Stimuli/BlurLevel5/NumberedMorphs/BlurEditedMorph112.png,Stimuli/BlurLevel5/OriginalBlur/BlurEditedMorph112.png,Stimuli/BlurMorphTrio/EditedMorph112.png,None,None,,,,,1,0,1,0,0,47,47,111,,,,,,,,,,,,,,,,,,,,,,,94,48,2,14,2.425739316,0.604804739,112,Experiment,,,,,,,,,67,105,7,7,,,,,,,,,,,,,,,1086.798998,1087.570108,1086.798998,1087.570108,90.47619048,1583519468,1583519469,1.054930925,1583519464,1583519468,,,AS,1,19,male,undergrad,2020_Mar_06_1014,AdjustEyeTrack,3.1.5,59.89881569
122,Stimuli/Morph122.JPG,Stimuli/Morph122.png,Stimuli/BlurLevel5/BlurEditedMorph122,Stimuli/BlurLevel5/BlurEditedMorph122.png,Stimuli/BlurLevel5/NumberedMorphs/BlurEditedMorph122.png,Stimuli/BlurLevel5/OriginalBlur/BlurEditedMorph122.png,Stimuli/BlurMorphTrio/EditedMorph122.png,None,None,,,,,1,0,1,0,0,48,48,121,,,,,,,,,,,,,,,,,,,,,,,93,49,2,220,-1.915111108,-1.606969024,122,Experiment,,,,,,,,,9,141,-19,-19,,,,,,,,,,,,,,,1092.057662,1092.795873,1092.057662,1092.795873,74.14965986,1583519473,1583519476,2.883223057,1583519469,1583519473,,,AS,1,19,male,undergrad,2020_Mar_06_1014,AdjustEyeTrack,3.1.5,59.89881569
144,Stimuli/Morph144.JPG,Stimuli/Morph144.png,Stimuli/BlurLevel5/BlurEditedMorph144,Stimuli/BlurLevel5/BlurEditedMorph144.png,Stimuli/BlurLevel5/NumberedMorphs/BlurEditedMorph144.png,Stimuli/BlurLevel5/OriginalBlur/BlurEditedMorph144.png,Stimuli/BlurMorphTrio/EditedMorph144.png,None,None,,,,,1,0,1,0,0,49,49,143,,,,,,,,,,,,,,,,,,,,,,,41,50,2,206,-2.246985116,-1.095927867,144,Experiment,,,,,,,,,9,1,143,-4,,,,,,,,,,,,,,,1098.526899,1099.248673,1098.526899,1099.248673,94.55782313,1583519479,1583519480,1.151008606,1583519476,1583519479,,,AS,1,19,male,undergrad,2020_Mar_06_1014,AdjustEyeTrack,3.1.5,59.89881569
120,Stimuli/Morph120.JPG,Stimuli/Morph120.png,Stimuli/BlurLevel5/BlurEditedMorph120,Stimuli/BlurLevel5/BlurEditedMorph120.png,Stimuli/BlurLevel5/NumberedMorphs/BlurEditedMorph120.png,Stimuli/BlurLevel5/OriginalBlur/BlurEditedMorph120.png,Stimuli/BlurMorphTrio/EditedMorph120.png,None,None,,,,,1,0,1,0,0,50,50,119,,,,,,,,,,,,,,,,,,,,,,,61,51,2,181,-2.499619238,-0.043631016,120,Experiment,,,,,,,,,116,95,25,25,,,,,,,,,,,,,,,1103.196123,1103.890767,1103.196123,1103.890767,65.98639456,1583519484,1583519485,0.758387804,1583519481,1583519484,,,AS,1,19,male,undergrad,2020_Mar_06_1014,AdjustEyeTrack,3.1.5,59.89881569
6,Stimuli/Morph6.JPG,Stimuli/Morph6.png,Stimuli/BlurLevel5/BlurEditedMorph6,Stimuli/BlurLevel5/BlurEditedMorph6.png,Stimuli/BlurLevel5/NumberedMorphs/BlurEditedMorph6.png,Stimuli/BlurLevel5/OriginalBlur/BlurEditedMorph6.png,Stimuli/BlurMorphTrio/EditedMorph6.png,010012right.gif,Stimuli/normal_thumbnails/6right.gif,,,,,1,0,1,0,0,51,51,5,,,,,,,,,,,,,,,,,,,,,,,91,52,2,164,-2.40315424,0.68909339,6,Experiment,,,,,,,,,103,3,3,3,,,,,,,,,,,,,,,1107.578768,1108.298103,1107.578768,1108.298103,95.91836735,1583519488,1583519490,1.203378201,1583519485,1583519488,,,AS,1,19,male,undergrad,2020_Mar_06_1014,AdjustEyeTrack,3.1.5,59.89881569
75,Stimuli/Morph75.JPG,Stimuli/Morph75.png,Stimuli/BlurLevel5/BlurEditedMorph75,Stimuli/BlurLevel5/BlurEditedMorph75.png,Stimuli/BlurLevel5/NumberedMorphs/BlurEditedMorph75.png,Stimuli/BlurLevel5/OriginalBlur/BlurEditedMorph75.png,Stimuli/BlurMorphTrio/EditedMorph75.png,020233right.gif,Stimuli/normal_thumbnails/75right.gif,,,,,1,0,1,0,0,52,52,74,,,,,,,,,,,,,,,,,,,,,,,56,53,2,330,2.165063509,-1.25,75,Experiment,,,,,,,,,93,61,14,14,,,,,,,,,,,,,,,1112.389085,1113.125079,1112.389085,1113.125079,80.95238095,1583519493,1583519496,2.297925949,1583519490,1583519493,,,AS,1,19,male,undergrad,2020_Mar_06_1014,AdjustEyeTrack,3.1.5,59.89881569
32,Stimuli/Morph32.JPG,Stimuli/Morph32.png,Stimuli/BlurLevel5/BlurEditedMorph32,Stimuli/BlurLevel5/BlurEditedMorph32.png,Stimuli/BlurLevel5/NumberedMorphs/BlurEditedMorph32.png,Stimuli/BlurLevel5/OriginalBlur/BlurEditedMorph32.png,Stimuli/BlurMorphTrio/EditedMorph32.png,010080right.gif,Stimuli/normal_thumbnails/32right.gif,,,,,1,0,1,0,0,53,53,31,,,,,,,,,,,,,,,,,,,,,,,42,54,2,151,-2.186549268,1.212024051,32,Experiment,,,,,,,,,21,135,-103,44,,,,,,,,,,,,,,,1118.440591,1119.208715,1118.440591,1119.208715,40.13605442,1583519499,1583519501,1.367816925,1583519496,1583519499,,,AS,1,19,male,undergrad,2020_Mar_06_1014,AdjustEyeTrack,3.1.5,59.89881569
35,Stimuli/Morph35.JPG,Stimuli/Morph35.png,Stimuli/BlurLevel5/BlurEditedMorph35,Stimuli/BlurLevel5/BlurEditedMorph35.png,Stimuli/BlurLevel5/NumberedMorphs/BlurEditedMorph35.png,Stimuli/BlurLevel5/OriginalBlur/BlurEditedMorph35.png,Stimuli/BlurMorphTrio/EditedMorph35.png,010094right.gif,Stimuli/normal_thumbnails/35right.gif,,,,,1,0,1,0,0,54,54,34,,,,,,,,,,,,,,,,,,,,,,,57,55,2,270,-4.59E-16,-2.5,35,Experiment,,,,,,,,,145,32,3,3,,,,,,,,,,,,,,,1123.401402,1124.109726,1123.401402,1124.109726,95.91836735,1583519504,1583519507,2.947878838,1583519501,1583519504,,,AS,1,19,male,undergrad,2020_Mar_06_1014,AdjustEyeTrack,3.1.5,59.89881569
11,Stimuli/Morph11.JPG,Stimuli/Morph11.png,Stimuli/BlurLevel5/BlurEditedMorph11,Stimuli/BlurLevel5/BlurEditedMorph11.png,Stimuli/BlurLevel5/NumberedMorphs/BlurEditedMorph11.png,Stimuli/BlurLevel5/OriginalBlur/BlurEditedMorph11.png,Stimuli/BlurMorphTrio/EditedMorph11.png,010024right.gif,Stimuli/normal_thumbnails/11right.gif,,,,,1,0,1,0,0,55,55,10,,,,,,,,,,,,,,,,,,,,,,,88,56,2,258,-0.519779227,-2.445369002,11,Experiment,,,,,,,,,99,11,0,0,,,,,,,,,,,,,,,1129.798748,1130.506143,1129.798748,1130.506143,100,1583519511,1583519513,2.103558302,1583519508,1583519511,,,AS,1,19,male,undergrad,2020_Mar_06_1014,AdjustEyeTrack,3.1.5,59.89881569
8,Stimuli/Morph8.JPG,Stimuli/Morph8.png,Stimuli/BlurLevel5/BlurEditedMorph8,Stimuli/BlurLevel5/BlurEditedMorph8.png,Stimuli/BlurLevel5/NumberedMorphs/BlurEditedMorph8.png,Stimuli/BlurLevel5/OriginalBlur/BlurEditedMorph8.png,Stimuli/BlurMorphTrio/EditedMorph8.png,010014right.gif,Stimuli/normal_thumbnails/8right.gif,,,,,1,0,1,0,0,56,56,7,,,,,,,,,,,,,,,,,,,,,,,73,57,2,242,-1.173678907,-2.207368982,8,Experiment,,,,,,,,,100,1,7,7,,,,,,,,,,,,,,,1135.199236,1135.953073,1135.199236,1135.953073,90.47619048,1583519516,1583519517,1.370233059,1583519513,1583519516,,,AS,1,19,male,undergrad,2020_Mar_06_1014,AdjustEyeTrack,3.1.5,59.89881569
126,Stimuli/Morph126.JPG,Stimuli/Morph126.png,Stimuli/BlurLevel5/BlurEditedMorph126,Stimuli/BlurLevel5/BlurEditedMorph126.png,Stimuli/BlurLevel5/NumberedMorphs/BlurEditedMorph126.png,Stimuli/BlurLevel5/OriginalBlur/BlurEditedMorph126.png,Stimuli/BlurMorphTrio/EditedMorph126.png,None,None,,,,,1,0,1,0,0,57,57,125,,,,,,,,,,,,,,,,,,,,,,,11,58,2,328,2.12012024,-1.324798161,126,Experiment,,,,,,,,,92,8,118,-29,,,,,,,,,,,,,,,1140.360868,1141.094936,1140.360868,1141.094936,60.54421769,1583519521,1583519525,3.916912317,1583519518,1583519521,,,AS,1,19,male,undergrad,2020_Mar_06_1014,AdjustEyeTrack,3.1.5,59.89881569
51,Stimuli/Morph51.JPG,Stimuli/Morph51.png,Stimuli/BlurLevel5/BlurEditedMorph51,Stimuli/BlurLevel5/BlurEditedMorph51.png,Stimuli/BlurLevel5/NumberedMorphs/BlurEditedMorph51.png,Stimuli/BlurLevel5/OriginalBlur/BlurEditedMorph51.png,Stimuli/BlurMorphTrio/EditedMorph51.png,010146right.gif,Stimuli/normal_thumbnails/51right.gif,,,,,1,0,1,0,0,58,58,50,,,,,,,,,,,,,,,,,,,,,,,76,59,2,80,0.434120444,2.462019383,51,Experiment,,,,,,,,,107,47,4,4,,,,,,,,,,,,,,,1147.430595,1148.119552,1147.430595,1148.119552,94.55782313,1583519528,1583519530,1.467758656,1583519526,1583519528,,,AS,1,19,male,undergrad,2020_Mar_06_1014,AdjustEyeTrack,3.1.5,59.89881569
