stimulusID,stimulus_JPG,stimulusPath,stimulusPath2,stimulusPath3,stimulusPath4,stimulusPath5,stimulusPath6,xRayOriginal,xRayPath,Training.thisRepN,Training.thisTrialN,Training.thisN,Training.thisIndex,Blocks.thisRepN,Blocks.thisTrialN,Blocks.thisN,Blocks.thisIndex,Trials.thisRepN,Trials.thisTrialN,Trials.thisN,Trials.thisIndex,text_2.started,text_2.stopped,image.started,image.stopped,image_2.started,image_2.stopped,image_3.started,image_3.stopped,image_4.started,image_4.stopped,image_6.started,image_6.stopped,image_7.started,image_7.stopped,image_8.started,image_8.stopped,image_9.started,image_9.stopped,image_10.started,image_10.stopped,image_12.started,image_12.stopped,xrayID,trialNumber,blockNumber,stimLocationDeg,stimXCoord,stimYCoord,stimulusID,blockType,trainingXray.started,trainingXray.stopped,trainingTumors.started,trainingTumors.stopped,trainingScore%,startTrainingRespTime,endTrainingRespTime,trainingRT,morphTrack,morphID,errorRaw,errorCorrected,startTrainingStimTime,endTrainingStimTime,key_resp_3.keys,key_resp_3.rt,text.started,text.stopped,text_3.started,text_3.stopped,text_4.started,text_4.stopped,key_resp_5.keys,key_resp_5.rt,key_resp_5.started,key_resp_5.stopped,xray1.started,xray1.stopped,tumors.started,tumors.stopped,trialCorrect%,startRespTime,endRespTime,RT,startStimTime,endStimTime,key_resp.keys,key_resp.rt,participant,session,age,gender,status,date,expName,psychopyVersion,frameRate,
135,Stimuli/Morph135.JPG,Stimuli/Morph135.png,Stimuli/BlurLevel5/BlurEditedMorph135,Stimuli/BlurLevel5/BlurEditedMorph135.png,Stimuli/BlurLevel5/NumberedMorphs/BlurEditedMorph135.png,Stimuli/BlurLevel5/OriginalBlur/BlurEditedMorph135.png,Stimuli/BlurMorphTrio/EditedMorph135.png,None,None,0,0,0,134,,,,,,,,,89.41521920100058,None,89.41521920100058,None,89.41521920100058,None,89.41521920100058,None,89.41521920100058,None,89.41521920100058,None,89.41521920100058,None,89.41521920100058,None,89.41521920100058,None,89.41521920100058,None,89.41521920100058,None,67,-100,-100,351,2.469220851487844,-0.3910861626005778,135,training,168.9337627950008,169.65209072700236,168.9337627950008,169.65209072700236,52.38095238095239,1583871891.868427,1583871896.685884,4.817456960678101,10,100,35,35,1583871889.0191529,1583871891.852161,space,2.7457664590037894,,,,,,,,,,,,,,,,,,,,,,,CAN,001,20,female,undergrad,2020_Mar_10_1323,AdjustEyeTrack,3.1.5,60.00911358501288,
3,Stimuli/Morph3.JPG,Stimuli/Morph3.png,Stimuli/BlurLevel5/BlurEditedMorph3,Stimuli/BlurLevel5/BlurEditedMorph3.png,Stimuli/BlurLevel5/NumberedMorphs/BlurEditedMorph3.png,Stimuli/BlurLevel5/OriginalBlur/BlurEditedMorph3.png,Stimuli/BlurMorphTrio/EditedMorph3.png,010009right.gif,Stimuli/normal_thumbnails/3right.gif,0,1,1,2,,,,,,,,,,,,,,,,,,,,,,,,,,,,,,,87,-100,-100,263,-0.3046733585128679,-2.4813653791033055,3,training,179.95894351100287,180.66218955999648,179.95894351100287,180.66218955999648,89.1156462585034,1583871902.872716,1583871906.252259,3.3795430660247803,46,142,-139,8,1583871900.0881898,1583871902.8584378,space,1.8435649819948594,,,,,,,,,,,,,,,,,,,,,,,CAN,001,20,female,undergrad,2020_Mar_10_1323,AdjustEyeTrack,3.1.5,60.00911358501288,
46,Stimuli/Morph46.JPG,Stimuli/Morph46.png,Stimuli/BlurLevel5/BlurEditedMorph46,Stimuli/BlurLevel5/BlurEditedMorph46.png,Stimuli/BlurLevel5/NumberedMorphs/BlurEditedMorph46.png,Stimuli/BlurLevel5/OriginalBlur/BlurEditedMorph46.png,Stimuli/BlurMorphTrio/EditedMorph46.png,010128right.gif,Stimuli/normal_thumbnails/46right.gif,0,2,2,45,,,,,,,,,,,,,,,,,,,,,,,,,,,,,,,23,-100,-100,293,0.9768278212231838,-2.301262133631101,46,training,188.6511741430004,189.35548030000064,188.6511741430004,189.35548030000064,91.83673469387756,1583871911.5849988,1583871913.8197901,2.2347912788391113,30,52,-6,-6,1583871908.738104,1583871911.5629702,space,1.7102728399986518,,,,,,,,,,,,,,,,,,,,,,,CAN,001,20,female,undergrad,2020_Mar_10_1323,AdjustEyeTrack,3.1.5,60.00911358501288,
107,Stimuli/Morph107.JPG,Stimuli/Morph107.png,Stimuli/BlurLevel5/BlurEditedMorph107,Stimuli/BlurLevel5/BlurEditedMorph107.png,Stimuli/BlurLevel5/NumberedMorphs/BlurEditedMorph107.png,Stimuli/BlurLevel5/OriginalBlur/BlurEditedMorph107.png,Stimuli/BlurMorphTrio/EditedMorph107.png,None,None,0,3,3,106,,,,,,,,,,,,,,,,,,,,,,,,,,,,,,,80,-100,-100,146,-2.072593931387604,1.3979822586768673,107,training,196.01727668999956,196.71427195300203,196.01727668999956,196.71427195300203,98.63945578231292,1583871918.9362931,1583871920.685355,1.7490618228912354,143,106,1,1,1583871916.188192,1583871918.9184809,space,12.237050782998267,,,,,,,,,,,,,,,,,,,,,,,CAN,001,20,female,undergrad,2020_Mar_10_1323,AdjustEyeTrack,3.1.5,60.00911358501288,
90,Stimuli/Morph90.JPG,Stimuli/Morph90.png,Stimuli/BlurLevel5/BlurEditedMorph90,Stimuli/BlurLevel5/BlurEditedMorph90.png,Stimuli/BlurLevel5/NumberedMorphs/BlurEditedMorph90.png,Stimuli/BlurLevel5/OriginalBlur/BlurEditedMorph90.png,Stimuli/BlurMorphTrio/EditedMorph90.png,020275right.gif,Stimuli/normal_thumbnails/90right.gif,0,4,4,89,,,,,,,,,,,,,,,,,,,,,,,,,,,,,,,8,-100,-100,122,-1.324798160583012,2.1201202403910653,90,training,213.59307421300036,214.29605636400083,213.59307421300036,214.29605636400083,94.5578231292517,1583871936.5183208,1583871939.434775,2.916454315185547,40,94,-4,-4,1583871933.586988,1583871936.502172,space,2.882156172003306,,,,,,,,,,,,,,,,,,,,,,,CAN,001,20,female,undergrad,2020_Mar_10_1323,AdjustEyeTrack,3.1.5,60.00911358501288,
133,Stimuli/Morph133.JPG,Stimuli/Morph133.png,Stimuli/BlurLevel5/BlurEditedMorph133,Stimuli/BlurLevel5/BlurEditedMorph133.png,Stimuli/BlurLevel5/NumberedMorphs/BlurEditedMorph133.png,Stimuli/BlurLevel5/OriginalBlur/BlurEditedMorph133.png,Stimuli/BlurMorphTrio/EditedMorph133.png,None,None,0,5,5,132,,,,,,,,,,,,,,,,,,,,,,,,,,,,,,,80,-100,-100,288,0.7725424859373681,-2.377641290737884,133,training,222.73368678199768,223.43400090299838,222.73368678199768,223.43400090299838,76.87074829931973,1583871945.6370099,1583871950.2182028,4.581192970275879,4,116,17,17,1583871943.004698,1583871945.622278,space,4.061964423002792,,,,,,,,,,,,,,,,,,,,,,,CAN,001,20,female,undergrad,2020_Mar_10_1323,AdjustEyeTrack,3.1.5,60.00911358501288,
104,Stimuli/Morph104.JPG,Stimuli/Morph104.png,Stimuli/BlurLevel5/BlurEditedMorph104,Stimuli/BlurLevel5/BlurEditedMorph104.png,Stimuli/BlurLevel5/NumberedMorphs/BlurEditedMorph104.png,Stimuli/BlurLevel5/OriginalBlur/BlurEditedMorph104.png,Stimuli/BlurMorphTrio/EditedMorph104.png,None,None,0,6,6,103,,,,,,,,,,,,,,,,,,,,,,,,,,,,,,,27,-100,-100,8,2.475670171853926,0.3479327524001636,104,training,234.9342821140017,235.65090595999936,234.9342821140017,235.65090595999936,98.63945578231292,1583871957.884761,1583871961.735789,3.8510279655456543,106,103,1,1,1583871954.936979,1583871957.860815,space,5.716804832001799,,,,,,,,,,,,,,,,,,,,,,,CAN,001,20,female,undergrad,2020_Mar_10_1323,AdjustEyeTrack,3.1.5,60.00911358501288,
142,Stimuli/Morph142.JPG,Stimuli/Morph142.png,Stimuli/BlurLevel5/BlurEditedMorph142,Stimuli/BlurLevel5/BlurEditedMorph142.png,Stimuli/BlurLevel5/NumberedMorphs/BlurEditedMorph142.png,Stimuli/BlurLevel5/OriginalBlur/BlurEditedMorph142.png,Stimuli/BlurMorphTrio/EditedMorph142.png,None,None,0,7,7,141,,,,,,,,,,,,,,,,,,,,,,,,,,,,,,,34,-100,-100,12,2.4453690018345142,0.5197792270443984,142,training,248.2260066059971,248.950265872998,248.2260066059971,248.950265872998,79.59183673469387,1583871971.184847,1583871974.70275,3.5179028511047363,59,127,15,15,1583871968.120251,1583871971.1632152,space,3.0429959039975074,,,,,,,,,,,,,,,,,,,,,,,CAN,001,20,female,undergrad,2020_Mar_10_1323,AdjustEyeTrack,3.1.5,60.00911358501288,
92,Stimuli/Morph92.JPG,Stimuli/Morph92.png,Stimuli/BlurLevel5/BlurEditedMorph92,Stimuli/BlurLevel5/BlurEditedMorph92.png,Stimuli/BlurLevel5/NumberedMorphs/BlurEditedMorph92.png,Stimuli/BlurLevel5/OriginalBlur/BlurEditedMorph92.png,Stimuli/BlurMorphTrio/EditedMorph92.png,020277right.gif,Stimuli/normal_thumbnails/92right.gif,0,8,8,91,,,,,,,,,,,,,,,,,,,,,,,,,,,,,,,19,-100,-100,173,-2.481365379103305,0.30467335851286886,92,training,258.5970436330026,259.30007975400076,258.5970436330026,259.30007975400076,98.63945578231292,1583871981.520212,1583871986.034034,4.513822078704834,52,93,-1,-1,1583871978.420675,1583871981.505565,space,3.1737444449972827,,,,,,,,,,,,,,,,,,,,,,,CAN,001,20,female,undergrad,2020_Mar_10_1323,AdjustEyeTrack,3.1.5,60.00911358501288,
146,Stimuli/Morph146.JPG,Stimuli/Morph146.png,Stimuli/BlurLevel5/BlurEditedMorph146,Stimuli/BlurLevel5/BlurEditedMorph146.png,Stimuli/BlurLevel5/NumberedMorphs/BlurEditedMorph146.png,Stimuli/BlurLevel5/OriginalBlur/BlurEditedMorph146.png,Stimuli/BlurMorphTrio/EditedMorph146.png,None,None,0,9,9,145,,,,,,,,,,,,,,,,,,,,,,,,,,,,,,,94,-100,-100,111,-0.8959198738632507,2.3339510662430043,146,training,270.1559449089982,270.8855332439998,270.1559449089982,270.8855332439998,87.75510204081633,1583871993.1194081,1583871995.653008,2.533599853515625,48,137,9,9,1583871989.870517,1583871993.100864,space,1.145919321999827,,,,,,,,,,,,,,,,,,,,,,,CAN,001,20,female,undergrad,2020_Mar_10_1323,AdjustEyeTrack,3.1.5,60.00911358501288,
,,,,,,,,,,,,,,,,,,,,,,,,,,,,,,,,,,,,,,,,,,,,,-100,-100,,,,,training,,,,,,,,,,,,,,,,,277.163518577996,None,277.163518577996,None,277.163518577996,None,space,67.86929086800228,277.163518577996,None,,,,,,,,,,,,,CAN,001,20,female,undergrad,2020_Mar_10_1323,AdjustEyeTrack,3.1.5,60.00911358501288,
119,Stimuli/Morph119.JPG,Stimuli/Morph119.png,Stimuli/BlurLevel5/BlurEditedMorph119,Stimuli/BlurLevel5/BlurEditedMorph119.png,Stimuli/BlurLevel5/NumberedMorphs/BlurEditedMorph119.png,Stimuli/BlurLevel5/OriginalBlur/BlurEditedMorph119.png,Stimuli/BlurMorphTrio/EditedMorph119.png,None,None,,,,,0,0,0,0,0,0,0,118,,,,,,,,,,,,,,,,,,,,,,,39,1,1,129,-1.5733009776245932,1.9428649036424277,119,Experiment,,,,,,,,,31,127,-8,-8,,,,,,,,,,,,,,,346.4292183610014,347.1267760330011,346.4292183610014,347.1267760330011,89.1156462585034,1583872069.350137,1583872072.20166,2.851522922515869,1583872066.517173,1583872069.3226051,,,CAN,001,20,female,undergrad,2020_Mar_10_1323,AdjustEyeTrack,3.1.5,60.00911358501288,
90,Stimuli/Morph90.JPG,Stimuli/Morph90.png,Stimuli/BlurLevel5/BlurEditedMorph90,Stimuli/BlurLevel5/BlurEditedMorph90.png,Stimuli/BlurLevel5/NumberedMorphs/BlurEditedMorph90.png,Stimuli/BlurLevel5/OriginalBlur/BlurEditedMorph90.png,Stimuli/BlurMorphTrio/EditedMorph90.png,020275right.gif,Stimuli/normal_thumbnails/90right.gif,,,,,0,0,0,0,0,1,1,89,,,,,,,,,,,,,,,,,,,,,,,44,2,1,332,2.2073689821473175,-1.173678906964727,90,Experiment,,,,,,,,,92,92,-2,-2,,,,,,,,,,,,,,,352.68614973100193,353.40662857700227,352.68614973100193,353.40662857700227,97.27891156462584,1583872075.633076,1583872077.735658,2.1025819778442383,1583872072.71837,1583872075.617602,,,CAN,001,20,female,undergrad,2020_Mar_10_1323,AdjustEyeTrack,3.1.5,60.00911358501288,
31,Stimuli/Morph31.JPG,Stimuli/Morph31.png,Stimuli/BlurLevel5/BlurEditedMorph31,Stimuli/BlurLevel5/BlurEditedMorph31.png,Stimuli/BlurLevel5/NumberedMorphs/BlurEditedMorph31.png,Stimuli/BlurLevel5/OriginalBlur/BlurEditedMorph31.png,Stimuli/BlurMorphTrio/EditedMorph31.png,010079right.gif,Stimuli/normal_thumbnails/31right.gif,,,,,0,0,0,0,0,2,2,30,,,,,,,,,,,,,,,,,,,,,,,84,3,1,120,-1.2499999999999996,2.1650635094610973,31,Experiment,,,,,,,,,106,53,-22,-22,,,,,,,,,,,,,,,358.36715384299896,359.08264747599605,358.36715384299896,359.08264747599605,70.06802721088435,1583872081.3204522,1583872084.419699,3.0992467403411865,1583872078.250805,1583872081.304949,,,CAN,001,20,female,undergrad,2020_Mar_10_1323,AdjustEyeTrack,3.1.5,60.00911358501288,
143,Stimuli/Morph143.JPG,Stimuli/Morph143.png,Stimuli/BlurLevel5/BlurEditedMorph143,Stimuli/BlurLevel5/BlurEditedMorph143.png,Stimuli/BlurLevel5/NumberedMorphs/BlurEditedMorph143.png,Stimuli/BlurLevel5/OriginalBlur/BlurEditedMorph143.png,Stimuli/BlurMorphTrio/EditedMorph143.png,None,None,,,,,0,0,0,0,0,3,3,142,,,,,,,,,,,,,,,,,,,,,,,27,4,1,316,1.7983495008466273,-1.736645926147494,143,Experiment,,,,,,,,,33,147,-4,-4,,,,,,,,,,,,,,,365.1963046769961,365.93147207499715,365.1963046769961,365.93147207499715,94.5578231292517,1583872088.212677,1583872093.686059,5.473381996154785,1583872084.9343948,1583872088.150374,,,CAN,001,20,female,undergrad,2020_Mar_10_1323,AdjustEyeTrack,3.1.5,60.00911358501288,
48,Stimuli/Morph48.JPG,Stimuli/Morph48.png,Stimuli/BlurLevel5/BlurEditedMorph48,Stimuli/BlurLevel5/BlurEditedMorph48.png,Stimuli/BlurLevel5/NumberedMorphs/BlurEditedMorph48.png,Stimuli/BlurLevel5/OriginalBlur/BlurEditedMorph48.png,Stimuli/BlurMorphTrio/EditedMorph48.png,010131right.gif,Stimuli/normal_thumbnails/48right.gif,,,,,0,0,0,0,0,4,4,47,,,,,,,,,,,,,,,,,,,,,,,4,5,1,169,-2.45406795861916,0.4770224884413624,48,Experiment,,,,,,,,,78,52,-4,-4,,,,,,,,,,,,,,,374.6979358309982,375.40214597999875,374.6979358309982,375.40214597999875,94.5578231292517,1583872097.711179,1583872101.5534139,3.8422348499298096,1583872094.2015328,1583872097.6433458,,,CAN,001,20,female,undergrad,2020_Mar_10_1323,AdjustEyeTrack,3.1.5,60.00911358501288,
4,Stimuli/Morph4.JPG,Stimuli/Morph4.png,Stimuli/BlurLevel5/BlurEditedMorph4,Stimuli/BlurLevel5/BlurEditedMorph4.png,Stimuli/BlurLevel5/NumberedMorphs/BlurEditedMorph4.png,Stimuli/BlurLevel5/OriginalBlur/BlurEditedMorph4.png,Stimuli/BlurMorphTrio/EditedMorph4.png,010010right.gif,Stimuli/normal_thumbnails/4right.gif,,,,,0,0,0,0,0,5,5,3,,,,,,,,,,,,,,,,,,,,,,,85,6,1,318,1.8578620636934855,-1.6728265158971454,4,Experiment,,,,,,,,,49,38,-34,-34,,,,,,,,,,,,,,,382.10227406200283,382.797606113003,382.10227406200283,382.797606113003,53.74149659863945,1583872105.033665,1583872109.386684,4.3530189990997314,1583872102.0674381,1583872105.009148,,,CAN,001,20,female,undergrad,2020_Mar_10_1323,AdjustEyeTrack,3.1.5,60.00911358501288,
118,Stimuli/Morph118.JPG,Stimuli/Morph118.png,Stimuli/BlurLevel5/BlurEditedMorph118,Stimuli/BlurLevel5/BlurEditedMorph118.png,Stimuli/BlurLevel5/NumberedMorphs/BlurEditedMorph118.png,Stimuli/BlurLevel5/OriginalBlur/BlurEditedMorph118.png,Stimuli/BlurMorphTrio/EditedMorph118.png,None,None,,,,,0,0,0,0,0,6,6,117,,,,,,,,,,,,,,,,,,,,,,,82,7,1,133,-1.7049959001562458,1.8283842540479267,118,Experiment,,,,,,,,,124,94,24,24,,,,,,,,,,,,,,,390.2549163969961,390.94760952700017,390.2549163969961,390.94760952700017,67.34693877551021,1583872113.169985,1583872117.769374,4.599388837814331,1583872109.899646,1583872113.1552489,,,CAN,001,20,female,undergrad,2020_Mar_10_1323,AdjustEyeTrack,3.1.5,60.00911358501288,
94,Stimuli/Morph94.JPG,Stimuli/Morph94.png,Stimuli/BlurLevel5/BlurEditedMorph94,Stimuli/BlurLevel5/BlurEditedMorph94.png,Stimuli/BlurLevel5/NumberedMorphs/BlurEditedMorph94.png,Stimuli/BlurLevel5/OriginalBlur/BlurEditedMorph94.png,Stimuli/BlurMorphTrio/EditedMorph94.png,020286right.gif,Stimuli/normal_thumbnails/94right.gif,,,,,0,0,0,0,0,7,7,93,,,,,,,,,,,,,,,,,,,,,,,51,8,1,44,1.798349500846628,1.7366459261474931,94,Experiment,,,,,,,,,114,103,-9,-9,,,,,,,,,,,,,,,398.6074477840011,399.3339948749999,398.6074477840011,399.3339948749999,87.75510204081633,1583872121.616459,1583872124.9193091,3.3028502464294434,1583872118.283187,1583872121.555063,,,CAN,001,20,female,undergrad,2020_Mar_10_1323,AdjustEyeTrack,3.1.5,60.00911358501288,
145,Stimuli/Morph145.JPG,Stimuli/Morph145.png,Stimuli/BlurLevel5/BlurEditedMorph145,Stimuli/BlurLevel5/BlurEditedMorph145.png,Stimuli/BlurLevel5/NumberedMorphs/BlurEditedMorph145.png,Stimuli/BlurLevel5/OriginalBlur/BlurEditedMorph145.png,Stimuli/BlurMorphTrio/EditedMorph145.png,None,None,,,,,0,0,0,0,0,8,8,144,,,,,,,,,,,,,,,,,,,,,,,12,9,1,130,-1.6069690242163481,1.9151111077974452,145,Experiment,,,,,,,,,117,113,32,32,,,,,,,,,,,,,,,405.86043564099964,406.6147233090014,405.86043564099964,406.6147233090014,56.4625850340136,1583872128.88247,1583872131.637723,2.7552530765533447,1583872125.433113,1583872128.86698,,,CAN,001,20,female,undergrad,2020_Mar_10_1323,AdjustEyeTrack,3.1.5,60.00911358501288,
77,Stimuli/Morph77.JPG,Stimuli/Morph77.png,Stimuli/BlurLevel5/BlurEditedMorph77,Stimuli/BlurLevel5/BlurEditedMorph77.png,Stimuli/BlurLevel5/NumberedMorphs/BlurEditedMorph77.png,Stimuli/BlurLevel5/OriginalBlur/BlurEditedMorph77.png,Stimuli/BlurMorphTrio/EditedMorph77.png,020235right.gif,Stimuli/normal_thumbnails/77right.gif,,,,,0,0,0,0,0,9,9,76,,,,,,,,,,,,,,,,,,,,,,,68,10,1,90,1.5308084989341916e-16,2.5,77,Experiment,,,,,,,,,44,111,-34,-34,,,,,,,,,,,,,,,412.2781036209999,412.98887247499806,412.2781036209999,412.98887247499806,53.74149659863945,1583872135.2161548,1583872145.118379,9.90222430229187,1583872132.150055,1583872135.192645,,,CAN,001,20,female,undergrad,2020_Mar_10_1323,AdjustEyeTrack,3.1.5,60.00911358501288,
51,Stimuli/Morph51.JPG,Stimuli/Morph51.png,Stimuli/BlurLevel5/BlurEditedMorph51,Stimuli/BlurLevel5/BlurEditedMorph51.png,Stimuli/BlurLevel5/NumberedMorphs/BlurEditedMorph51.png,Stimuli/BlurLevel5/OriginalBlur/BlurEditedMorph51.png,Stimuli/BlurMorphTrio/EditedMorph51.png,010146right.gif,Stimuli/normal_thumbnails/51right.gif,,,,,0,0,0,0,0,10,10,50,,,,,,,,,,,,,,,,,,,,,,,39,11,1,58,1.3247981605830121,2.120120240391065,51,Experiment,,,,,,,,,1,48,3,3,,,,,,,,,,,,,,,425.89761362999707,426.62766754999757,425.89761362999707,426.62766754999757,95.91836734693877,1583872148.89942,1583872152.21553,3.3161098957061768,1583872145.633368,1583872148.87412,,,CAN,001,20,female,undergrad,2020_Mar_10_1323,AdjustEyeTrack,3.1.5,60.00911358501288,
6,Stimuli/Morph6.JPG,Stimuli/Morph6.png,Stimuli/BlurLevel5/BlurEditedMorph6,Stimuli/BlurLevel5/BlurEditedMorph6.png,Stimuli/BlurLevel5/NumberedMorphs/BlurEditedMorph6.png,Stimuli/BlurLevel5/OriginalBlur/BlurEditedMorph6.png,Stimuli/BlurMorphTrio/EditedMorph6.png,010012right.gif,Stimuli/normal_thumbnails/6right.gif,,,,,0,0,0,0,0,11,11,5,,,,,,,,,,,,,,,,,,,,,,,20,12,1,89,0.043631016093209,2.499619237890978,6,Experiment,,,,,,,,,100,22,-16,-16,,,,,,,,,,,,,,,432.8070702879995,433.5233392059963,432.8070702879995,433.5233392059963,78.2312925170068,1583872155.7490401,1583872159.951135,4.202094793319702,1583872152.733043,1583872155.7337,,,CAN,001,20,female,undergrad,2020_Mar_10_1323,AdjustEyeTrack,3.1.5,60.00911358501288,
120,Stimuli/Morph120.JPG,Stimuli/Morph120.png,Stimuli/BlurLevel5/BlurEditedMorph120,Stimuli/BlurLevel5/BlurEditedMorph120.png,Stimuli/BlurLevel5/NumberedMorphs/BlurEditedMorph120.png,Stimuli/BlurLevel5/OriginalBlur/BlurEditedMorph120.png,Stimuli/BlurMorphTrio/EditedMorph120.png,None,None,,,,,0,0,0,0,0,12,12,119,,,,,,,,,,,,,,,,,,,,,,,42,13,1,61,1.2120240506158428,2.1865492678484895,120,Experiment,,,,,,,,,51,103,17,17,,,,,,,,,,,,,,,440.6982909770013,441.4095507710008,440.6982909770013,441.4095507710008,76.87074829931973,1583872163.6327229,1583872168.469583,4.836860179901123,1583872160.4658198,1583872163.6067488,,,CAN,001,20,female,undergrad,2020_Mar_10_1323,AdjustEyeTrack,3.1.5,60.00911358501288,
30,Stimuli/Morph30.JPG,Stimuli/Morph30.png,Stimuli/BlurLevel5/BlurEditedMorph30,Stimuli/BlurLevel5/BlurEditedMorph30.png,Stimuli/BlurLevel5/NumberedMorphs/BlurEditedMorph30.png,Stimuli/BlurLevel5/OriginalBlur/BlurEditedMorph30.png,Stimuli/BlurMorphTrio/EditedMorph30.png,010076right.gif,Stimuli/normal_thumbnails/30right.gif,,,,,0,0,0,0,0,13,13,29,,,,,,,,,,,,,,,,,,,,,,,4,14,1,59,1.2875951872751354,2.142918251755281,30,Experiment,,,,,,,,,24,52,-22,-22,,,,,,,,,,,,,,,449.20714744299767,449.9204511459975,449.20714744299767,449.9204511459975,70.06802721088435,1583872172.198932,1583872173.682186,1.4832539558410645,1583872168.98294,1583872172.126535,,,CAN,001,20,female,undergrad,2020_Mar_10_1323,AdjustEyeTrack,3.1.5,60.00911358501288,
107,Stimuli/Morph107.JPG,Stimuli/Morph107.png,Stimuli/BlurLevel5/BlurEditedMorph107,Stimuli/BlurLevel5/BlurEditedMorph107.png,Stimuli/BlurLevel5/NumberedMorphs/BlurEditedMorph107.png,Stimuli/BlurLevel5/OriginalBlur/BlurEditedMorph107.png,Stimuli/BlurMorphTrio/EditedMorph107.png,None,None,,,,,0,0,0,0,0,14,14,106,,,,,,,,,,,,,,,,,,,,,,,4,15,1,108,-0.7725424859373684,2.377641290737884,107,Experiment,,,,,,,,,25,94,13,13,,,,,,,,,,,,,,,454.0825293079979,454.8013932879985,454.0825293079979,454.8013932879985,82.31292517006803,1583872177.050693,1583872179.584085,2.5333919525146484,1583872174.1994948,1583872177.036913,,,CAN,001,20,female,undergrad,2020_Mar_10_1323,AdjustEyeTrack,3.1.5,60.00911358501288,
67,Stimuli/Morph67.JPG,Stimuli/Morph67.png,Stimuli/BlurLevel5/BlurEditedMorph67,Stimuli/BlurLevel5/BlurEditedMorph67.png,Stimuli/BlurLevel5/NumberedMorphs/BlurEditedMorph67.png,Stimuli/BlurLevel5/OriginalBlur/BlurEditedMorph67.png,Stimuli/BlurMorphTrio/EditedMorph67.png,020217right.gif,Stimuli/normal_thumbnails/67right.gif,,,,,0,0,0,0,0,15,15,66,,,,,,,,,,,,,,,,,,,,,,,34,16,1,56,1.3979822586768673,2.072593931387604,67,Experiment,,,,,,,,,113,69,-2,-2,,,,,,,,,,,,,,,460.3035889379971,461.0165244079981,460.3035889379971,461.0165244079981,97.27891156462584,1583872183.249278,1583872188.264996,5.01571798324585,1583872180.0997682,1583872183.227676,,,CAN,001,20,female,undergrad,2020_Mar_10_1323,AdjustEyeTrack,3.1.5,60.00911358501288,
134,Stimuli/Morph134.JPG,Stimuli/Morph134.png,Stimuli/BlurLevel5/BlurEditedMorph134,Stimuli/BlurLevel5/BlurEditedMorph134.png,Stimuli/BlurLevel5/NumberedMorphs/BlurEditedMorph134.png,Stimuli/BlurLevel5/OriginalBlur/BlurEditedMorph134.png,Stimuli/BlurMorphTrio/EditedMorph134.png,None,None,,,,,0,0,0,0,0,16,16,133,,,,,,,,,,,,,,,,,,,,,,,11,17,1,327,2.0966764198635603,-1.3615975875375674,134,Experiment,,,,,,,,,92,122,12,12,,,,,,,,,,,,,,,469.0909053610012,469.8188782319994,469.0909053610012,469.8188782319994,83.6734693877551,1583872192.101405,1583872195.469409,3.368004083633423,1583872188.782366,1583872192.032375,,,CAN,001,20,female,undergrad,2020_Mar_10_1323,AdjustEyeTrack,3.1.5,60.00911358501288,
103,Stimuli/Morph103.JPG,Stimuli/Morph103.png,Stimuli/BlurLevel5/BlurEditedMorph103,Stimuli/BlurLevel5/BlurEditedMorph103.png,Stimuli/BlurLevel5/NumberedMorphs/BlurEditedMorph103.png,Stimuli/BlurLevel5/OriginalBlur/BlurEditedMorph103.png,Stimuli/BlurMorphTrio/EditedMorph103.png,None,None,,,,,0,0,0,0,0,17,17,102,,,,,,,,,,,,,,,,,,,,,,,67,18,1,217,-1.996588775118232,-1.504537557880121,103,Experiment,,,,,,,,,41,76,27,27,,,,,,,,,,,,,,,476.01267698899755,476.7341480850009,476.01267698899755,476.7341480850009,63.26530612244898,1583872198.967834,1583872203.948551,4.980716943740845,1583872195.9823391,1583872198.953197,,,CAN,001,20,female,undergrad,2020_Mar_10_1323,AdjustEyeTrack,3.1.5,60.00911358501288,
113,Stimuli/Morph113.JPG,Stimuli/Morph113.png,Stimuli/BlurLevel5/BlurEditedMorph113,Stimuli/BlurLevel5/BlurEditedMorph113.png,Stimuli/BlurLevel5/NumberedMorphs/BlurEditedMorph113.png,Stimuli/BlurLevel5/OriginalBlur/BlurEditedMorph113.png,Stimuli/BlurMorphTrio/EditedMorph113.png,None,None,,,,,0,0,0,0,0,18,18,112,,,,,,,,,,,,,,,,,,,,,,,36,19,1,246,-1.0168416076895002,-2.2838636441065026,113,Experiment,,,,,,,,,147,138,-25,-25,,,,,,,,,,,,,,,484.5586476640019,485.26257183500275,484.5586476640019,485.26257183500275,65.98639455782313,1583872207.4989471,1583872213.6983109,6.199363708496094,1583872204.465751,1583872207.474855,,,CAN,001,20,female,undergrad,2020_Mar_10_1323,AdjustEyeTrack,3.1.5,60.00911358501288,
125,Stimuli/Morph125.JPG,Stimuli/Morph125.png,Stimuli/BlurLevel5/BlurEditedMorph125,Stimuli/BlurLevel5/BlurEditedMorph125.png,Stimuli/BlurLevel5/NumberedMorphs/BlurEditedMorph125.png,Stimuli/BlurLevel5/OriginalBlur/BlurEditedMorph125.png,Stimuli/BlurMorphTrio/EditedMorph125.png,None,None,,,,,0,0,0,0,0,19,19,124,,,,,,,,,,,,,,,,,,,,,,,77,20,1,77,0.5623776358596623,2.435925161963088,125,Experiment,,,,,,,,,131,104,21,21,,,,,,,,,,,,,,,494.14214902099775,494.8426786670025,494.14214902099775,494.8426786670025,71.42857142857143,1583872217.068182,1583872218.482365,1.4141829013824463,1583872214.216195,1583872217.05323,,,CAN,001,20,female,undergrad,2020_Mar_10_1323,AdjustEyeTrack,3.1.5,60.00911358501288,
129,Stimuli/Morph129.JPG,Stimuli/Morph129.png,Stimuli/BlurLevel5/BlurEditedMorph129,Stimuli/BlurLevel5/BlurEditedMorph129.png,Stimuli/BlurLevel5/NumberedMorphs/BlurEditedMorph129.png,Stimuli/BlurLevel5/OriginalBlur/BlurEditedMorph129.png,Stimuli/BlurMorphTrio/EditedMorph129.png,None,None,,,,,0,0,0,0,0,20,20,128,,,,,,,,,,,,,,,,,,,,,,,54,21,1,171,-2.469220851487844,0.39108616260057744,129,Experiment,,,,,,,,,59,88,41,41,,,,,,,,,,,,,,,498.91856423600257,499.62473343199963,498.91856423600257,499.62473343199963,44.21768707482994,1583872221.848186,1583872224.568894,2.720707893371582,1583872219.016665,1583872221.82791,,,CAN,001,20,female,undergrad,2020_Mar_10_1323,AdjustEyeTrack,3.1.5,60.00911358501288,
136,Stimuli/Morph136.JPG,Stimuli/Morph136.png,Stimuli/BlurLevel5/BlurEditedMorph136,Stimuli/BlurLevel5/BlurEditedMorph136.png,Stimuli/BlurLevel5/NumberedMorphs/BlurEditedMorph136.png,Stimuli/BlurLevel5/OriginalBlur/BlurEditedMorph136.png,Stimuli/BlurMorphTrio/EditedMorph136.png,None,None,,,,,0,0,0,0,0,21,21,135,,,,,,,,,,,,,,,,,,,,,,,83,22,1,86,0.1743911843603131,2.4939101256495606,136,Experiment,,,,,,,,,132,102,34,34,,,,,,,,,,,,,,,505.1394665569969,505.85095047699724,505.1394665569969,505.85095047699724,53.74149659863945,1583872228.081342,1583872230.231935,2.1505930423736572,1583872225.082589,1583872228.06624,,,CAN,001,20,female,undergrad,2020_Mar_10_1323,AdjustEyeTrack,3.1.5,60.00911358501288,
97,Stimuli/Morph97.JPG,Stimuli/Morph97.png,Stimuli/BlurLevel5/BlurEditedMorph97,Stimuli/BlurLevel5/BlurEditedMorph97.png,Stimuli/BlurLevel5/NumberedMorphs/BlurEditedMorph97.png,Stimuli/BlurLevel5/OriginalBlur/BlurEditedMorph97.png,Stimuli/BlurMorphTrio/EditedMorph97.png,020294right.gif,Stimuli/normal_thumbnails/97right.gif,,,,,0,0,0,0,0,22,22,96,,,,,,,,,,,,,,,,,,,,,,,81,23,1,192,-2.445369001834514,-0.5197792270443988,97,Experiment,,,,,,,,,96,143,-46,-46,,,,,,,,,,,,,,,510.5291726189971,511.21954483199806,510.5291726189971,511.21954483199806,37.414965986394556,1583872233.452113,1583872236.581357,3.129244089126587,1583872230.749109,1583872233.438234,,,CAN,001,20,female,undergrad,2020_Mar_10_1323,AdjustEyeTrack,3.1.5,60.00911358501288,
140,Stimuli/Morph140.JPG,Stimuli/Morph140.png,Stimuli/BlurLevel5/BlurEditedMorph140,Stimuli/BlurLevel5/BlurEditedMorph140.png,Stimuli/BlurLevel5/NumberedMorphs/BlurEditedMorph140.png,Stimuli/BlurLevel5/OriginalBlur/BlurEditedMorph140.png,Stimuli/BlurMorphTrio/EditedMorph140.png,None,None,,,,,0,0,0,0,0,23,23,139,,,,,,,,,,,,,,,,,,,,,,,28,24,1,4,2.4939101256495606,0.17439118436031326,140,Experiment,,,,,,,,,74,147,-7,-7,,,,,,,,,,,,,,,517.221109596001,517.9422725740005,517.221109596001,517.9422725740005,90.47619047619048,1583872240.1508648,1583872247.4811451,7.330280303955078,1583872237.101556,1583872240.135555,,,CAN,001,20,female,undergrad,2020_Mar_10_1323,AdjustEyeTrack,3.1.5,60.00911358501288,
75,Stimuli/Morph75.JPG,Stimuli/Morph75.png,Stimuli/BlurLevel5/BlurEditedMorph75,Stimuli/BlurLevel5/BlurEditedMorph75.png,Stimuli/BlurLevel5/NumberedMorphs/BlurEditedMorph75.png,Stimuli/BlurLevel5/OriginalBlur/BlurEditedMorph75.png,Stimuli/BlurMorphTrio/EditedMorph75.png,020233right.gif,Stimuli/normal_thumbnails/75right.gif,,,,,0,0,0,0,0,24,24,74,,,,,,,,,,,,,,,,,,,,,,,73,25,1,138,-1.857862063693485,1.6728265158971458,75,Experiment,,,,,,,,,141,49,26,26,,,,,,,,,,,,,,,527.8644907069975,528.5645903699988,527.8644907069975,528.5645903699988,64.62585034013605,1583872250.7811358,1583872255.14787,4.366734266281128,1583872247.999208,1583872250.765152,,,CAN,001,20,female,undergrad,2020_Mar_10_1323,AdjustEyeTrack,3.1.5,60.00911358501288,
3,Stimuli/Morph3.JPG,Stimuli/Morph3.png,Stimuli/BlurLevel5/BlurEditedMorph3,Stimuli/BlurLevel5/BlurEditedMorph3.png,Stimuli/BlurLevel5/NumberedMorphs/BlurEditedMorph3.png,Stimuli/BlurLevel5/OriginalBlur/BlurEditedMorph3.png,Stimuli/BlurMorphTrio/EditedMorph3.png,010009right.gif,Stimuli/normal_thumbnails/3right.gif,,,,,0,0,0,0,0,25,25,2,,,,,,,,,,,,,,,,,,,,,,,12,26,1,17,2.3907618899075884,0.7309292618068419,3,Experiment,,,,,,,,,112,144,-141,6,,,,,,,,,,,,,,,535.9299102009973,536.6861593180001,535.9299102009973,536.6861593180001,91.83673469387756,1583872258.9146109,1583872269.697561,10.782950162887573,1583872255.666812,1583872258.8983848,,,CAN,001,20,female,undergrad,2020_Mar_10_1323,AdjustEyeTrack,3.1.5,60.00911358501288,
78,Stimuli/Morph78.JPG,Stimuli/Morph78.png,Stimuli/BlurLevel5/BlurEditedMorph78,Stimuli/BlurLevel5/BlurEditedMorph78.png,Stimuli/BlurLevel5/NumberedMorphs/BlurEditedMorph78.png,Stimuli/BlurLevel5/OriginalBlur/BlurEditedMorph78.png,Stimuli/BlurMorphTrio/EditedMorph78.png,020238right.gif,Stimuli/normal_thumbnails/78right.gif,,,,,0,0,0,0,0,26,26,77,,,,,,,,,,,,,,,,,,,,,,,6,27,1,318,1.8578620636934855,-1.6728265158971454,78,Experiment,,,,,,,,,73,108,-30,-30,,,,,,,,,,,,,,,550.3873826850031,551.1149765130031,550.3873826850031,551.1149765130031,59.183673469387756,1583872273.348356,1583872275.614,2.265644073486328,1583872270.214984,1583872273.322895,,,CAN,001,20,female,undergrad,2020_Mar_10_1323,AdjustEyeTrack,3.1.5,60.00911358501288,
54,Stimuli/Morph54.JPG,Stimuli/Morph54.png,Stimuli/BlurLevel5/BlurEditedMorph54,Stimuli/BlurLevel5/BlurEditedMorph54.png,Stimuli/BlurLevel5/NumberedMorphs/BlurEditedMorph54.png,Stimuli/BlurLevel5/OriginalBlur/BlurEditedMorph54.png,Stimuli/BlurMorphTrio/EditedMorph54.png,010150right.gif,Stimuli/normal_thumbnails/54right.gif,,,,,0,0,0,0,0,27,27,53,,,,,,,,,,,,,,,,,,,,,,,74,28,1,239,-1.2875951872751363,-2.1429182517552805,54,Experiment,,,,,,,,,48,48,6,6,,,,,,,,,,,,,,,556.1425341029972,556.8439337559976,556.1425341029972,556.8439337559976,91.83673469387756,1583872279.0993762,1583872280.081274,0.9818978309631348,1583872276.131543,1583872279.084469,,,CAN,001,20,female,undergrad,2020_Mar_10_1323,AdjustEyeTrack,3.1.5,60.00911358501288,
76,Stimuli/Morph76.JPG,Stimuli/Morph76.png,Stimuli/BlurLevel5/BlurEditedMorph76,Stimuli/BlurLevel5/BlurEditedMorph76.png,Stimuli/BlurLevel5/NumberedMorphs/BlurEditedMorph76.png,Stimuli/BlurLevel5/OriginalBlur/BlurEditedMorph76.png,Stimuli/BlurMorphTrio/EditedMorph76.png,020234right.gif,Stimuli/normal_thumbnails/76right.gif,,,,,0,0,0,0,0,28,28,75,,,,,,,,,,,,,,,,,,,,,,,63,29,1,358,2.4984770675477392,-0.08724874175625204,76,Experiment,,,,,,,,,87,123,-47,-47,,,,,,,,,,,,,,,560.4988997629989,561.2182643959968,560.4988997629989,561.2182643959968,36.05442176870748,1583872283.4490712,1583872287.0473979,3.5983266830444336,1583872280.5977752,1583872283.435539,,,CAN,001,20,female,undergrad,2020_Mar_10_1323,AdjustEyeTrack,3.1.5,60.00911358501288,
68,Stimuli/Morph68.JPG,Stimuli/Morph68.png,Stimuli/BlurLevel5/BlurEditedMorph68,Stimuli/BlurLevel5/BlurEditedMorph68.png,Stimuli/BlurLevel5/NumberedMorphs/BlurEditedMorph68.png,Stimuli/BlurLevel5/OriginalBlur/BlurEditedMorph68.png,Stimuli/BlurMorphTrio/EditedMorph68.png,020218right.gif,Stimuli/normal_thumbnails/68right.gif,,,,,0,0,0,0,0,29,29,67,,,,,,,,,,,,,,,,,,,,,,,10,30,1,334,2.246985115747917,-1.0959278669726944,68,Experiment,,,,,,,,,110,69,-1,-1,,,,,,,,,,,,,,,567.5295139759983,568.2572687380016,567.5295139759983,568.2572687380016,98.63945578231292,1583872290.493851,1583872297.430799,6.93694806098938,1583872287.5822809,1583872290.4647071,,,CAN,001,20,female,undergrad,2020_Mar_10_1323,AdjustEyeTrack,3.1.5,60.00911358501288,
100,Stimuli/Morph100.JPG,Stimuli/Morph100.png,Stimuli/BlurLevel5/BlurEditedMorph100,Stimuli/BlurLevel5/BlurEditedMorph100.png,Stimuli/BlurLevel5/NumberedMorphs/BlurEditedMorph100.png,Stimuli/BlurLevel5/OriginalBlur/BlurEditedMorph100.png,Stimuli/BlurMorphTrio/EditedMorph100.png,020297right.gif,Stimuli/normal_thumbnails/100right.gif,,,,,0,0,0,0,0,30,30,99,,,,,,,,,,,,,,,,,,,,,,,11,31,1,180,-2.5,3.061616997868383e-16,100,Experiment,,,,,,,,,133,127,-27,-27,,,,,,,,,,,,,,,578.2900769539992,579.0237213639994,578.2900769539992,579.0237213639994,63.26530612244898,1583872301.2319832,1583872304.614125,3.3821418285369873,1583872297.964949,1583872301.218876,,,CAN,001,20,female,undergrad,2020_Mar_10_1323,AdjustEyeTrack,3.1.5,60.00911358501288,
53,Stimuli/Morph53.JPG,Stimuli/Morph53.png,Stimuli/BlurLevel5/BlurEditedMorph53,Stimuli/BlurLevel5/BlurEditedMorph53.png,Stimuli/BlurLevel5/NumberedMorphs/BlurEditedMorph53.png,Stimuli/BlurLevel5/OriginalBlur/BlurEditedMorph53.png,Stimuli/BlurMorphTrio/EditedMorph53.png,010149right.gif,Stimuli/normal_thumbnails/53right.gif,,,,,0,0,0,0,0,31,31,52,,,,,,,,,,,,,,,,,,,,,,,69,32,1,105,-0.6470476127563021,2.4148145657226707,53,Experiment,,,,,,,,,91,50,3,3,,,,,,,,,,,,,,,585.3325750529984,586.0456617770033,585.3325750529984,586.0456617770033,95.91836734693877,1583872308.281715,1583872313.247524,4.965809106826782,1583872305.147904,1583872308.2552419,,,CAN,001,20,female,undergrad,2020_Mar_10_1323,AdjustEyeTrack,3.1.5,60.00911358501288,
7,Stimuli/Morph7.JPG,Stimuli/Morph7.png,Stimuli/BlurLevel5/BlurEditedMorph7,Stimuli/BlurLevel5/BlurEditedMorph7.png,Stimuli/BlurLevel5/NumberedMorphs/BlurEditedMorph7.png,Stimuli/BlurLevel5/OriginalBlur/BlurEditedMorph7.png,Stimuli/BlurMorphTrio/EditedMorph7.png,010013right.gif,Stimuli/normal_thumbnails/7right.gif,,,,,0,0,0,0,0,32,32,6,,,,,,,,,,,,,,,,,,,,,,,53,33,1,328,2.1201202403910644,-1.3247981605830126,7,Experiment,,,,,,,,,45,49,-42,-42,,,,,,,,,,,,,,,593.8379526099961,594.5522817180026,593.8379526099961,594.5522817180026,42.85714285714286,1583872316.814948,1583872324.864716,8.049767971038818,1583872313.7818089,1583872316.789172,,,CAN,001,20,female,undergrad,2020_Mar_10_1323,AdjustEyeTrack,3.1.5,60.00911358501288,
128,Stimuli/Morph128.JPG,Stimuli/Morph128.png,Stimuli/BlurLevel5/BlurEditedMorph128,Stimuli/BlurLevel5/BlurEditedMorph128.png,Stimuli/BlurLevel5/NumberedMorphs/BlurEditedMorph128.png,Stimuli/BlurLevel5/OriginalBlur/BlurEditedMorph128.png,Stimuli/BlurMorphTrio/EditedMorph128.png,None,None,,,,,0,0,0,0,0,33,33,127,,,,,,,,,,,,,,,,,,,,,,,11,34,1,236,-1.3979822586768664,-2.0725939313876047,128,Experiment,,,,,,,,,5,111,17,17,,,,,,,,,,,,,,,605.6515897759964,606.3789585470004,605.6515897759964,606.3789585470004,76.87074829931973,1583872328.634155,1583872335.6304681,6.996313095092773,1583872325.398519,1583872328.6188061,,,CAN,001,20,female,undergrad,2020_Mar_10_1323,AdjustEyeTrack,3.1.5,60.00911358501288,
12,Stimuli/Morph12.JPG,Stimuli/Morph12.png,Stimuli/BlurLevel5/BlurEditedMorph12,Stimuli/BlurLevel5/BlurEditedMorph12.png,Stimuli/BlurLevel5/NumberedMorphs/BlurEditedMorph12.png,Stimuli/BlurLevel5/OriginalBlur/BlurEditedMorph12.png,Stimuli/BlurMorphTrio/EditedMorph12.png,010026right.gif,Stimuli/normal_thumbnails/12right.gif,,,,,0,0,0,0,0,34,34,11,,,,,,,,,,,,,,,,,,,,,,,42,35,1,225,-1.7677669529663693,-1.7677669529663687,12,Experiment,,,,,,,,,82,27,-15,-15,,,,,,,,,,,,,,,616.3831681329975,617.1279116180012,616.3831681329975,617.1279116180012,79.59183673469387,1583872339.363467,1583872344.680117,5.316649913787842,1583872336.147733,1583872339.3448598,,,CAN,001,20,female,undergrad,2020_Mar_10_1323,AdjustEyeTrack,3.1.5,60.00911358501288,
137,Stimuli/Morph137.JPG,Stimuli/Morph137.png,Stimuli/BlurLevel5/BlurEditedMorph137,Stimuli/BlurLevel5/BlurEditedMorph137.png,Stimuli/BlurLevel5/NumberedMorphs/BlurEditedMorph137.png,Stimuli/BlurLevel5/OriginalBlur/BlurEditedMorph137.png,Stimuli/BlurMorphTrio/EditedMorph137.png,None,None,,,,,0,0,0,0,0,35,35,136,,,,,,,,,,,,,,,,,,,,,,,71,36,1,76,0.6048047389991692,2.425739315689991,137,Experiment,,,,,,,,,141,143,-6,-6,,,,,,,,,,,,,,,625.0517444880024,625.756760117998,625.0517444880024,625.756760117998,91.83673469387756,1583872347.9825861,1583872355.2967098,7.314123630523682,1583872345.196688,1583872347.9678888,,,CAN,001,20,female,undergrad,2020_Mar_10_1323,AdjustEyeTrack,3.1.5,60.00911358501288,
104,Stimuli/Morph104.JPG,Stimuli/Morph104.png,Stimuli/BlurLevel5/BlurEditedMorph104,Stimuli/BlurLevel5/BlurEditedMorph104.png,Stimuli/BlurLevel5/NumberedMorphs/BlurEditedMorph104.png,Stimuli/BlurLevel5/OriginalBlur/BlurEditedMorph104.png,Stimuli/BlurMorphTrio/EditedMorph104.png,None,None,,,,,0,0,0,0,0,36,36,103,,,,,,,,,,,,,,,,,,,,,,,54,37,1,249,-0.8959198738632518,-2.333951066243004,104,Experiment,,,,,,,,,59,141,-37,-37,,,,,,,,,,,,,,,635.7198497360005,636.4258783920013,635.7198497360005,636.4258783920013,49.65986394557823,1583872358.66306,1583872363.863638,5.200577974319458,1583872355.833211,1583872358.647434,,,CAN,001,20,female,undergrad,2020_Mar_10_1323,AdjustEyeTrack,3.1.5,60.00911358501288,
19,Stimuli/Morph19.JPG,Stimuli/Morph19.png,Stimuli/BlurLevel5/BlurEditedMorph19,Stimuli/BlurLevel5/BlurEditedMorph19.png,Stimuli/BlurLevel5/NumberedMorphs/BlurEditedMorph19.png,Stimuli/BlurLevel5/OriginalBlur/BlurEditedMorph19.png,Stimuli/BlurMorphTrio/EditedMorph19.png,010045right.gif,Stimuli/normal_thumbnails/19right.gif,,,,,0,0,0,0,0,37,37,18,,,,,,,,,,,,,,,,,,,,,,,10,38,1,14,2.425739315689991,0.6048047389991693,19,Experiment,,,,,,,,,13,19,0,0,,,,,,,,,,,,,,,644.281945445,644.9916686419965,644.281945445,644.9916686419965,100.0,1583872367.2139058,1583872370.912866,3.698960304260254,1583872364.3974552,1583872367.197553,,,CAN,001,20,female,undergrad,2020_Mar_10_1323,AdjustEyeTrack,3.1.5,60.00911358501288,
50,Stimuli/Morph50.JPG,Stimuli/Morph50.png,Stimuli/BlurLevel5/BlurEditedMorph50,Stimuli/BlurLevel5/BlurEditedMorph50.png,Stimuli/BlurLevel5/NumberedMorphs/BlurEditedMorph50.png,Stimuli/BlurLevel5/OriginalBlur/BlurEditedMorph50.png,Stimuli/BlurMorphTrio/EditedMorph50.png,010142right.gif,Stimuli/normal_thumbnails/50right.gif,,,,,0,0,0,0,0,38,38,49,,,,,,,,,,,,,,,,,,,,,,,75,39,1,5,2.4904867452293638,0.2178893568691454,50,Experiment,,,,,,,,,84,57,-7,-7,,,,,,,,,,,,,,,651.2328288049976,651.9402425099979,651.2328288049976,651.9402425099979,90.47619047619048,1583872374.16286,1583872378.862965,4.7001051902771,1583872371.446742,1583872374.147451,,,CAN,001,20,female,undergrad,2020_Mar_10_1323,AdjustEyeTrack,3.1.5,60.00911358501288,
99,Stimuli/Morph99.JPG,Stimuli/Morph99.png,Stimuli/BlurLevel5/BlurEditedMorph99,Stimuli/BlurLevel5/BlurEditedMorph99.png,Stimuli/BlurLevel5/NumberedMorphs/BlurEditedMorph99.png,Stimuli/BlurLevel5/OriginalBlur/BlurEditedMorph99.png,Stimuli/BlurMorphTrio/EditedMorph99.png,020299right.gif,Stimuli/normal_thumbnails/99right.gif,,,,,0,0,0,0,0,39,39,98,,,,,,,,,,,,,,,,,,,,,,,67,40,1,12,2.4453690018345142,0.5197792270443984,99,Experiment,,,,,,,,,125,96,3,3,,,,,,,,,,,,,,,659.397699055,660.1390401539975,659.397699055,660.1390401539975,95.91836734693877,1583872382.366852,1583872387.097046,4.730193853378296,1583872379.397107,1583872382.352525,,,CAN,001,20,female,undergrad,2020_Mar_10_1323,AdjustEyeTrack,3.1.5,60.00911358501288,
84,Stimuli/Morph84.JPG,Stimuli/Morph84.png,Stimuli/BlurLevel5/BlurEditedMorph84,Stimuli/BlurLevel5/BlurEditedMorph84.png,Stimuli/BlurLevel5/NumberedMorphs/BlurEditedMorph84.png,Stimuli/BlurLevel5/OriginalBlur/BlurEditedMorph84.png,Stimuli/BlurMorphTrio/EditedMorph84.png,020261right.gif,Stimuli/normal_thumbnails/84right.gif,,,,,0,0,0,0,0,40,40,83,,,,,,,,,,,,,,,,,,,,,,,18,41,1,27,2.2275163104709197,1.1349762493488669,84,Experiment,,,,,,,,,47,141,-57,-57,,,,,,,,,,,,,,,667.3191190159996,668.0101747969966,667.3191190159996,668.0101747969966,22.44897959183674,1583872390.233711,1583872392.912904,2.6791930198669434,1583872387.6302001,1583872390.219003,,,CAN,001,20,female,undergrad,2020_Mar_10_1323,AdjustEyeTrack,3.1.5,60.00911358501288,
98,Stimuli/Morph98.JPG,Stimuli/Morph98.png,Stimuli/BlurLevel5/BlurEditedMorph98,Stimuli/BlurLevel5/BlurEditedMorph98.png,Stimuli/BlurLevel5/NumberedMorphs/BlurEditedMorph98.png,Stimuli/BlurLevel5/OriginalBlur/BlurEditedMorph98.png,Stimuli/BlurMorphTrio/EditedMorph98.png,020298right.gif,Stimuli/normal_thumbnails/98right.gif,,,,,0,0,0,0,0,41,41,97,,,,,,,,,,,,,,,,,,,,,,,38,42,1,198,-2.377641290737884,-0.7725424859373682,98,Experiment,,,,,,,,,59,145,-47,-47,,,,,,,,,,,,,,,673.4438149209964,674.1632549970018,673.4438149209964,674.1632549970018,36.05442176870748,1583872396.396184,1583872399.6305861,3.2344021797180176,1583872393.446634,1583872396.37249,,,CAN,001,20,female,undergrad,2020_Mar_10_1323,AdjustEyeTrack,3.1.5,60.00911358501288,
21,Stimuli/Morph21.JPG,Stimuli/Morph21.png,Stimuli/BlurLevel5/BlurEditedMorph21,Stimuli/BlurLevel5/BlurEditedMorph21.png,Stimuli/BlurLevel5/NumberedMorphs/BlurEditedMorph21.png,Stimuli/BlurLevel5/OriginalBlur/BlurEditedMorph21.png,Stimuli/BlurMorphTrio/EditedMorph21.png,010049right.gif,Stimuli/normal_thumbnails/21right.gif,,,,,0,0,0,0,0,42,42,20,,,,,,,,,,,,,,,,,,,,,,,10,43,1,98,-0.3479327524001634,2.475670171853926,21,Experiment,,,,,,,,,2,137,-116,31,,,,,,,,,,,,,,,680.0594019229975,680.7611576709969,680.0594019229975,680.7611576709969,57.82312925170068,1583872402.9969878,1583872409.62926,6.632272243499756,1583872400.181707,1583872402.98002,,,CAN,001,20,female,undergrad,2020_Mar_10_1323,AdjustEyeTrack,3.1.5,60.00911358501288,
80,Stimuli/Morph80.JPG,Stimuli/Morph80.png,Stimuli/BlurLevel5/BlurEditedMorph80,Stimuli/BlurLevel5/BlurEditedMorph80.png,Stimuli/BlurLevel5/NumberedMorphs/BlurEditedMorph80.png,Stimuli/BlurLevel5/OriginalBlur/BlurEditedMorph80.png,Stimuli/BlurMorphTrio/EditedMorph80.png,020240right.gif,Stimuli/normal_thumbnails/80right.gif,,,,,0,0,0,0,0,43,43,79,,,,,,,,,,,,,,,,,,,,,,,5,44,1,227,-1.7049959001562465,-1.828384254047926,80,Experiment,,,,,,,,,93,105,-25,-25,,,,,,,,,,,,,,,690.0891760840022,690.7943617979981,690.0891760840022,690.7943617979981,65.98639455782313,1583872413.032508,1583872416.862891,3.830383062362671,1583872410.1966898,1583872413.017348,,,CAN,001,20,female,undergrad,2020_Mar_10_1323,AdjustEyeTrack,3.1.5,60.00911358501288,
61,Stimuli/Morph61.JPG,Stimuli/Morph61.png,Stimuli/BlurLevel5/BlurEditedMorph61,Stimuli/BlurLevel5/BlurEditedMorph61.png,Stimuli/BlurLevel5/NumberedMorphs/BlurEditedMorph61.png,Stimuli/BlurLevel5/OriginalBlur/BlurEditedMorph61.png,Stimuli/BlurMorphTrio/EditedMorph61.png,020201right.gif,Stimuli/normal_thumbnails/61right.gif,,,,,0,0,0,0,0,44,44,60,,,,,,,,,,,,,,,,,,,,,,,62,45,1,88,0.0872487417562527,2.4984770675477392,61,Experiment,,,,,,,,,24,67,-6,-6,,,,,,,,,,,,,,,697.4225902249964,698.1336220980011,697.4225902249964,698.1336220980011,91.83673469387756,1583872420.3655412,1583872423.296108,2.9305667877197266,1583872417.4138439,1583872420.350749,,,CAN,001,20,female,undergrad,2020_Mar_10_1323,AdjustEyeTrack,3.1.5,60.00911358501288,
33,Stimuli/Morph33.JPG,Stimuli/Morph33.png,Stimuli/BlurLevel5/BlurEditedMorph33,Stimuli/BlurLevel5/BlurEditedMorph33.png,Stimuli/BlurLevel5/NumberedMorphs/BlurEditedMorph33.png,Stimuli/BlurLevel5/OriginalBlur/BlurEditedMorph33.png,Stimuli/BlurMorphTrio/EditedMorph33.png,010089right.gif,Stimuli/normal_thumbnails/33right.gif,,,,,0,0,0,0,0,45,45,32,,,,,,,,,,,,,,,,,,,,,,,68,46,1,245,-1.0565456543517477,-2.2657694675916256,33,Experiment,,,,,,,,,40,39,-6,-6,,,,,,,,,,,,,,,703.7707040519963,704.4768141910026,703.7707040519963,704.4768141910026,91.83673469387756,1583872426.763884,1583872430.797199,4.033314943313599,1583872423.8301098,1583872426.739375,,,CAN,001,20,female,undergrad,2020_Mar_10_1323,AdjustEyeTrack,3.1.5,60.00911358501288,
69,Stimuli/Morph69.JPG,Stimuli/Morph69.png,Stimuli/BlurLevel5/BlurEditedMorph69,Stimuli/BlurLevel5/BlurEditedMorph69.png,Stimuli/BlurLevel5/NumberedMorphs/BlurEditedMorph69.png,Stimuli/BlurLevel5/OriginalBlur/BlurEditedMorph69.png,Stimuli/BlurMorphTrio/EditedMorph69.png,020220right.gif,Stimuli/normal_thumbnails/69right.gif,,,,,0,0,0,0,0,46,46,68,,,,,,,,,,,,,,,,,,,,,,,7,47,1,23,2.3012621336311008,0.9768278212231845,69,Experiment,,,,,,,,,13,68,1,1,,,,,,,,,,,,,,,711.3178300130021,712.0315619749963,711.3178300130021,712.0315619749963,98.63945578231292,1583872434.2631822,1583872437.895723,3.6325409412384033,1583872431.363446,1583872434.246062,,,CAN,001,20,female,undergrad,2020_Mar_10_1323,AdjustEyeTrack,3.1.5,60.00911358501288,
45,Stimuli/Morph45.JPG,Stimuli/Morph45.png,Stimuli/BlurLevel5/BlurEditedMorph45,Stimuli/BlurLevel5/BlurEditedMorph45.png,Stimuli/BlurLevel5/NumberedMorphs/BlurEditedMorph45.png,Stimuli/BlurLevel5/OriginalBlur/BlurEditedMorph45.png,Stimuli/BlurMorphTrio/EditedMorph45.png,010127right.gif,Stimuli/normal_thumbnails/45right.gif,,,,,0,0,0,0,0,47,47,44,,,,,,,,,,,,,,,,,,,,,,,85,48,1,357,2.4965738368864345,-0.13083989060736093,45,Experiment,,,,,,,,,121,54,-9,-9,,,,,,,,,,,,,,,718.3594083170028,719.0670367299972,718.3594083170028,719.0670367299972,87.75510204081633,1583872441.296159,1583872443.9458072,2.6496481895446777,1583872438.513929,1583872441.2799659,,,CAN,001,20,female,undergrad,2020_Mar_10_1323,AdjustEyeTrack,3.1.5,60.00911358501288,
87,Stimuli/Morph87.JPG,Stimuli/Morph87.png,Stimuli/BlurLevel5/BlurEditedMorph87,Stimuli/BlurLevel5/BlurEditedMorph87.png,Stimuli/BlurLevel5/NumberedMorphs/BlurEditedMorph87.png,Stimuli/BlurLevel5/OriginalBlur/BlurEditedMorph87.png,Stimuli/BlurMorphTrio/EditedMorph87.png,020270right.gif,Stimuli/normal_thumbnails/87right.gif,,,,,0,0,0,0,0,48,48,86,,,,,,,,,,,,,,,,,,,,,,,98,49,1,14,2.425739315689991,0.6048047389991693,87,Experiment,,,,,,,,,141,64,23,23,,,,,,,,,,,,,,,724.5574072340023,725.2815599399983,724.5574072340023,725.2815599399983,68.70748299319727,1583872447.530163,1583872449.896003,2.365839958190918,1583872444.4812858,1583872447.504857,,,CAN,001,20,female,undergrad,2020_Mar_10_1323,AdjustEyeTrack,3.1.5,60.00911358501288,
41,Stimuli/Morph41.JPG,Stimuli/Morph41.png,Stimuli/BlurLevel5/BlurEditedMorph41,Stimuli/BlurLevel5/BlurEditedMorph41.png,Stimuli/BlurLevel5/NumberedMorphs/BlurEditedMorph41.png,Stimuli/BlurLevel5/OriginalBlur/BlurEditedMorph41.png,Stimuli/BlurMorphTrio/EditedMorph41.png,010112right.gif,Stimuli/normal_thumbnails/41right.gif,,,,,0,0,0,0,0,49,49,40,,,,,,,,,,,,,,,,,,,,,,,67,50,1,81,0.3910861626005773,2.4692208514878446,41,Experiment,,,,,,,,,4,54,-13,-13,,,,,,,,,,,,,,,730.4575511139992,731.2099177970013,730.4575511139992,731.2099177970013,82.31292517006803,1583872453.446572,1583872456.6788192,3.2322471141815186,1583872450.463189,1583872453.431454,,,CAN,001,20,female,undergrad,2020_Mar_10_1323,AdjustEyeTrack,3.1.5,60.00911358501288,
91,Stimuli/Morph91.JPG,Stimuli/Morph91.png,Stimuli/BlurLevel5/BlurEditedMorph91,Stimuli/BlurLevel5/BlurEditedMorph91.png,Stimuli/BlurLevel5/NumberedMorphs/BlurEditedMorph91.png,Stimuli/BlurLevel5/OriginalBlur/BlurEditedMorph91.png,Stimuli/BlurMorphTrio/EditedMorph91.png,020276right.gif,Stimuli/normal_thumbnails/91right.gif,,,,,0,0,0,0,0,50,50,90,,,,,,,,,,,,,,,,,,,,,,,62,51,1,70,0.8550503583141721,2.349231551964771,91,Experiment,,,,,,,,,27,62,29,29,,,,,,,,,,,,,,,737.2600757460023,737.9654034889973,737.2600757460023,737.9654034889973,60.544217687074834,1583872460.195971,1583872463.428736,3.232764959335327,1583872457.2301,1583872460.1740239,,,CAN,001,20,female,undergrad,2020_Mar_10_1323,AdjustEyeTrack,3.1.5,60.00911358501288,
36,Stimuli/Morph36.JPG,Stimuli/Morph36.png,Stimuli/BlurLevel5/BlurEditedMorph36,Stimuli/BlurLevel5/BlurEditedMorph36.png,Stimuli/BlurLevel5/NumberedMorphs/BlurEditedMorph36.png,Stimuli/BlurLevel5/OriginalBlur/BlurEditedMorph36.png,Stimuli/BlurMorphTrio/EditedMorph36.png,010095right.gif,Stimuli/normal_thumbnails/36right.gif,,,,,0,0,0,0,0,51,51,35,,,,,,,,,,,,,,,,,,,,,,,81,52,1,14,2.425739315689991,0.6048047389991693,36,Experiment,,,,,,,,,24,53,-17,-17,,,,,,,,,,,,,,,743.7351515280025,744.438415374003,743.7351515280025,744.438415374003,76.87074829931973,1583872466.679581,1583872471.495465,4.815884113311768,1583872463.9628758,1583872466.655326,,,CAN,001,20,female,undergrad,2020_Mar_10_1323,AdjustEyeTrack,3.1.5,60.00911358501288,
110,Stimuli/Morph110.JPG,Stimuli/Morph110.png,Stimuli/BlurLevel5/BlurEditedMorph110,Stimuli/BlurLevel5/BlurEditedMorph110.png,Stimuli/BlurLevel5/NumberedMorphs/BlurEditedMorph110.png,Stimuli/BlurLevel5/OriginalBlur/BlurEditedMorph110.png,Stimuli/BlurMorphTrio/EditedMorph110.png,None,None,,,,,0,0,0,0,0,52,52,109,,,,,,,,,,,,,,,,,,,,,,,20,53,1,49,1.6401475724762684,1.8867739505569299,110,Experiment,,,,,,,,,103,131,-21,-21,,,,,,,,,,,,,,,751.9466698539982,752.6660148899973,751.9466698539982,752.6660148899973,71.42857142857143,1583872474.8958862,1583872483.996346,9.100459814071655,1583872472.0467122,1583872474.871685,,,CAN,001,20,female,undergrad,2020_Mar_10_1323,AdjustEyeTrack,3.1.5,60.00911358501288,
39,Stimuli/Morph39.JPG,Stimuli/Morph39.png,Stimuli/BlurLevel5/BlurEditedMorph39,Stimuli/BlurLevel5/BlurEditedMorph39.png,Stimuli/BlurLevel5/NumberedMorphs/BlurEditedMorph39.png,Stimuli/BlurLevel5/OriginalBlur/BlurEditedMorph39.png,Stimuli/BlurMorphTrio/EditedMorph39.png,010109right.gif,Stimuli/normal_thumbnails/39right.gif,,,,,0,0,0,0,0,53,53,38,,,,,,,,,,,,,,,,,,,,,,,27,54,1,18,2.3776412907378837,0.7725424859373685,39,Experiment,,,,,,,,,92,53,-14,-14,,,,,,,,,,,,,,,764.7134535799996,765.4387705409972,764.7134535799996,765.4387705409972,80.95238095238095,1583872487.749542,1583872495.3791502,7.629608154296875,1583872484.7139552,1583872487.7347589,,,CAN,001,20,female,undergrad,2020_Mar_10_1323,AdjustEyeTrack,3.1.5,60.00911358501288,
55,Stimuli/Morph55.JPG,Stimuli/Morph55.png,Stimuli/BlurLevel5/BlurEditedMorph55,Stimuli/BlurLevel5/BlurEditedMorph55.png,Stimuli/BlurLevel5/NumberedMorphs/BlurEditedMorph55.png,Stimuli/BlurLevel5/OriginalBlur/BlurEditedMorph55.png,Stimuli/BlurMorphTrio/EditedMorph55.png,010151right.gif,Stimuli/normal_thumbnails/55right.gif,,,,,0,0,0,0,0,54,54,54,,,,,,,,,,,,,,,,,,,,,,,62,55,1,204,-2.283863644106502,-1.0168416076895006,55,Experiment,,,,,,,,,33,51,4,4,,,,,,,,,,,,,,,775.9134792639961,776.6473177070002,775.9134792639961,776.6473177070002,94.5578231292517,1583872498.881072,1583872500.912459,2.0313868522644043,1583872495.912895,1583872498.866478,,,CAN,001,20,female,undergrad,2020_Mar_10_1323,AdjustEyeTrack,3.1.5,60.00911358501288,
102,Stimuli/Morph102.JPG,Stimuli/Morph102.png,Stimuli/BlurLevel5/BlurEditedMorph102,Stimuli/BlurLevel5/BlurEditedMorph102.png,Stimuli/BlurLevel5/NumberedMorphs/BlurEditedMorph102.png,Stimuli/BlurLevel5/OriginalBlur/BlurEditedMorph102.png,Stimuli/BlurMorphTrio/EditedMorph102.png,None,None,,,,,0,0,0,0,0,55,55,101,,,,,,,,,,,,,,,,,,,,,,,99,56,1,114,-1.0168416076895006,2.283863644106502,102,Experiment,,,,,,,,,103,69,33,33,,,,,,,,,,,,,,,781.2122994199963,781.9057517460024,781.2122994199963,781.9057517460024,55.10204081632652,1583872504.14514,1583872512.662772,8.517632007598877,1583872501.446034,1583872504.122111,,,CAN,001,20,female,undergrad,2020_Mar_10_1323,AdjustEyeTrack,3.1.5,60.00911358501288,
46,Stimuli/Morph46.JPG,Stimuli/Morph46.png,Stimuli/BlurLevel5/BlurEditedMorph46,Stimuli/BlurLevel5/BlurEditedMorph46.png,Stimuli/BlurLevel5/NumberedMorphs/BlurEditedMorph46.png,Stimuli/BlurLevel5/OriginalBlur/BlurEditedMorph46.png,Stimuli/BlurMorphTrio/EditedMorph46.png,010128right.gif,Stimuli/normal_thumbnails/46right.gif,,,,,0,0,0,0,0,56,56,45,,,,,,,,,,,,,,,,,,,,,,,35,57,1,45,1.7677669529663689,1.7677669529663687,46,Experiment,,,,,,,,,5,59,-13,-13,,,,,,,,,,,,,,,793.058422492999,793.7706370669985,793.058422492999,793.7706370669985,82.31292517006803,1583872516.012291,1583872518.145391,2.1331000328063965,1583872513.19621,1583872515.998147,,,CAN,001,20,female,undergrad,2020_Mar_10_1323,AdjustEyeTrack,3.1.5,60.00911358501288,
11,Stimuli/Morph11.JPG,Stimuli/Morph11.png,Stimuli/BlurLevel5/BlurEditedMorph11,Stimuli/BlurLevel5/BlurEditedMorph11.png,Stimuli/BlurLevel5/NumberedMorphs/BlurEditedMorph11.png,Stimuli/BlurLevel5/OriginalBlur/BlurEditedMorph11.png,Stimuli/BlurMorphTrio/EditedMorph11.png,010024right.gif,Stimuli/normal_thumbnails/11right.gif,,,,,0,0,0,0,0,57,57,10,,,,,,,,,,,,,,,,,,,,,,,26,58,1,238,-1.3247981605830126,-2.1201202403910644,11,Experiment,,,,,,,,,101,5,6,6,,,,,,,,,,,,,,,798.5434461100012,799.2402740289981,798.5434461100012,799.2402740289981,91.83673469387756,1583872521.488071,1583872528.9318788,7.44380784034729,1583872518.6957471,1583872521.461667,,,CAN,001,20,female,undergrad,2020_Mar_10_1323,AdjustEyeTrack,3.1.5,60.00911358501288,
5,Stimuli/Morph5.JPG,Stimuli/Morph5.png,Stimuli/BlurLevel5/BlurEditedMorph5,Stimuli/BlurLevel5/BlurEditedMorph5.png,Stimuli/BlurLevel5/NumberedMorphs/BlurEditedMorph5.png,Stimuli/BlurLevel5/OriginalBlur/BlurEditedMorph5.png,Stimuli/BlurMorphTrio/EditedMorph5.png,010011right.gif,Stimuli/normal_thumbnails/5right.gif,,,,,0,0,0,0,0,58,58,4,,,,,,,,,,,,,,,,,,,,,,,80,59,1,19,2.363796438998292,0.8139203861428917,5,Experiment,,,,,,,,,16,140,-135,12,,,,,,,,,,,,,,,809.2626147499977,809.9806414060004,809.2626147499977,809.9806414060004,83.6734693877551,1583872532.245546,1583872535.4458601,3.2003140449523926,1583872529.461954,1583872532.220066,,,CAN,001,20,female,undergrad,2020_Mar_10_1323,AdjustEyeTrack,3.1.5,60.00911358501288,
2,Stimuli/Morph2.JPG,Stimuli/Morph2.png,Stimuli/BlurLevel5/BlurEditedMorph2,Stimuli/BlurLevel5/BlurEditedMorph2.png,Stimuli/BlurLevel5/NumberedMorphs/BlurEditedMorph2.png,Stimuli/BlurLevel5/OriginalBlur/BlurEditedMorph2.png,Stimuli/BlurMorphTrio/EditedMorph2.png,010006right.gif,Stimuli/normal_thumbnails/2right.gif,,,,,0,0,0,0,0,59,59,1,,,,,,,,,,,,,,,,,,,,,,,19,60,1,244,-1.0959278669726944,-2.246985115747917,2,Experiment,,,,,,,,,134,141,-139,8,,,,,,,,,,,,,,,816.1910561429977,816.9087792669961,816.1910561429977,816.9087792669961,89.1156462585034,1583872539.145171,1583872544.2965949,5.151423931121826,1583872535.995598,1583872539.119904,,,CAN,001,20,female,undergrad,2020_Mar_10_1323,AdjustEyeTrack,3.1.5,60.00911358501288,
58,Stimuli/Morph58.JPG,Stimuli/Morph58.png,Stimuli/BlurLevel5/BlurEditedMorph58,Stimuli/BlurLevel5/BlurEditedMorph58.png,Stimuli/BlurLevel5/NumberedMorphs/BlurEditedMorph58.png,Stimuli/BlurLevel5/OriginalBlur/BlurEditedMorph58.png,Stimuli/BlurMorphTrio/EditedMorph58.png,010159right.gif,Stimuli/normal_thumbnails/58right.gif,,,,,0,0,0,0,0,60,60,57,,,,,,,,,,,,,,,,,,,,,,,33,61,1,323,1.996588775118232,-1.5045375578801208,58,Experiment,,,,,,,,,81,40,18,18,,,,,,,,,,,,,,,824.7381074090008,825.4472807100028,824.7381074090008,825.4472807100028,75.51020408163265,1583872547.6966279,1583872552.0651038,4.368475914001465,1583872544.829531,1583872547.678783,,,CAN,001,20,female,undergrad,2020_Mar_10_1323,AdjustEyeTrack,3.1.5,60.00911358501288,
115,Stimuli/Morph115.JPG,Stimuli/Morph115.png,Stimuli/BlurLevel5/BlurEditedMorph115,Stimuli/BlurLevel5/BlurEditedMorph115.png,Stimuli/BlurLevel5/NumberedMorphs/BlurEditedMorph115.png,Stimuli/BlurLevel5/OriginalBlur/BlurEditedMorph115.png,Stimuli/BlurMorphTrio/EditedMorph115.png,None,None,,,,,0,0,0,0,0,61,61,114,,,,,,,,,,,,,,,,,,,,,,,77,62,1,323,1.996588775118232,-1.5045375578801208,115,Experiment,,,,,,,,,71,142,-27,-27,,,,,,,,,,,,,,,832.5447712969981,833.2641828970009,832.5447712969981,833.2641828970009,63.26530612244898,1583872555.527824,1583872571.7158122,16.18798828125,1583872552.617454,1583872555.499882,,,CAN,001,20,female,undergrad,2020_Mar_10_1323,AdjustEyeTrack,3.1.5,60.00911358501288,
8,Stimuli/Morph8.JPG,Stimuli/Morph8.png,Stimuli/BlurLevel5/BlurEditedMorph8,Stimuli/BlurLevel5/BlurEditedMorph8.png,Stimuli/BlurLevel5/NumberedMorphs/BlurEditedMorph8.png,Stimuli/BlurLevel5/OriginalBlur/BlurEditedMorph8.png,Stimuli/BlurMorphTrio/EditedMorph8.png,010014right.gif,Stimuli/normal_thumbnails/8right.gif,,,,,0,0,0,0,0,62,62,7,,,,,,,,,,,,,,,,,,,,,,,68,63,1,206,-2.2469851157479175,-1.0959278669726937,8,Experiment,,,,,,,,,63,14,-6,-6,,,,,,,,,,,,,,,852.3102552119963,853.039884894999,852.3102552119963,853.039884894999,91.83673469387756,1583872575.358426,1583872583.862033,8.503606796264648,1583872572.245278,1583872575.331219,,,CAN,001,20,female,undergrad,2020_Mar_10_1323,AdjustEyeTrack,3.1.5,60.00911358501288,
66,Stimuli/Morph66.JPG,Stimuli/Morph66.png,Stimuli/BlurLevel5/BlurEditedMorph66,Stimuli/BlurLevel5/BlurEditedMorph66.png,Stimuli/BlurLevel5/NumberedMorphs/BlurEditedMorph66.png,Stimuli/BlurLevel5/OriginalBlur/BlurEditedMorph66.png,Stimuli/BlurMorphTrio/EditedMorph66.png,020212right.gif,Stimuli/normal_thumbnails/66right.gif,,,,,0,0,0,0,0,63,63,65,,,,,,,,,,,,,,,,,,,,,,,11,64,1,18,2.3776412907378837,0.7725424859373685,66,Experiment,,,,,,,,,101,72,-6,-6,,,,,,,,,,,,,,,864.6901862759987,865.4363636400012,864.6901862759987,865.4363636400012,91.83673469387756,1583872587.677772,1583872591.2311969,3.553424835205078,1583872584.397045,1583872587.650471,,,CAN,001,20,female,undergrad,2020_Mar_10_1323,AdjustEyeTrack,3.1.5,60.00911358501288,
147,Stimuli/Morph147.JPG,Stimuli/Morph147.png,Stimuli/BlurLevel5/BlurEditedMorph147,Stimuli/BlurLevel5/BlurEditedMorph147.png,Stimuli/BlurLevel5/NumberedMorphs/BlurEditedMorph147.png,Stimuli/BlurLevel5/OriginalBlur/BlurEditedMorph147.png,Stimuli/BlurMorphTrio/EditedMorph147.png,None,None,,,,,0,0,0,0,0,64,64,146,,,,,,,,,,,,,,,,,,,,,,,70,65,1,283,0.5623776358596623,-2.435925161963088,147,Experiment,,,,,,,,,51,46,101,-46,,,,,,,,,,,,,,,871.6268458139966,872.3530457989982,871.6268458139966,872.3530457989982,37.414965986394556,1583872594.660953,1583872602.39435,7.733397006988525,1583872591.794492,1583872594.635935,,,CAN,001,20,female,undergrad,2020_Mar_10_1323,AdjustEyeTrack,3.1.5,60.00911358501288,
95,Stimuli/Morph95.JPG,Stimuli/Morph95.png,Stimuli/BlurLevel5/BlurEditedMorph95,Stimuli/BlurLevel5/BlurEditedMorph95.png,Stimuli/BlurLevel5/NumberedMorphs/BlurEditedMorph95.png,Stimuli/BlurLevel5/OriginalBlur/BlurEditedMorph95.png,Stimuli/BlurMorphTrio/EditedMorph95.png,020287right.gif,Stimuli/normal_thumbnails/95right.gif,,,,,0,0,0,0,0,65,65,94,,,,,,,,,,,,,,,,,,,,,,,16,66,1,105,-0.6470476127563021,2.4148145657226707,95,Experiment,,,,,,,,,31,67,28,28,,,,,,,,,,,,,,,882.901435380998,883.6218507759986,882.901435380998,883.6218507759986,61.904761904761905,1583872605.8608482,1583872608.6772292,2.8163809776306152,1583872602.928283,1583872605.8369431,,,CAN,001,20,female,undergrad,2020_Mar_10_1323,AdjustEyeTrack,3.1.5,60.00911358501288,
126,Stimuli/Morph126.JPG,Stimuli/Morph126.png,Stimuli/BlurLevel5/BlurEditedMorph126,Stimuli/BlurLevel5/BlurEditedMorph126.png,Stimuli/BlurLevel5/NumberedMorphs/BlurEditedMorph126.png,Stimuli/BlurLevel5/OriginalBlur/BlurEditedMorph126.png,Stimuli/BlurMorphTrio/EditedMorph126.png,None,None,,,,,0,0,0,0,0,66,66,125,,,,,,,,,,,,,,,,,,,,,,,5,67,1,233,-1.5045375578801208,-1.996588775118232,126,Experiment,,,,,,,,,58,66,60,60,,,,,,,,,,,,,,,889.0622619880014,889.8059449520006,889.0622619880014,889.8059449520006,18.36734693877551,1583872612.037318,1583872616.677716,4.640398025512695,1583872609.2107809,1583872612.003231,,,CAN,001,20,female,undergrad,2020_Mar_10_1323,AdjustEyeTrack,3.1.5,60.00911358501288,
146,Stimuli/Morph146.JPG,Stimuli/Morph146.png,Stimuli/BlurLevel5/BlurEditedMorph146,Stimuli/BlurLevel5/BlurEditedMorph146.png,Stimuli/BlurLevel5/NumberedMorphs/BlurEditedMorph146.png,Stimuli/BlurLevel5/OriginalBlur/BlurEditedMorph146.png,Stimuli/BlurMorphTrio/EditedMorph146.png,None,None,,,,,0,0,0,0,0,67,67,145,,,,,,,,,,,,,,,,,,,,,,,10,68,1,168,-2.4453690018345142,0.5197792270443982,146,Experiment,,,,,,,,,39,51,95,-52,,,,,,,,,,,,,,,897.0796607590019,897.793799056999,897.0796607590019,897.793799056999,29.25170068027211,1583872620.029336,1583872624.727402,4.698065996170044,1583872617.211393,1583872620.015407,,,CAN,001,20,female,undergrad,2020_Mar_10_1323,AdjustEyeTrack,3.1.5,60.00911358501288,
18,Stimuli/Morph18.JPG,Stimuli/Morph18.png,Stimuli/BlurLevel5/BlurEditedMorph18,Stimuli/BlurLevel5/BlurEditedMorph18.png,Stimuli/BlurLevel5/NumberedMorphs/BlurEditedMorph18.png,Stimuli/BlurLevel5/OriginalBlur/BlurEditedMorph18.png,Stimuli/BlurMorphTrio/EditedMorph18.png,010039right.gif,Stimuli/normal_thumbnails/18right.gif,,,,,0,0,0,0,0,68,68,17,,,,,,,,,,,,,,,,,,,,,,,30,69,1,30,2.165063509461097,1.2499999999999998,18,Experiment,,,,,,,,,39,51,-33,-33,,,,,,,,,,,,,,,905.221000573998,906.0359870280008,905.221000573998,906.0359870280008,55.10204081632652,1583872628.294692,1583872631.243952,2.9492599964141846,1583872625.2627158,1583872628.277728,,,CAN,001,20,female,undergrad,2020_Mar_10_1323,AdjustEyeTrack,3.1.5,60.00911358501288,
96,Stimuli/Morph96.JPG,Stimuli/Morph96.png,Stimuli/BlurLevel5/BlurEditedMorph96,Stimuli/BlurLevel5/BlurEditedMorph96.png,Stimuli/BlurLevel5/NumberedMorphs/BlurEditedMorph96.png,Stimuli/BlurLevel5/OriginalBlur/BlurEditedMorph96.png,Stimuli/BlurMorphTrio/EditedMorph96.png,020292right.gif,Stimuli/normal_thumbnails/96right.gif,,,,,0,0,0,0,0,69,69,95,,,,,,,,,,,,,,,,,,,,,,,67,70,1,206,-2.2469851157479175,-1.0959278669726937,96,Experiment,,,,,,,,,6,80,16,16,,,,,,,,,,,,,,,911.8725610050024,912.6069359100002,911.8725610050024,912.6069359100002,78.2312925170068,1583872634.845598,1583872644.976968,10.131370067596436,1583872631.777739,1583872634.829396,,,CAN,001,20,female,undergrad,2020_Mar_10_1323,AdjustEyeTrack,3.1.5,60.00911358501288,
15,Stimuli/Morph15.JPG,Stimuli/Morph15.png,Stimuli/BlurLevel5/BlurEditedMorph15,Stimuli/BlurLevel5/BlurEditedMorph15.png,Stimuli/BlurLevel5/NumberedMorphs/BlurEditedMorph15.png,Stimuli/BlurLevel5/OriginalBlur/BlurEditedMorph15.png,Stimuli/BlurMorphTrio/EditedMorph15.png,010031right.gif,Stimuli/normal_thumbnails/15right.gif,,,,,0,0,0,0,0,70,70,14,,,,,,,,,,,,,,,,,,,,,,,48,71,1,169,-2.45406795861916,0.4770224884413624,15,Experiment,,,,,,,,,4,23,-8,-8,,,,,,,,,,,,,,,925.4327746339986,926.1564454699983,925.4327746339986,926.1564454699983,89.1156462585034,1583872648.4114938,1583872652.460066,4.048572301864624,1583872645.511178,1583872648.3968809,,,CAN,001,20,female,undergrad,2020_Mar_10_1323,AdjustEyeTrack,3.1.5,60.00911358501288,
20,Stimuli/Morph20.JPG,Stimuli/Morph20.png,Stimuli/BlurLevel5/BlurEditedMorph20,Stimuli/BlurLevel5/BlurEditedMorph20.png,Stimuli/BlurLevel5/NumberedMorphs/BlurEditedMorph20.png,Stimuli/BlurLevel5/OriginalBlur/BlurEditedMorph20.png,Stimuli/BlurMorphTrio/EditedMorph20.png,010046right.gif,Stimuli/normal_thumbnails/20right.gif,,,,,0,0,0,0,0,71,71,19,,,,,,,,,,,,,,,,,,,,,,,30,72,1,196,-2.4031542398457972,-0.6890933895424975,20,Experiment,,,,,,,,,143,29,-9,-9,,,,,,,,,,,,,,,932.948074877997,933.655985641999,932.948074877997,933.655985641999,87.75510204081633,1583872655.9125261,1583872660.893139,4.980612754821777,1583872652.993867,1583872655.897484,,,CAN,001,20,female,undergrad,2020_Mar_10_1323,AdjustEyeTrack,3.1.5,60.00911358501288,
130,Stimuli/Morph130.JPG,Stimuli/Morph130.png,Stimuli/BlurLevel5/BlurEditedMorph130,Stimuli/BlurLevel5/BlurEditedMorph130.png,Stimuli/BlurLevel5/NumberedMorphs/BlurEditedMorph130.png,Stimuli/BlurLevel5/OriginalBlur/BlurEditedMorph130.png,Stimuli/BlurMorphTrio/EditedMorph130.png,None,None,,,,,0,0,0,0,0,72,72,129,,,,,,,,,,,,,,,,,,,,,,,12,73,1,249,-0.8959198738632518,-2.333951066243004,130,Experiment,,,,,,,,,28,16,114,-33,,,,,,,,,,,,,,,941.6256712649993,942.3612488619983,941.6256712649993,942.3612488619983,55.10204081632652,1583872664.611393,1583872667.7956328,3.1842398643493652,1583872661.427775,1583872664.597434,,,CAN,001,20,female,undergrad,2020_Mar_10_1323,AdjustEyeTrack,3.1.5,60.00911358501288,
27,Stimuli/Morph27.JPG,Stimuli/Morph27.png,Stimuli/BlurLevel5/BlurEditedMorph27,Stimuli/BlurLevel5/BlurEditedMorph27.png,Stimuli/BlurLevel5/NumberedMorphs/BlurEditedMorph27.png,Stimuli/BlurLevel5/OriginalBlur/BlurEditedMorph27.png,Stimuli/BlurMorphTrio/EditedMorph27.png,010072right.gif,Stimuli/normal_thumbnails/27right.gif,,,,,0,0,0,0,0,73,73,26,,,,,,,,,,,,,,,,,,,,,,,2,74,1,99,-0.39108616260057705,2.4692208514878446,27,Experiment,,,,,,,,,47,25,2,2,,,,,,,,,,,,,,,948.214846996998,948.9196992180005,948.214846996998,948.9196992180005,97.27891156462584,1583872671.176712,1583872674.4098072,3.233095169067383,1583872668.327733,1583872671.160678,,,CAN,001,20,female,undergrad,2020_Mar_10_1323,AdjustEyeTrack,3.1.5,60.00911358501288,
24,Stimuli/Morph24.JPG,Stimuli/Morph24.png,Stimuli/BlurLevel5/BlurEditedMorph24,Stimuli/BlurLevel5/BlurEditedMorph24.png,Stimuli/BlurLevel5/NumberedMorphs/BlurEditedMorph24.png,Stimuli/BlurLevel5/OriginalBlur/BlurEditedMorph24.png,Stimuli/BlurMorphTrio/EditedMorph24.png,010068right.gif,Stimuli/normal_thumbnails/24right.gif,,,,,0,0,0,0,0,74,74,23,,,,,,,,,,,,,,,,,,,,,,,27,75,1,153,-2.2275163104709197,1.134976249348867,24,Experiment,,,,,,,,,7,28,-4,-4,,,,,,,,,,,,,,,955.0229019510007,955.7393272120025,955.0229019510007,955.7393272120025,94.5578231292517,1583872677.993702,1583872687.759784,9.766082048416138,1583872674.961216,1583872677.978274,,,CAN,001,20,female,undergrad,2020_Mar_10_1323,AdjustEyeTrack,3.1.5,60.00911358501288,
43,Stimuli/Morph43.JPG,Stimuli/Morph43.png,Stimuli/BlurLevel5/BlurEditedMorph43,Stimuli/BlurLevel5/BlurEditedMorph43.png,Stimuli/BlurLevel5/NumberedMorphs/BlurEditedMorph43.png,Stimuli/BlurLevel5/OriginalBlur/BlurEditedMorph43.png,Stimuli/BlurMorphTrio/EditedMorph43.png,010124right.gif,Stimuli/normal_thumbnails/43right.gif,,,,,0,0,0,0,0,75,75,42,,,,,,,,,,,,,,,,,,,,,,,66,76,1,262,-0.3479327524001646,-2.475670171853926,43,Experiment,,,,,,,,,48,36,7,7,,,,,,,,,,,,,,,968.1115765880022,968.8204954949979,968.1115765880022,968.8204954949979,90.47619047619048,1583872691.076189,1583872693.07652,2.000330924987793,1583872688.293507,1583872691.061644,,,CAN,001,20,female,undergrad,2020_Mar_10_1323,AdjustEyeTrack,3.1.5,60.00911358501288,
93,Stimuli/Morph93.JPG,Stimuli/Morph93.png,Stimuli/BlurLevel5/BlurEditedMorph93,Stimuli/BlurLevel5/BlurEditedMorph93.png,Stimuli/BlurLevel5/NumberedMorphs/BlurEditedMorph93.png,Stimuli/BlurLevel5/OriginalBlur/BlurEditedMorph93.png,Stimuli/BlurMorphTrio/EditedMorph93.png,020280right.gif,Stimuli/normal_thumbnails/93right.gif,,,,,0,0,0,0,0,76,76,92,,,,,,,,,,,,,,,,,,,,,,,10,77,1,141,-1.9428649036424273,1.5733009776245934,93,Experiment,,,,,,,,,122,44,49,49,,,,,,,,,,,,,,,973.5253242159961,974.2355805199986,973.5253242159961,974.2355805199986,33.333333333333336,1583872696.478761,1583872702.528107,6.049345970153809,1583872693.610271,1583872696.451437,,,CAN,001,20,female,undergrad,2020_Mar_10_1323,AdjustEyeTrack,3.1.5,60.00911358501288,
89,Stimuli/Morph89.JPG,Stimuli/Morph89.png,Stimuli/BlurLevel5/BlurEditedMorph89,Stimuli/BlurLevel5/BlurEditedMorph89.png,Stimuli/BlurLevel5/NumberedMorphs/BlurEditedMorph89.png,Stimuli/BlurLevel5/OriginalBlur/BlurEditedMorph89.png,Stimuli/BlurMorphTrio/EditedMorph89.png,020273right.gif,Stimuli/normal_thumbnails/89right.gif,,,,,0,0,0,0,0,77,77,88,,,,,,,,,,,,,,,,,,,,,,,81,78,1,90,1.5308084989341916e-16,2.5,89,Experiment,,,,,,,,,117,129,-40,-40,,,,,,,,,,,,,,,982.848560778999,983.5556738599989,982.848560778999,983.5556738599989,45.578231292517,1583872705.804815,1583872709.72642,3.921604871749878,1583872703.061261,1583872705.7802508,,,CAN,001,20,female,undergrad,2020_Mar_10_1323,AdjustEyeTrack,3.1.5,60.00911358501288,
62,Stimuli/Morph62.JPG,Stimuli/Morph62.png,Stimuli/BlurLevel5/BlurEditedMorph62,Stimuli/BlurLevel5/BlurEditedMorph62.png,Stimuli/BlurLevel5/NumberedMorphs/BlurEditedMorph62.png,Stimuli/BlurLevel5/OriginalBlur/BlurEditedMorph62.png,Stimuli/BlurMorphTrio/EditedMorph62.png,020205right.gif,Stimuli/normal_thumbnails/62right.gif,,,,,0,0,0,0,0,78,78,61,,,,,,,,,,,,,,,,,,,,,,,20,79,1,108,-0.7725424859373684,2.377641290737884,62,Experiment,,,,,,,,,92,63,-1,-1,,,,,,,,,,,,,,,990.2762950659962,990.9742493270023,990.2762950659962,990.9742493270023,98.63945578231292,1583872713.2095659,1583872716.9429739,3.733407974243164,1583872710.3114,1583872713.193934,,,CAN,001,20,female,undergrad,2020_Mar_10_1323,AdjustEyeTrack,3.1.5,60.00911358501288,
52,Stimuli/Morph52.JPG,Stimuli/Morph52.png,Stimuli/BlurLevel5/BlurEditedMorph52,Stimuli/BlurLevel5/BlurEditedMorph52.png,Stimuli/BlurLevel5/NumberedMorphs/BlurEditedMorph52.png,Stimuli/BlurLevel5/OriginalBlur/BlurEditedMorph52.png,Stimuli/BlurMorphTrio/EditedMorph52.png,010148right.gif,Stimuli/normal_thumbnails/52right.gif,,,,,0,0,0,0,0,79,79,51,,,,,,,,,,,,,,,,,,,,,,,98,80,1,121,-1.2875951872751354,2.142918251755281,52,Experiment,,,,,,,,,20,49,3,3,,,,,,,,,,,,,,,997.5753703739974,998.3019369649992,997.5753703739974,998.3019369649992,95.91836734693877,1583872720.5427048,1583872724.409375,3.8666701316833496,1583872717.476833,1583872720.5261161,,,CAN,001,20,female,undergrad,2020_Mar_10_1323,AdjustEyeTrack,3.1.5,60.00911358501288,
73,Stimuli/Morph73.JPG,Stimuli/Morph73.png,Stimuli/BlurLevel5/BlurEditedMorph73,Stimuli/BlurLevel5/BlurEditedMorph73.png,Stimuli/BlurLevel5/NumberedMorphs/BlurEditedMorph73.png,Stimuli/BlurLevel5/OriginalBlur/BlurEditedMorph73.png,Stimuli/BlurMorphTrio/EditedMorph73.png,020230right.gif,Stimuli/normal_thumbnails/73right.gif,,,,,0,0,0,0,0,80,80,72,,,,,,,,,,,,,,,,,,,,,,,19,81,1,85,0.21788935686914532,2.4904867452293638,73,Experiment,,,,,,,,,81,54,19,19,,,,,,,,,,,,,,,1005.119191345002,1005.8458468120007,1005.119191345002,1005.8458468120007,74.14965986394557,1583872728.109258,1583872731.475837,3.366579055786133,1583872724.943397,1583872728.083112,,,CAN,001,20,female,undergrad,2020_Mar_10_1323,AdjustEyeTrack,3.1.5,60.00911358501288,
101,Stimuli/Morph101.JPG,Stimuli/Morph101.png,Stimuli/BlurLevel5/BlurEditedMorph101,Stimuli/BlurLevel5/BlurEditedMorph101.png,Stimuli/BlurLevel5/NumberedMorphs/BlurEditedMorph101.png,Stimuli/BlurLevel5/OriginalBlur/BlurEditedMorph101.png,Stimuli/BlurMorphTrio/EditedMorph101.png,None,None,,,,,0,0,0,0,0,81,81,100,,,,,,,,,,,,,,,,,,,,,,,81,82,1,168,-2.4453690018345142,0.5197792270443982,101,Experiment,,,,,,,,,147,50,51,51,,,,,,,,,,,,,,,1011.8065601909984,1012.5056318549978,1011.8065601909984,1012.5056318549978,30.612244897959183,1583872734.7606149,1583872744.542335,9.781720161437988,1583872732.010048,1583872734.746898,,,CAN,001,20,female,undergrad,2020_Mar_10_1323,AdjustEyeTrack,3.1.5,60.00911358501288,
142,Stimuli/Morph142.JPG,Stimuli/Morph142.png,Stimuli/BlurLevel5/BlurEditedMorph142,Stimuli/BlurLevel5/BlurEditedMorph142.png,Stimuli/BlurLevel5/NumberedMorphs/BlurEditedMorph142.png,Stimuli/BlurLevel5/OriginalBlur/BlurEditedMorph142.png,Stimuli/BlurMorphTrio/EditedMorph142.png,None,None,,,,,0,0,0,0,0,82,82,141,,,,,,,,,,,,,,,,,,,,,,,10,83,1,103,-0.5623776358596626,2.435925161963088,142,Experiment,,,,,,,,,70,14,128,-19,,,,,,,,,,,,,,,1024.979274653997,1025.6867848870024,1024.979274653997,1025.6867848870024,74.14965986394557,1583872747.9280388,1583872750.5260181,2.5979793071746826,1583872745.077472,1583872747.9145222,,,CAN,001,20,female,undergrad,2020_Mar_10_1323,AdjustEyeTrack,3.1.5,60.00911358501288,
26,Stimuli/Morph26.JPG,Stimuli/Morph26.png,Stimuli/BlurLevel5/BlurEditedMorph26,Stimuli/BlurLevel5/BlurEditedMorph26.png,Stimuli/BlurLevel5/NumberedMorphs/BlurEditedMorph26.png,Stimuli/BlurLevel5/OriginalBlur/BlurEditedMorph26.png,Stimuli/BlurMorphTrio/EditedMorph26.png,010070right.gif,Stimuli/normal_thumbnails/26right.gif,,,,,0,0,0,0,0,83,83,25,,,,,,,,,,,,,,,,,,,,,,,42,84,1,332,2.2073689821473175,-1.173678906964727,26,Experiment,,,,,,,,,126,29,-3,-3,,,,,,,,,,,,,,,1031.3248126249964,1032.0676093459988,1031.3248126249964,1032.0676093459988,95.91836734693877,1583872754.37811,1583872756.3265548,1.9484448432922363,1583872751.0603788,1583872754.363622,,,CAN,001,20,female,undergrad,2020_Mar_10_1323,AdjustEyeTrack,3.1.5,60.00911358501288,
83,Stimuli/Morph83.JPG,Stimuli/Morph83.png,Stimuli/BlurLevel5/BlurEditedMorph83,Stimuli/BlurLevel5/BlurEditedMorph83.png,Stimuli/BlurLevel5/NumberedMorphs/BlurEditedMorph83.png,Stimuli/BlurLevel5/OriginalBlur/BlurEditedMorph83.png,Stimuli/BlurMorphTrio/EditedMorph83.png,020259right.gif,Stimuli/normal_thumbnails/83right.gif,,,,,0,0,0,0,0,84,84,82,,,,,,,,,,,,,,,,,,,,,,,98,85,1,32,2.120120240391065,1.3247981605830121,83,Experiment,,,,,,,,,17,114,-31,-31,,,,,,,,,,,,,,,1036.936514228997,1037.6733624970002,1036.936514228997,1037.6733624970002,57.82312925170068,1583872759.92655,1583872762.6422641,2.7157142162323,1583872756.8606021,1583872759.912617,,,CAN,001,20,female,undergrad,2020_Mar_10_1323,AdjustEyeTrack,3.1.5,60.00911358501288,
75,Stimuli/Morph75.JPG,Stimuli/Morph75.png,Stimuli/BlurLevel5/BlurEditedMorph75,Stimuli/BlurLevel5/BlurEditedMorph75.png,Stimuli/BlurLevel5/NumberedMorphs/BlurEditedMorph75.png,Stimuli/BlurLevel5/OriginalBlur/BlurEditedMorph75.png,Stimuli/BlurMorphTrio/EditedMorph75.png,020233right.gif,Stimuli/normal_thumbnails/75right.gif,,,,,1,0,1,0,0,0,0,74,,,,,,,,,,,,,,,,,,,,,,,54,1,2,314,1.7366459261474931,-1.798349500846628,75,Experiment,,,,,,,,,17,19,56,56,,,,,,,,,,,,,,,1058.4506572559985,1059.1841594709986,1058.4506572559985,1059.1841594709986,23.809523809523814,1583872781.542238,1583872784.12525,2.583012104034424,1583872778.575875,1583872781.517893,space,14.610419243996148,CAN,001,20,female,undergrad,2020_Mar_10_1323,AdjustEyeTrack,3.1.5,60.00911358501288,
10,Stimuli/Morph10.JPG,Stimuli/Morph10.png,Stimuli/BlurLevel5/BlurEditedMorph10,Stimuli/BlurLevel5/BlurEditedMorph10.png,Stimuli/BlurLevel5/NumberedMorphs/BlurEditedMorph10.png,Stimuli/BlurLevel5/OriginalBlur/BlurEditedMorph10.png,Stimuli/BlurMorphTrio/EditedMorph10.png,010016right.gif,Stimuli/normal_thumbnails/10right.gif,,,,,1,0,1,0,0,1,1,9,,,,,,,,,,,,,,,,,,,,,,,92,2,2,333,2.2275163104709197,-1.1349762493488673,10,Experiment,,,,,,,,,125,3,7,7,,,,,,,,,,,,,,,1065.057972896997,1065.800331033999,1065.057972896997,1065.800331033999,90.47619047619048,1583872788.063874,1583872790.741305,2.677431106567383,1583872784.708899,1583872788.047699,,,CAN,001,20,female,undergrad,2020_Mar_10_1323,AdjustEyeTrack,3.1.5,60.00911358501288,
65,Stimuli/Morph65.JPG,Stimuli/Morph65.png,Stimuli/BlurLevel5/BlurEditedMorph65,Stimuli/BlurLevel5/BlurEditedMorph65.png,Stimuli/BlurLevel5/NumberedMorphs/BlurEditedMorph65.png,Stimuli/BlurLevel5/OriginalBlur/BlurEditedMorph65.png,Stimuli/BlurMorphTrio/EditedMorph65.png,020209right.gif,Stimuli/normal_thumbnails/65right.gif,,,,,1,0,1,0,0,2,2,64,,,,,,,,,,,,,,,,,,,,,,,14,3,2,307,1.50453755788012,-1.996588775118233,65,Experiment,,,,,,,,,123,43,22,22,,,,,,,,,,,,,,,1071.425083985996,1072.2006939119965,1071.425083985996,1072.2006939119965,70.06802721088435,1583872794.44198,1583872796.6081622,2.166182279586792,1583872791.309571,1583872794.426322,,,CAN,001,20,female,undergrad,2020_Mar_10_1323,AdjustEyeTrack,3.1.5,60.00911358501288,
81,Stimuli/Morph81.JPG,Stimuli/Morph81.png,Stimuli/BlurLevel5/BlurEditedMorph81,Stimuli/BlurLevel5/BlurEditedMorph81.png,Stimuli/BlurLevel5/NumberedMorphs/BlurEditedMorph81.png,Stimuli/BlurLevel5/OriginalBlur/BlurEditedMorph81.png,Stimuli/BlurMorphTrio/EditedMorph81.png,020245right.gif,Stimuli/normal_thumbnails/81right.gif,,,,,1,0,1,0,0,3,3,80,,,,,,,,,,,,,,,,,,,,,,,66,4,2,195,-2.4148145657226707,-0.647047612756302,81,Experiment,,,,,,,,,5,37,44,44,,,,,,,,,,,,,,,1077.0058532949988,1077.7071967640004,1077.0058532949988,1077.7071967640004,40.136054421768705,1583872799.941665,1583872803.1117382,3.1700732707977295,1583872797.20911,1583872799.9171178,,,CAN,001,20,female,undergrad,2020_Mar_10_1323,AdjustEyeTrack,3.1.5,60.00911358501288,
66,Stimuli/Morph66.JPG,Stimuli/Morph66.png,Stimuli/BlurLevel5/BlurEditedMorph66,Stimuli/BlurLevel5/BlurEditedMorph66.png,Stimuli/BlurLevel5/NumberedMorphs/BlurEditedMorph66.png,Stimuli/BlurLevel5/OriginalBlur/BlurEditedMorph66.png,Stimuli/BlurMorphTrio/EditedMorph66.png,020212right.gif,Stimuli/normal_thumbnails/66right.gif,,,,,1,0,1,0,0,4,4,65,,,,,,,,,,,,,,,,,,,,,,,35,5,2,133,-1.7049959001562458,1.8283842540479267,66,Experiment,,,,,,,,,19,71,-5,-5,,,,,,,,,,,,,,,1083.5520152340032,1084.2530591309987,1083.5520152340032,1084.2530591309987,93.19727891156462,1583872806.492119,1583872808.624678,2.132558822631836,1583872803.6420321,1583872806.46865,,,CAN,001,20,female,undergrad,2020_Mar_10_1323,AdjustEyeTrack,3.1.5,60.00911358501288,
67,Stimuli/Morph67.JPG,Stimuli/Morph67.png,Stimuli/BlurLevel5/BlurEditedMorph67,Stimuli/BlurLevel5/BlurEditedMorph67.png,Stimuli/BlurLevel5/NumberedMorphs/BlurEditedMorph67.png,Stimuli/BlurLevel5/OriginalBlur/BlurEditedMorph67.png,Stimuli/BlurMorphTrio/EditedMorph67.png,020217right.gif,Stimuli/normal_thumbnails/67right.gif,,,,,1,0,1,0,0,5,5,66,,,,,,,,,,,,,,,,,,,,,,,80,6,2,12,2.4453690018345142,0.5197792270443984,67,Experiment,,,,,,,,,87,68,-1,-1,,,,,,,,,,,,,,,1088.997817989999,1089.7025808100007,1088.997817989999,1089.7025808100007,98.63945578231292,1583872811.90963,1583872815.974973,4.065342903137207,1583872809.1588328,1583872811.894537,,,CAN,001,20,female,undergrad,2020_Mar_10_1323,AdjustEyeTrack,3.1.5,60.00911358501288,
44,Stimuli/Morph44.JPG,Stimuli/Morph44.png,Stimuli/BlurLevel5/BlurEditedMorph44,Stimuli/BlurLevel5/BlurEditedMorph44.png,Stimuli/BlurLevel5/NumberedMorphs/BlurEditedMorph44.png,Stimuli/BlurLevel5/OriginalBlur/BlurEditedMorph44.png,Stimuli/BlurMorphTrio/EditedMorph44.png,010126right.gif,Stimuli/normal_thumbnails/44right.gif,,,,,1,0,1,0,0,6,6,43,,,,,,,,,,,,,,,,,,,,,,,83,7,2,252,-0.7725424859373689,-2.3776412907378837,44,Experiment,,,,,,,,,29,65,-21,-21,,,,,,,,,,,,,,,1096.578882324,1097.2891459870007,1096.578882324,1097.2891459870007,71.42857142857143,1583872819.528843,1583872827.7749,8.246057033538818,1583872816.510753,1583872819.514221,,,CAN,001,20,female,undergrad,2020_Mar_10_1323,AdjustEyeTrack,3.1.5,60.00911358501288,
51,Stimuli/Morph51.JPG,Stimuli/Morph51.png,Stimuli/BlurLevel5/BlurEditedMorph51,Stimuli/BlurLevel5/BlurEditedMorph51.png,Stimuli/BlurLevel5/NumberedMorphs/BlurEditedMorph51.png,Stimuli/BlurLevel5/OriginalBlur/BlurEditedMorph51.png,Stimuli/BlurMorphTrio/EditedMorph51.png,010146right.gif,Stimuli/normal_thumbnails/51right.gif,,,,,1,0,1,0,0,7,7,50,,,,,,,,,,,,,,,,,,,,,,,60,8,2,250,-0.8550503583141712,-2.3492315519647713,51,Experiment,,,,,,,,,126,53,-2,-2,,,,,,,,,,,,,,,1108.4694047349985,1109.1905685009988,1108.4694047349985,1109.1905685009988,97.27891156462584,1583872831.441687,1583872837.3583622,5.916675090789795,1583872828.3094761,1583872831.425245,,,CAN,001,20,female,undergrad,2020_Mar_10_1323,AdjustEyeTrack,3.1.5,60.00911358501288,
43,Stimuli/Morph43.JPG,Stimuli/Morph43.png,Stimuli/BlurLevel5/BlurEditedMorph43,Stimuli/BlurLevel5/BlurEditedMorph43.png,Stimuli/BlurLevel5/NumberedMorphs/BlurEditedMorph43.png,Stimuli/BlurLevel5/OriginalBlur/BlurEditedMorph43.png,Stimuli/BlurMorphTrio/EditedMorph43.png,010124right.gif,Stimuli/normal_thumbnails/43right.gif,,,,,1,0,1,0,0,8,8,42,,,,,,,,,,,,,,,,,,,,,,,16,9,2,274,0.17439118436031303,-2.4939101256495606,43,Experiment,,,,,,,,,33,64,-21,-21,,,,,,,,,,,,,,,1117.9336222929996,1118.650341268003,1117.9336222929996,1118.650341268003,71.42857142857143,1583872840.928728,1583872847.607954,6.679225921630859,1583872837.891957,1583872840.867568,,,CAN,001,20,female,undergrad,2020_Mar_10_1323,AdjustEyeTrack,3.1.5,60.00911358501288,
102,Stimuli/Morph102.JPG,Stimuli/Morph102.png,Stimuli/BlurLevel5/BlurEditedMorph102,Stimuli/BlurLevel5/BlurEditedMorph102.png,Stimuli/BlurLevel5/NumberedMorphs/BlurEditedMorph102.png,Stimuli/BlurLevel5/OriginalBlur/BlurEditedMorph102.png,Stimuli/BlurMorphTrio/EditedMorph102.png,None,None,,,,,1,0,1,0,0,9,9,101,,,,,,,,,,,,,,,,,,,,,,,18,10,2,91,-0.043631016093208685,2.499619237890978,102,Experiment,,,,,,,,,140,129,-27,-27,,,,,,,,,,,,,,,1127.8372738129983,1128.533013704,1127.8372738129983,1128.533013704,63.26530612244898,1583872850.7746408,1583872858.324668,7.550027132034302,1583872848.142186,1583872850.7509,,,CAN,001,20,female,undergrad,2020_Mar_10_1323,AdjustEyeTrack,3.1.5,60.00911358501288,
147,Stimuli/Morph147.JPG,Stimuli/Morph147.png,Stimuli/BlurLevel5/BlurEditedMorph147,Stimuli/BlurLevel5/BlurEditedMorph147.png,Stimuli/BlurLevel5/NumberedMorphs/BlurEditedMorph147.png,Stimuli/BlurLevel5/OriginalBlur/BlurEditedMorph147.png,Stimuli/BlurMorphTrio/EditedMorph147.png,None,None,,,,,1,0,1,0,0,10,10,146,,,,,,,,,,,,,,,,,,,,,,,69,11,2,164,-2.4031542398457972,0.689093389542498,147,Experiment,,,,,,,,,117,134,13,13,,,,,,,,,,,,,,,1138.9623824969967,1139.6741722119987,1138.9623824969967,1139.6741722119987,82.31292517006803,1583872861.908627,1583872877.575111,15.666483879089355,1583872858.8593159,1583872861.884463,,,CAN,001,20,female,undergrad,2020_Mar_10_1323,AdjustEyeTrack,3.1.5,60.00911358501288,
76,Stimuli/Morph76.JPG,Stimuli/Morph76.png,Stimuli/BlurLevel5/BlurEditedMorph76,Stimuli/BlurLevel5/BlurEditedMorph76.png,Stimuli/BlurLevel5/NumberedMorphs/BlurEditedMorph76.png,Stimuli/BlurLevel5/OriginalBlur/BlurEditedMorph76.png,Stimuli/BlurMorphTrio/EditedMorph76.png,020234right.gif,Stimuli/normal_thumbnails/76right.gif,,,,,1,0,1,0,0,11,11,75,,,,,,,,,,,,,,,,,,,,,,,68,12,2,227,-1.7049959001562465,-1.828384254047926,76,Experiment,,,,,,,,,138,138,-62,-62,,,,,,,,,,,,,,,1158.0376780410006,1158.7401625540006,1158.0376780410006,1158.7401625540006,15.646258503401356,1583872880.974504,1583872887.374953,6.40044903755188,1583872878.108122,1583872880.9586828,,,CAN,001,20,female,undergrad,2020_Mar_10_1323,AdjustEyeTrack,3.1.5,60.00911358501288,
26,Stimuli/Morph26.JPG,Stimuli/Morph26.png,Stimuli/BlurLevel5/BlurEditedMorph26,Stimuli/BlurLevel5/BlurEditedMorph26.png,Stimuli/BlurLevel5/NumberedMorphs/BlurEditedMorph26.png,Stimuli/BlurLevel5/OriginalBlur/BlurEditedMorph26.png,Stimuli/BlurMorphTrio/EditedMorph26.png,010070right.gif,Stimuli/normal_thumbnails/26right.gif,,,,,1,0,1,0,0,12,12,25,,,,,,,,,,,,,,,,,,,,,,,85,13,2,225,-1.7677669529663693,-1.7677669529663687,26,Experiment,,,,,,,,,82,25,1,1,,,,,,,,,,,,,,,1167.7937002819963,1168.4911339440005,1167.7937002819963,1168.4911339440005,98.63945578231292,1583872890.724607,1583872894.7740748,4.0494678020477295,1583872887.926096,1583872890.70216,,,CAN,001,20,female,undergrad,2020_Mar_10_1323,AdjustEyeTrack,3.1.5,60.00911358501288,
113,Stimuli/Morph113.JPG,Stimuli/Morph113.png,Stimuli/BlurLevel5/BlurEditedMorph113,Stimuli/BlurLevel5/BlurEditedMorph113.png,Stimuli/BlurLevel5/NumberedMorphs/BlurEditedMorph113.png,Stimuli/BlurLevel5/OriginalBlur/BlurEditedMorph113.png,Stimuli/BlurMorphTrio/EditedMorph113.png,None,None,,,,,1,0,1,0,0,13,13,112,,,,,,,,,,,,,,,,,,,,,,,1,14,2,182,-2.4984770675477392,-0.08724874175625223,113,Experiment,,,,,,,,,67,113,0,0,,,,,,,,,,,,,,,1174.6031855649999,1175.2657251089986,1174.6031855649999,1175.2657251089986,100.0,1583872897.4742332,1583872909.7752068,12.300973653793335,1583872895.307234,1583872897.457943,,,CAN,001,20,female,undergrad,2020_Mar_10_1323,AdjustEyeTrack,3.1.5,60.00911358501288,
6,Stimuli/Morph6.JPG,Stimuli/Morph6.png,Stimuli/BlurLevel5/BlurEditedMorph6,Stimuli/BlurLevel5/BlurEditedMorph6.png,Stimuli/BlurLevel5/NumberedMorphs/BlurEditedMorph6.png,Stimuli/BlurLevel5/OriginalBlur/BlurEditedMorph6.png,Stimuli/BlurMorphTrio/EditedMorph6.png,010012right.gif,Stimuli/normal_thumbnails/6right.gif,,,,,1,0,1,0,0,14,14,5,,,,,,,,,,,,,,,,,,,,,,,24,15,2,337,2.3012621336311008,-0.9768278212231847,6,Experiment,,,,,,,,,79,8,-2,-2,,,,,,,,,,,,,,,1190.1367015159994,1190.851437350997,1190.1367015159994,1190.851437350997,97.27891156462584,1583872913.0439649,1583872917.426031,4.382066249847412,1583872910.308046,1583872913.028749,,,CAN,001,20,female,undergrad,2020_Mar_10_1323,AdjustEyeTrack,3.1.5,60.00911358501288,
55,Stimuli/Morph55.JPG,Stimuli/Morph55.png,Stimuli/BlurLevel5/BlurEditedMorph55,Stimuli/BlurLevel5/BlurEditedMorph55.png,Stimuli/BlurLevel5/NumberedMorphs/BlurEditedMorph55.png,Stimuli/BlurLevel5/OriginalBlur/BlurEditedMorph55.png,Stimuli/BlurMorphTrio/EditedMorph55.png,010151right.gif,Stimuli/normal_thumbnails/55right.gif,,,,,1,0,1,0,0,15,15,54,,,,,,,,,,,,,,,,,,,,,,,99,16,2,13,2.435925161963088,0.5623776358596625,55,Experiment,,,,,,,,,49,58,-3,-3,,,,,,,,,,,,,,,1197.6974746049964,1198.3990265419998,1197.6974746049964,1198.3990265419998,95.91836734693877,1583872920.6262999,1583872927.007766,6.3814661502838135,1583872917.9600132,1583872920.61124,,,CAN,001,20,female,undergrad,2020_Mar_10_1323,AdjustEyeTrack,3.1.5,60.00911358501288,
105,Stimuli/Morph105.JPG,Stimuli/Morph105.png,Stimuli/BlurLevel5/BlurEditedMorph105,Stimuli/BlurLevel5/BlurEditedMorph105.png,Stimuli/BlurLevel5/NumberedMorphs/BlurEditedMorph105.png,Stimuli/BlurLevel5/OriginalBlur/BlurEditedMorph105.png,Stimuli/BlurMorphTrio/EditedMorph105.png,None,None,,,,,1,0,1,0,0,16,16,104,,,,,,,,,,,,,,,,,,,,,,,11,17,2,334,2.246985115747917,-1.0959278669726944,105,Experiment,,,,,,,,,69,97,8,8,,,,,,,,,,,,,,,1207.9010624069997,1208.6376644010015,1207.9010624069997,1208.6376644010015,89.1156462585034,1583872930.874233,1583872938.024129,7.149895906448364,1583872927.625531,1583872930.860119,,,CAN,001,20,female,undergrad,2020_Mar_10_1323,AdjustEyeTrack,3.1.5,60.00911358501288,
116,Stimuli/Morph116.JPG,Stimuli/Morph116.png,Stimuli/BlurLevel5/BlurEditedMorph116,Stimuli/BlurLevel5/BlurEditedMorph116.png,Stimuli/BlurLevel5/NumberedMorphs/BlurEditedMorph116.png,Stimuli/BlurLevel5/OriginalBlur/BlurEditedMorph116.png,Stimuli/BlurMorphTrio/EditedMorph116.png,None,None,,,,,1,0,1,0,0,17,17,115,,,,,,,,,,,,,,,,,,,,,,,86,18,2,304,1.3979822586768675,-2.072593931387604,116,Experiment,,,,,,,,,115,133,-17,-17,,,,,,,,,,,,,,,1218.687436813001,1219.4003362840012,1218.687436813001,1219.4003362840012,76.87074829931973,1583872941.640396,1583872949.5577228,7.9173266887664795,1583872938.6919181,1583872941.624326,,,CAN,001,20,female,undergrad,2020_Mar_10_1323,AdjustEyeTrack,3.1.5,60.00911358501288,
94,Stimuli/Morph94.JPG,Stimuli/Morph94.png,Stimuli/BlurLevel5/BlurEditedMorph94,Stimuli/BlurLevel5/BlurEditedMorph94.png,Stimuli/BlurLevel5/NumberedMorphs/BlurEditedMorph94.png,Stimuli/BlurLevel5/OriginalBlur/BlurEditedMorph94.png,Stimuli/BlurMorphTrio/EditedMorph94.png,020286right.gif,Stimuli/normal_thumbnails/94right.gif,,,,,1,0,1,0,0,18,18,93,,,,,,,,,,,,,,,,,,,,,,,98,19,2,209,-2.1865492678484895,-1.2120240506158424,94,Experiment,,,,,,,,,123,137,-43,-43,,,,,,,,,,,,,,,1230.1893547750005,1230.9043612539972,1230.1893547750005,1230.9043612539972,41.49659863945578,1583872953.127841,1583872959.958555,6.830713987350464,1583872950.091489,1583872953.11343,,,CAN,001,20,female,undergrad,2020_Mar_10_1323,AdjustEyeTrack,3.1.5,60.00911358501288,
86,Stimuli/Morph86.JPG,Stimuli/Morph86.png,Stimuli/BlurLevel5/BlurEditedMorph86,Stimuli/BlurLevel5/BlurEditedMorph86.png,Stimuli/BlurLevel5/NumberedMorphs/BlurEditedMorph86.png,Stimuli/BlurLevel5/OriginalBlur/BlurEditedMorph86.png,Stimuli/BlurMorphTrio/EditedMorph86.png,020266right.gif,Stimuli/normal_thumbnails/86right.gif,,,,,1,0,1,0,0,19,19,85,,,,,,,,,,,,,,,,,,,,,,,90,20,2,194,-2.425739315689991,-0.6048047389991688,86,Experiment,,,,,,,,,39,85,1,1,,,,,,,,,,,,,,,1240.3987710470028,1241.098460547997,1240.3987710470028,1241.098460547997,98.63945578231292,1583872963.32399,1583872968.373743,5.049752950668335,1583872960.541824,1583872963.307588,,,CAN,001,20,female,undergrad,2020_Mar_10_1323,AdjustEyeTrack,3.1.5,60.00911358501288,
61,Stimuli/Morph61.JPG,Stimuli/Morph61.png,Stimuli/BlurLevel5/BlurEditedMorph61,Stimuli/BlurLevel5/BlurEditedMorph61.png,Stimuli/BlurLevel5/NumberedMorphs/BlurEditedMorph61.png,Stimuli/BlurLevel5/OriginalBlur/BlurEditedMorph61.png,Stimuli/BlurMorphTrio/EditedMorph61.png,020201right.gif,Stimuli/normal_thumbnails/61right.gif,,,,,1,0,1,0,0,20,20,60,,,,,,,,,,,,,,,,,,,,,,,33,21,2,188,-2.475670171853926,-0.3479327524001638,61,Experiment,,,,,,,,,99,4,57,57,,,,,,,,,,,,,,,1248.816990749001,1249.5157929670022,1248.816990749001,1249.5157929670022,22.44897959183674,1583872971.692411,1583872977.1905348,5.49812388420105,1583872968.90785,1583872971.6784031,,,CAN,001,20,female,undergrad,2020_Mar_10_1323,AdjustEyeTrack,3.1.5,60.00911358501288,
71,Stimuli/Morph71.JPG,Stimuli/Morph71.png,Stimuli/BlurLevel5/BlurEditedMorph71,Stimuli/BlurLevel5/BlurEditedMorph71.png,Stimuli/BlurLevel5/NumberedMorphs/BlurEditedMorph71.png,Stimuli/BlurLevel5/OriginalBlur/BlurEditedMorph71.png,Stimuli/BlurMorphTrio/EditedMorph71.png,020225right.gif,Stimuli/normal_thumbnails/71right.gif,,,,,1,0,1,0,0,21,21,70,,,,,,,,,,,,,,,,,,,,,,,9,22,2,140,-1.9151111077974448,1.6069690242163488,71,Experiment,,,,,,,,,16,83,-12,-12,,,,,,,,,,,,,,,1257.4006065430003,1258.0858112330025,1257.4006065430003,1258.0858112330025,83.6734693877551,1583872980.30913,1583872986.606516,6.297385931015015,1583872977.724216,1583872980.294517,,,CAN,001,20,female,undergrad,2020_Mar_10_1323,AdjustEyeTrack,3.1.5,60.00911358501288,
125,Stimuli/Morph125.JPG,Stimuli/Morph125.png,Stimuli/BlurLevel5/BlurEditedMorph125,Stimuli/BlurLevel5/BlurEditedMorph125.png,Stimuli/BlurLevel5/NumberedMorphs/BlurEditedMorph125.png,Stimuli/BlurLevel5/OriginalBlur/BlurEditedMorph125.png,Stimuli/BlurMorphTrio/EditedMorph125.png,None,None,,,,,1,0,1,0,0,22,22,124,,,,,,,,,,,,,,,,,,,,,,,79,23,2,191,-2.45406795861916,-0.47702248844136186,125,Experiment,,,,,,,,,147,87,38,38,,,,,,,,,,,,,,,1266.962219601999,1267.648666193003,1266.962219601999,1267.648666193003,48.29931972789115,1583872989.843044,1583872994.3252149,4.482170820236206,1583872987.1405592,1583872989.828588,,,CAN,001,20,female,undergrad,2020_Mar_10_1323,AdjustEyeTrack,3.1.5,60.00911358501288,
131,Stimuli/Morph131.JPG,Stimuli/Morph131.png,Stimuli/BlurLevel5/BlurEditedMorph131,Stimuli/BlurLevel5/BlurEditedMorph131.png,Stimuli/BlurLevel5/NumberedMorphs/BlurEditedMorph131.png,Stimuli/BlurLevel5/OriginalBlur/BlurEditedMorph131.png,Stimuli/BlurMorphTrio/EditedMorph131.png,None,None,,,,,1,0,1,0,0,23,23,130,,,,,,,,,,,,,,,,,,,,,,,99,24,2,49,1.6401475724762684,1.8867739505569299,131,Experiment,,,,,,,,,68,61,70,70,,,,,,,,,,,,,,,1274.6426033809985,1275.3418272479976,1274.6426033809985,1275.3418272479976,4.761904761904767,1583872997.5736692,1583873001.661087,4.087417840957642,1583872994.906823,1583872997.547468,,,CAN,001,20,female,undergrad,2020_Mar_10_1323,AdjustEyeTrack,3.1.5,60.00911358501288,
143,Stimuli/Morph143.JPG,Stimuli/Morph143.png,Stimuli/BlurLevel5/BlurEditedMorph143,Stimuli/BlurLevel5/BlurEditedMorph143.png,Stimuli/BlurLevel5/NumberedMorphs/BlurEditedMorph143.png,Stimuli/BlurLevel5/OriginalBlur/BlurEditedMorph143.png,Stimuli/BlurMorphTrio/EditedMorph143.png,None,None,,,,,1,0,1,0,0,24,24,142,,,,,,,,,,,,,,,,,,,,,,,82,25,2,280,0.4341204441673249,-2.4620193825305203,143,Experiment,,,,,,,,,28,137,6,6,,,,,,,,,,,,,,,1282.1194210870017,1282.8312253510012,1282.1194210870017,1282.8312253510012,91.83673469387756,1583873005.073146,1583873010.493136,5.419989824295044,1583873002.2239091,1583873005.048848,,,CAN,001,20,female,undergrad,2020_Mar_10_1323,AdjustEyeTrack,3.1.5,60.00911358501288,
58,Stimuli/Morph58.JPG,Stimuli/Morph58.png,Stimuli/BlurLevel5/BlurEditedMorph58,Stimuli/BlurLevel5/BlurEditedMorph58.png,Stimuli/BlurLevel5/NumberedMorphs/BlurEditedMorph58.png,Stimuli/BlurLevel5/OriginalBlur/BlurEditedMorph58.png,Stimuli/BlurMorphTrio/EditedMorph58.png,010159right.gif,Stimuli/normal_thumbnails/58right.gif,,,,,1,0,1,0,0,25,25,57,,,,,,,,,,,,,,,,,,,,,,,45,26,2,213,-2.0966764198635603,-1.3615975875375677,58,Experiment,,,,,,,,,136,69,-11,-11,,,,,,,,,,,,,,,1290.8082820420022,1291.4976908870012,1290.8082820420022,1291.4976908870012,85.03401360544218,1583873013.725915,1583873016.756552,3.03063702583313,1583873011.0399418,1583873013.7109811,,,CAN,001,20,female,undergrad,2020_Mar_10_1323,AdjustEyeTrack,3.1.5,60.00911358501288,
82,Stimuli/Morph82.JPG,Stimuli/Morph82.png,Stimuli/BlurLevel5/BlurEditedMorph82,Stimuli/BlurLevel5/BlurEditedMorph82.png,Stimuli/BlurLevel5/NumberedMorphs/BlurEditedMorph82.png,Stimuli/BlurLevel5/OriginalBlur/BlurEditedMorph82.png,Stimuli/BlurMorphTrio/EditedMorph82.png,020247right.gif,Stimuli/normal_thumbnails/82right.gif,,,,,1,0,1,0,0,26,26,81,,,,,,,,,,,,,,,,,,,,,,,5,27,2,226,-1.7366459261474931,-1.798349500846628,82,Experiment,,,,,,,,,108,65,17,17,,,,,,,,,,,,,,,1297.2820043730026,1297.976239169002,1297.2820043730026,1297.976239169002,76.87074829931973,1583873020.223962,1583873024.607027,4.3830649852752686,1583873017.424481,1583873020.201178,,,CAN,001,20,female,undergrad,2020_Mar_10_1323,AdjustEyeTrack,3.1.5,60.00911358501288,
48,Stimuli/Morph48.JPG,Stimuli/Morph48.png,Stimuli/BlurLevel5/BlurEditedMorph48,Stimuli/BlurLevel5/BlurEditedMorph48.png,Stimuli/BlurLevel5/NumberedMorphs/BlurEditedMorph48.png,Stimuli/BlurLevel5/OriginalBlur/BlurEditedMorph48.png,Stimuli/BlurMorphTrio/EditedMorph48.png,010131right.gif,Stimuli/normal_thumbnails/48right.gif,,,,,1,0,1,0,0,27,27,47,,,,,,,,,,,,,,,,,,,,,,,19,28,2,216,-2.0225424859373686,-1.4694631307311825,48,Experiment,,,,,,,,,112,61,-13,-13,,,,,,,,,,,,,,,1305.3421427970025,1306.0640703460012,1305.3421427970025,1306.0640703460012,82.31292517006803,1583873028.306845,1583873031.6427488,3.3359038829803467,1583873025.190956,1583873028.28261,,,CAN,001,20,female,undergrad,2020_Mar_10_1323,AdjustEyeTrack,3.1.5,60.00911358501288,
4,Stimuli/Morph4.JPG,Stimuli/Morph4.png,Stimuli/BlurLevel5/BlurEditedMorph4,Stimuli/BlurLevel5/BlurEditedMorph4.png,Stimuli/BlurLevel5/NumberedMorphs/BlurEditedMorph4.png,Stimuli/BlurLevel5/OriginalBlur/BlurEditedMorph4.png,Stimuli/BlurMorphTrio/EditedMorph4.png,010010right.gif,Stimuli/normal_thumbnails/4right.gif,,,,,1,0,1,0,0,28,28,3,,,,,,,,,,,,,,,,,,,,,,,38,29,2,270,-4.592425496802574e-16,-2.5,4,Experiment,,,,,,,,,99,25,-21,-21,,,,,,,,,,,,,,,1312.1963847279985,1312.9191619900012,1312.1963847279985,1312.9191619900012,71.42857142857143,1583873035.155872,1583873040.327727,5.1718549728393555,1583873032.207231,1583873035.140995,,,CAN,001,20,female,undergrad,2020_Mar_10_1323,AdjustEyeTrack,3.1.5,60.00911358501288,
130,Stimuli/Morph130.JPG,Stimuli/Morph130.png,Stimuli/BlurLevel5/BlurEditedMorph130,Stimuli/BlurLevel5/BlurEditedMorph130.png,Stimuli/BlurLevel5/NumberedMorphs/BlurEditedMorph130.png,Stimuli/BlurLevel5/OriginalBlur/BlurEditedMorph130.png,Stimuli/BlurMorphTrio/EditedMorph130.png,None,None,,,,,1,0,1,0,0,29,29,129,,,,,,,,,,,,,,,,,,,,,,,19,30,2,54,1.4694631307311832,2.022542485937368,130,Experiment,,,,,,,,,62,146,-16,-16,,,,,,,,,,,,,,,1320.862494136003,1321.6807152170004,1320.862494136003,1321.6807152170004,78.2312925170068,1583873043.96,1583873048.2749429,4.314942836761475,1583873040.8559659,1583873043.9458292,,,CAN,001,20,female,undergrad,2020_Mar_10_1323,AdjustEyeTrack,3.1.5,60.00911358501288,
132,Stimuli/Morph132.JPG,Stimuli/Morph132.png,Stimuli/BlurLevel5/BlurEditedMorph132,Stimuli/BlurLevel5/BlurEditedMorph132.png,Stimuli/BlurLevel5/NumberedMorphs/BlurEditedMorph132.png,Stimuli/BlurLevel5/OriginalBlur/BlurEditedMorph132.png,Stimuli/BlurMorphTrio/EditedMorph132.png,None,None,,,,,1,0,1,0,0,30,30,131,,,,,,,,,,,,,,,,,,,,,,,19,31,2,242,-1.1736789069647269,-2.2073689821473175,132,Experiment,,,,,,,,,106,131,1,1,,,,,,,,,,,,,,,1328.7891103790025,1329.5304642069968,1328.7891103790025,1329.5304642069968,98.63945578231292,1583873051.7390249,1583873057.857572,6.118547201156616,1583873048.822773,1583873051.724307,,,CAN,001,20,female,undergrad,2020_Mar_10_1323,AdjustEyeTrack,3.1.5,60.00911358501288,
73,Stimuli/Morph73.JPG,Stimuli/Morph73.png,Stimuli/BlurLevel5/BlurEditedMorph73,Stimuli/BlurLevel5/BlurEditedMorph73.png,Stimuli/BlurLevel5/NumberedMorphs/BlurEditedMorph73.png,Stimuli/BlurLevel5/OriginalBlur/BlurEditedMorph73.png,Stimuli/BlurMorphTrio/EditedMorph73.png,020230right.gif,Stimuli/normal_thumbnails/73right.gif,,,,,1,0,1,0,0,31,31,72,,,,,,,,,,,,,,,,,,,,,,,92,32,2,296,1.0959278669726935,-2.2469851157479175,73,Experiment,,,,,,,,,102,44,29,29,,,,,,,,,,,,,,,1338.7996438909977,1339.5303716729977,1338.7996438909977,1339.5303716729977,60.544217687074834,1583873061.760753,1583873069.491942,7.731189012527466,1583873058.424011,1583873061.742916,,,CAN,001,20,female,undergrad,2020_Mar_10_1323,AdjustEyeTrack,3.1.5,60.00911358501288,
77,Stimuli/Morph77.JPG,Stimuli/Morph77.png,Stimuli/BlurLevel5/BlurEditedMorph77,Stimuli/BlurLevel5/BlurEditedMorph77.png,Stimuli/BlurLevel5/NumberedMorphs/BlurEditedMorph77.png,Stimuli/BlurLevel5/OriginalBlur/BlurEditedMorph77.png,Stimuli/BlurMorphTrio/EditedMorph77.png,020235right.gif,Stimuli/normal_thumbnails/77right.gif,,,,,1,0,1,0,0,32,32,76,,,,,,,,,,,,,,,,,,,,,,,21,33,2,293,0.9768278212231838,-2.301262133631101,77,Experiment,,,,,,,,,46,65,12,12,,,,,,,,,,,,,,,1349.931755810001,1350.629963981999,1349.931755810001,1350.629963981999,83.6734693877551,1583873072.8562508,1583873077.873541,5.017290353775024,1583873070.055797,1583873072.830142,,,CAN,001,20,female,undergrad,2020_Mar_10_1323,AdjustEyeTrack,3.1.5,60.00911358501288,
30,Stimuli/Morph30.JPG,Stimuli/Morph30.png,Stimuli/BlurLevel5/BlurEditedMorph30,Stimuli/BlurLevel5/BlurEditedMorph30.png,Stimuli/BlurLevel5/NumberedMorphs/BlurEditedMorph30.png,Stimuli/BlurLevel5/OriginalBlur/BlurEditedMorph30.png,Stimuli/BlurMorphTrio/EditedMorph30.png,010076right.gif,Stimuli/normal_thumbnails/30right.gif,,,,,1,0,1,0,0,33,33,29,,,,,,,,,,,,,,,,,,,,,,,51,34,2,262,-0.3479327524001646,-2.475670171853926,30,Experiment,,,,,,,,,78,82,-52,-52,,,,,,,,,,,,,,,1358.5381716400007,1359.2498249510027,1358.5381716400007,1359.2498249510027,29.25170068027211,1583873081.509462,1583873115.774812,34.26534986495972,1583873078.422528,1583873081.461191,,,CAN,001,20,female,undergrad,2020_Mar_10_1323,AdjustEyeTrack,3.1.5,60.00911358501288,
23,Stimuli/Morph23.JPG,Stimuli/Morph23.png,Stimuli/BlurLevel5/BlurEditedMorph23,Stimuli/BlurLevel5/BlurEditedMorph23.png,Stimuli/BlurLevel5/NumberedMorphs/BlurEditedMorph23.png,Stimuli/BlurLevel5/OriginalBlur/BlurEditedMorph23.png,Stimuli/BlurMorphTrio/EditedMorph23.png,010063right.gif,Stimuli/normal_thumbnails/23right.gif,,,,,1,0,1,0,0,34,34,22,,,,,,,,,,,,,,,,,,,,,,,96,35,2,352,2.475670171853926,-0.3479327524001647,23,Experiment,,,,,,,,,113,31,-8,-8,,,,,,,,,,,,,,,1396.8455020429974,1397.6046694519973,1396.8455020429974,1397.6046694519973,89.1156462585034,1583873119.854569,1583873125.671356,5.816787004470825,1583873116.34036,1583873119.831485,,,CAN,001,20,female,undergrad,2020_Mar_10_1323,AdjustEyeTrack,3.1.5,60.00911358501288,
15,Stimuli/Morph15.JPG,Stimuli/Morph15.png,Stimuli/BlurLevel5/BlurEditedMorph15,Stimuli/BlurLevel5/BlurEditedMorph15.png,Stimuli/BlurLevel5/NumberedMorphs/BlurEditedMorph15.png,Stimuli/BlurLevel5/OriginalBlur/BlurEditedMorph15.png,Stimuli/BlurMorphTrio/EditedMorph15.png,010031right.gif,Stimuli/normal_thumbnails/15right.gif,,,,,1,0,1,0,0,35,35,14,,,,,,,,,,,,,,,,,,,,,,,29,36,2,108,-0.7725424859373684,2.377641290737884,15,Experiment,,,,,,,,,129,25,-10,-10,,,,,,,,,,,,,,,1406.4434449499968,1407.170840027,1406.4434449499968,1407.170840027,86.39455782312925,1583873129.4075,1583873132.805163,3.397662878036499,1583873126.2218711,1583873129.393216,,,CAN,001,20,female,undergrad,2020_Mar_10_1323,AdjustEyeTrack,3.1.5,60.00911358501288,
60,Stimuli/Morph60.JPG,Stimuli/Morph60.png,Stimuli/BlurLevel5/BlurEditedMorph60,Stimuli/BlurLevel5/BlurEditedMorph60.png,Stimuli/BlurLevel5/NumberedMorphs/BlurEditedMorph60.png,Stimuli/BlurLevel5/OriginalBlur/BlurEditedMorph60.png,Stimuli/BlurMorphTrio/EditedMorph60.png,020200right.gif,Stimuli/normal_thumbnails/60right.gif,,,,,1,0,1,0,0,36,36,59,,,,,,,,,,,,,,,,,,,,,,,3,37,2,205,-2.265769467591625,-1.0565456543517482,60,Experiment,,,,,,,,,78,28,32,32,,,,,,,,,,,,,,,1413.3741605589967,1414.091389109999,1413.3741605589967,1414.091389109999,56.4625850340136,1583873136.345671,1583873151.1882062,14.842535257339478,1583873133.356029,1583873136.289193,,,CAN,001,20,female,undergrad,2020_Mar_10_1323,AdjustEyeTrack,3.1.5,60.00911358501288,
137,Stimuli/Morph137.JPG,Stimuli/Morph137.png,Stimuli/BlurLevel5/BlurEditedMorph137,Stimuli/BlurLevel5/BlurEditedMorph137.png,Stimuli/BlurLevel5/NumberedMorphs/BlurEditedMorph137.png,Stimuli/BlurLevel5/OriginalBlur/BlurEditedMorph137.png,Stimuli/BlurMorphTrio/EditedMorph137.png,None,None,,,,,1,0,1,0,0,37,37,136,,,,,,,,,,,,,,,,,,,,,,,74,38,2,330,2.165063509461096,-1.250000000000001,137,Experiment,,,,,,,,,79,36,101,-46,,,,,,,,,,,,,,,1431.7338025299978,1432.437916611998,1431.7338025299978,1432.437916611998,37.414965986394556,1583873154.68844,1583873169.821406,15.132965803146362,1583873151.7382898,1583873154.672545,,,CAN,001,20,female,undergrad,2020_Mar_10_1323,AdjustEyeTrack,3.1.5,60.00911358501288,
135,Stimuli/Morph135.JPG,Stimuli/Morph135.png,Stimuli/BlurLevel5/BlurEditedMorph135,Stimuli/BlurLevel5/BlurEditedMorph135.png,Stimuli/BlurLevel5/NumberedMorphs/BlurEditedMorph135.png,Stimuli/BlurLevel5/OriginalBlur/BlurEditedMorph135.png,Stimuli/BlurMorphTrio/EditedMorph135.png,None,None,,,,,1,0,1,0,0,38,38,134,,,,,,,,,,,,,,,,,,,,,,,80,39,2,184,-2.4939101256495606,-0.1743911843603132,135,Experiment,,,,,,,,,39,115,20,20,,,,,,,,,,,,,,,1450.1945296039994,1450.8989538480018,1450.1945296039994,1450.8989538480018,72.7891156462585,1583873173.148895,1583873181.471264,8.322368860244751,1583873170.3723829,1583873173.1156101,,,CAN,001,20,female,undergrad,2020_Mar_10_1323,AdjustEyeTrack,3.1.5,60.00911358501288,
