stimulusID,stimulus_JPG,stimulusPath,stimulusPath2,stimulusPath3,stimulusPath4,stimulusPath5,stimulusPath6,xRayOriginal,xRayPath,Training.thisRepN,Training.thisTrialN,Training.thisN,Training.thisIndex,Blocks.thisRepN,Blocks.thisTrialN,Blocks.thisN,Blocks.thisIndex,Trials.thisRepN,Trials.thisTrialN,Trials.thisN,Trials.thisIndex,text_2.started,text_2.stopped,image.started,image.stopped,image_2.started,image_2.stopped,image_3.started,image_3.stopped,image_4.started,image_4.stopped,image_6.started,image_6.stopped,image_7.started,image_7.stopped,image_8.started,image_8.stopped,image_9.started,image_9.stopped,image_10.started,image_10.stopped,image_12.started,image_12.stopped,xrayID,trialNumber,blockNumber,stimLocationDeg,stimXCoord,stimYCoord,stimulusID,blockType,trainingXray.started,trainingXray.stopped,trainingTumors.started,trainingTumors.stopped,trainingScore%,startTrainingRespTime,endTrainingRespTime,trainingRT,morphTrack,morphID,errorRaw,errorCorrected,startTrainingStimTime,endTrainingStimTime,key_resp_3.keys,key_resp_3.rt,text.started,text.stopped,text_3.started,text_3.stopped,text_4.started,text_4.stopped,key_resp_5.keys,key_resp_5.rt,key_resp_5.started,key_resp_5.stopped,xray1.started,xray1.stopped,tumors.started,tumors.stopped,trialCorrect%,startRespTime,endRespTime,RT,startStimTime,endStimTime,key_resp.keys,key_resp.rt,participant,session,age,gender,status,date,expName,psychopyVersion,frameRate,
96,Stimuli/Morph96.JPG,Stimuli/Morph96.png,Stimuli/BlurLevel5/BlurEditedMorph96,Stimuli/BlurLevel5/BlurEditedMorph96.png,Stimuli/BlurLevel5/NumberedMorphs/BlurEditedMorph96.png,Stimuli/BlurLevel5/OriginalBlur/BlurEditedMorph96.png,Stimuli/BlurMorphTrio/EditedMorph96.png,020292right.gif,Stimuli/normal_thumbnails/96right.gif,0,0,0,95,,,,,,,,,74.95391488300083,None,74.95391488300083,None,74.95391488300083,None,74.95391488300083,None,74.95391488300083,None,74.95391488300083,None,74.95391488300083,None,74.95391488300083,None,74.95391488300083,None,74.95391488300083,None,74.95391488300083,None,27,-100,-100,310,1.6069690242163481,-1.9151111077974452,96,training,143.75256653999895,144.45008953100114,143.75256653999895,144.45008953100114,98.63945578231292,1583863948.133267,1583863951.066682,2.933415174484253,73,95,1,1,1583863945.3463612,1583863948.111186,space,2.478871719999006,,,,,,,,,,,,,,,,,,,,,,,CG,001,22,male,undergrad,2020_Mar_10_1111,AdjustEyeTrack,3.1.5,59.975795687027855,
35,Stimuli/Morph35.JPG,Stimuli/Morph35.png,Stimuli/BlurLevel5/BlurEditedMorph35,Stimuli/BlurLevel5/BlurEditedMorph35.png,Stimuli/BlurLevel5/NumberedMorphs/BlurEditedMorph35.png,Stimuli/BlurLevel5/OriginalBlur/BlurEditedMorph35.png,Stimuli/BlurMorphTrio/EditedMorph35.png,010094right.gif,Stimuli/normal_thumbnails/35right.gif,0,1,1,34,,,,,,,,,,,,,,,,,,,,,,,,,,,,,,,25,-100,-100,293,0.9768278212231838,-2.301262133631101,35,training,152.44435561900173,153.12915214700115,152.44435561900173,153.12915214700115,82.31292517006803,1583863956.816722,1583863959.316135,2.499413013458252,120,48,-13,-13,1583863954.169523,1583863956.7998269,space,1.9232360280002467,,,,,,,,,,,,,,,,,,,,,,,CG,001,22,male,undergrad,2020_Mar_10_1111,AdjustEyeTrack,3.1.5,59.975795687027855,
30,Stimuli/Morph30.JPG,Stimuli/Morph30.png,Stimuli/BlurLevel5/BlurEditedMorph30,Stimuli/BlurLevel5/BlurEditedMorph30.png,Stimuli/BlurLevel5/NumberedMorphs/BlurEditedMorph30.png,Stimuli/BlurLevel5/OriginalBlur/BlurEditedMorph30.png,Stimuli/BlurMorphTrio/EditedMorph30.png,010076right.gif,Stimuli/normal_thumbnails/30right.gif,0,2,2,29,,,,,,,,,,,,,,,,,,,,,,,,,,,,,,,56,-100,-100,49,1.6401475724762684,1.8867739505569299,30,training,160.51940345600087,161.23718337800165,160.51940345600087,161.23718337800165,97.27891156462584,1583863964.919165,1583863967.8000588,2.8808939456939697,71,28,2,2,1583863961.968513,1583863964.903125,space,1.5120477669988759,,,,,,,,,,,,,,,,,,,,,,,CG,001,22,male,undergrad,2020_Mar_10_1111,AdjustEyeTrack,3.1.5,59.975795687027855,
75,Stimuli/Morph75.JPG,Stimuli/Morph75.png,Stimuli/BlurLevel5/BlurEditedMorph75,Stimuli/BlurLevel5/BlurEditedMorph75.png,Stimuli/BlurLevel5/NumberedMorphs/BlurEditedMorph75.png,Stimuli/BlurLevel5/OriginalBlur/BlurEditedMorph75.png,Stimuli/BlurMorphTrio/EditedMorph75.png,020233right.gif,Stimuli/normal_thumbnails/75right.gif,0,3,3,74,,,,,,,,,,,,,,,,,,,,,,,,,,,,,,,65,-100,-100,44,1.798349500846628,1.7366459261474931,75,training,168.37535226899854,169.06659179000053,168.37535226899854,169.06659179000053,97.27891156462584,1583863972.766418,1583863974.84922,2.0828020572662354,79,77,-2,-2,1583863969.936554,1583863972.740625,space,1.4976379990002897,,,,,,,,,,,,,,,,,,,,,,,CG,001,22,male,undergrad,2020_Mar_10_1111,AdjustEyeTrack,3.1.5,59.975795687027855,
115,Stimuli/Morph115.JPG,Stimuli/Morph115.png,Stimuli/BlurLevel5/BlurEditedMorph115,Stimuli/BlurLevel5/BlurEditedMorph115.png,Stimuli/BlurLevel5/NumberedMorphs/BlurEditedMorph115.png,Stimuli/BlurLevel5/OriginalBlur/BlurEditedMorph115.png,Stimuli/BlurMorphTrio/EditedMorph115.png,None,None,0,4,4,114,,,,,,,,,,,,,,,,,,,,,,,,,,,,,,,36,-100,-100,126,-1.4694631307311825,2.0225424859373686,115,training,175.51232674700077,176.20553918500082,175.51232674700077,176.20553918500082,31.97278911564626,1583863979.899293,1583863988.666222,8.766929149627686,28,65,50,50,1583863976.969099,1583863979.883199,space,6.375411237000662,,,,,,,,,,,,,,,,,,,,,,,CG,001,22,male,undergrad,2020_Mar_10_1111,AdjustEyeTrack,3.1.5,59.975795687027855,
84,Stimuli/Morph84.JPG,Stimuli/Morph84.png,Stimuli/BlurLevel5/BlurEditedMorph84,Stimuli/BlurLevel5/BlurEditedMorph84.png,Stimuli/BlurLevel5/NumberedMorphs/BlurEditedMorph84.png,Stimuli/BlurLevel5/OriginalBlur/BlurEditedMorph84.png,Stimuli/BlurMorphTrio/EditedMorph84.png,020261right.gif,Stimuli/normal_thumbnails/84right.gif,0,5,5,83,,,,,,,,,,,,,,,,,,,,,,,,,,,,,,,42,-100,-100,79,0.4770224884413623,2.45406795861916,84,training,194.40840288600157,195.10677545900035,194.40840288600157,195.10677545900035,74.14965986394557,1583863998.8042712,1583864001.966624,3.1623528003692627,13,65,19,19,1583863995.685948,1583863998.789042,space,4.3876888070008135,,,,,,,,,,,,,,,,,,,,,,,CG,001,22,male,undergrad,2020_Mar_10_1111,AdjustEyeTrack,3.1.5,59.975795687027855,
49,Stimuli/Morph49.JPG,Stimuli/Morph49.png,Stimuli/BlurLevel5/BlurEditedMorph49,Stimuli/BlurLevel5/BlurEditedMorph49.png,Stimuli/BlurLevel5/NumberedMorphs/BlurEditedMorph49.png,Stimuli/BlurLevel5/OriginalBlur/BlurEditedMorph49.png,Stimuli/BlurMorphTrio/EditedMorph49.png,010135right.gif,Stimuli/normal_thumbnails/49right.gif,0,6,6,48,,,,,,,,,,,,,,,,,,,,,,,,,,,,,,,77,-100,-100,121,-1.2875951872751354,2.142918251755281,49,training,205.35074452000117,206.03515832999983,205.35074452000117,206.03515832999983,98.63945578231292,1583864009.748918,1583864013.966867,4.217948913574219,85,50,-1,-1,1583864006.9690938,1583864009.727964,space,3.3486307769999257,,,,,,,,,,,,,,,,,,,,,,,CG,001,22,male,undergrad,2020_Mar_10_1111,AdjustEyeTrack,3.1.5,59.975795687027855,
4,Stimuli/Morph4.JPG,Stimuli/Morph4.png,Stimuli/BlurLevel5/BlurEditedMorph4,Stimuli/BlurLevel5/BlurEditedMorph4.png,Stimuli/BlurLevel5/NumberedMorphs/BlurEditedMorph4.png,Stimuli/BlurLevel5/OriginalBlur/BlurEditedMorph4.png,Stimuli/BlurMorphTrio/EditedMorph4.png,010010right.gif,Stimuli/normal_thumbnails/4right.gif,0,7,7,3,,,,,,,,,,,,,,,,,,,,,,,,,,,,,,,60,-100,-100,71,0.8139203861428919,2.3637964389982917,4,training,216.5008947669994,217.1996571540003,216.5008947669994,217.1996571540003,68.70748299319727,1583864020.8990998,1583864024.56637,3.6672701835632324,32,27,-23,-23,1583864017.934923,1583864020.877845,space,2.094266627002071,,,,,,,,,,,,,,,,,,,,,,,CG,001,22,male,undergrad,2020_Mar_10_1111,AdjustEyeTrack,3.1.5,59.975795687027855,
128,Stimuli/Morph128.JPG,Stimuli/Morph128.png,Stimuli/BlurLevel5/BlurEditedMorph128,Stimuli/BlurLevel5/BlurEditedMorph128.png,Stimuli/BlurLevel5/NumberedMorphs/BlurEditedMorph128.png,Stimuli/BlurLevel5/OriginalBlur/BlurEditedMorph128.png,Stimuli/BlurMorphTrio/EditedMorph128.png,None,None,0,8,8,127,,,,,,,,,,,,,,,,,,,,,,,,,,,,,,,79,-100,-100,305,1.4339410908776151,-2.0478801107224793,128,training,225.6247653999999,226.30288313200072,225.6247653999999,226.30288313200072,79.59183673469387,1583864030.0031931,1583864035.934158,5.930964946746826,16,113,15,15,1583864027.284849,1583864029.987967,space,1.4029517929993744,,,,,,,,,,,,,,,,,,,,,,,CG,001,22,male,undergrad,2020_Mar_10_1111,AdjustEyeTrack,3.1.5,59.975795687027855,
101,Stimuli/Morph101.JPG,Stimuli/Morph101.png,Stimuli/BlurLevel5/BlurEditedMorph101,Stimuli/BlurLevel5/BlurEditedMorph101.png,Stimuli/BlurLevel5/NumberedMorphs/BlurEditedMorph101.png,Stimuli/BlurLevel5/OriginalBlur/BlurEditedMorph101.png,Stimuli/BlurMorphTrio/EditedMorph101.png,None,None,0,9,9,100,,,,,,,,,,,,,,,,,,,,,,,,,,,,,,,88,-100,-100,97,-0.3046733585128685,2.4813653791033055,101,training,236.43720547799967,237.1215706820003,236.43720547799967,237.1215706820003,71.42857142857143,1583864040.831769,1583864046.7996879,5.967918872833252,133,80,21,21,1583864037.95202,1583864040.817031,space,1.0846874909984763,,,,,,,,,,,,,,,,,,,,,,,CG,001,22,male,undergrad,2020_Mar_10_1111,AdjustEyeTrack,3.1.5,59.975795687027855,
,,,,,,,,,,,,,,,,,,,,,,,,,,,,,,,,,,,,,,,,,,,,,-100,-100,,,,,training,,,,,,,,,,,,,,,,,246.652018271001,None,246.652018271001,None,246.652018271001,None,space,74.85134362499957,246.652018271001,None,,,,,,,,,,,,,CG,001,22,male,undergrad,2020_Mar_10_1111,AdjustEyeTrack,3.1.5,59.975795687027855,
15,Stimuli/Morph15.JPG,Stimuli/Morph15.png,Stimuli/BlurLevel5/BlurEditedMorph15,Stimuli/BlurLevel5/BlurEditedMorph15.png,Stimuli/BlurLevel5/NumberedMorphs/BlurEditedMorph15.png,Stimuli/BlurLevel5/OriginalBlur/BlurEditedMorph15.png,Stimuli/BlurMorphTrio/EditedMorph15.png,010031right.gif,Stimuli/normal_thumbnails/15right.gif,,,,,0,0,0,0,0,0,0,14,,,,,,,,,,,,,,,,,,,,,,,5,1,1,160,-2.349231551964771,0.8550503583141722,15,Experiment,,,,,,,,,27,21,-6,-6,,,,,,,,,,,,,,,322.8014264779995,323.48108788099853,322.8014264779995,323.48108788099853,91.83673469387756,1583864127.164186,1583864129.165183,2.0009970664978027,1583864124.548413,1583864127.142554,,,CG,001,22,male,undergrad,2020_Mar_10_1111,AdjustEyeTrack,3.1.5,59.975795687027855,
27,Stimuli/Morph27.JPG,Stimuli/Morph27.png,Stimuli/BlurLevel5/BlurEditedMorph27,Stimuli/BlurLevel5/BlurEditedMorph27.png,Stimuli/BlurLevel5/NumberedMorphs/BlurEditedMorph27.png,Stimuli/BlurLevel5/OriginalBlur/BlurEditedMorph27.png,Stimuli/BlurMorphTrio/EditedMorph27.png,010072right.gif,Stimuli/normal_thumbnails/27right.gif,,,,,0,0,0,0,0,1,1,26,,,,,,,,,,,,,,,,,,,,,,,93,2,1,340,2.3492315519647713,-0.8550503583141713,27,Experiment,,,,,,,,,54,25,2,2,,,,,,,,,,,,,,,328.97582809699816,329.7034723750003,328.97582809699816,329.7034723750003,97.27891156462584,1583864133.4334762,1583864135.698362,2.264885902404785,1583864129.715497,1583864133.415172,,,CG,001,22,male,undergrad,2020_Mar_10_1111,AdjustEyeTrack,3.1.5,59.975795687027855,
11,Stimuli/Morph11.JPG,Stimuli/Morph11.png,Stimuli/BlurLevel5/BlurEditedMorph11,Stimuli/BlurLevel5/BlurEditedMorph11.png,Stimuli/BlurLevel5/NumberedMorphs/BlurEditedMorph11.png,Stimuli/BlurLevel5/OriginalBlur/BlurEditedMorph11.png,Stimuli/BlurMorphTrio/EditedMorph11.png,010024right.gif,Stimuli/normal_thumbnails/11right.gif,,,,,0,0,0,0,0,2,2,10,,,,,,,,,,,,,,,,,,,,,,,13,3,1,236,-1.3979822586768664,-2.0725939313876047,11,Experiment,,,,,,,,,27,27,-16,-16,,,,,,,,,,,,,,,334.9233805469994,335.62251831499816,334.9233805469994,335.62251831499816,78.2312925170068,1583864139.3480089,1583864141.8495018,2.501492977142334,1583864136.264746,1583864139.326182,,,CG,001,22,male,undergrad,2020_Mar_10_1111,AdjustEyeTrack,3.1.5,59.975795687027855,
95,Stimuli/Morph95.JPG,Stimuli/Morph95.png,Stimuli/BlurLevel5/BlurEditedMorph95,Stimuli/BlurLevel5/BlurEditedMorph95.png,Stimuli/BlurLevel5/NumberedMorphs/BlurEditedMorph95.png,Stimuli/BlurLevel5/OriginalBlur/BlurEditedMorph95.png,Stimuli/BlurMorphTrio/EditedMorph95.png,020287right.gif,Stimuli/normal_thumbnails/95right.gif,,,,,0,0,0,0,0,3,3,94,,,,,,,,,,,,,,,,,,,,,,,81,4,1,343,2.3907618899075884,-0.7309292618068428,95,Experiment,,,,,,,,,112,110,-15,-15,,,,,,,,,,,,,,,341.0742824609988,341.76853824000136,341.0742824609988,341.76853824000136,79.59183673469387,1583864145.481028,1583864149.2490969,3.768068790435791,1583864142.365429,1583864145.451041,,,CG,001,22,male,undergrad,2020_Mar_10_1111,AdjustEyeTrack,3.1.5,59.975795687027855,
79,Stimuli/Morph79.JPG,Stimuli/Morph79.png,Stimuli/BlurLevel5/BlurEditedMorph79,Stimuli/BlurLevel5/BlurEditedMorph79.png,Stimuli/BlurLevel5/NumberedMorphs/BlurEditedMorph79.png,Stimuli/BlurLevel5/OriginalBlur/BlurEditedMorph79.png,Stimuli/BlurMorphTrio/EditedMorph79.png,020239right.gif,Stimuli/normal_thumbnails/79right.gif,,,,,0,0,0,0,0,4,4,78,,,,,,,,,,,,,,,,,,,,,,,4,5,1,25,2.2657694675916247,1.0565456543517486,79,Experiment,,,,,,,,,44,87,-8,-8,,,,,,,,,,,,,,,348.4018118890017,349.09969520400045,348.4018118890017,349.09969520400045,89.1156462585034,1583864152.799372,1583864155.983171,3.1837990283966064,1583864149.766459,1583864152.7766669,,,CG,001,22,male,undergrad,2020_Mar_10_1111,AdjustEyeTrack,3.1.5,59.975795687027855,
124,Stimuli/Morph124.JPG,Stimuli/Morph124.png,Stimuli/BlurLevel5/BlurEditedMorph124,Stimuli/BlurLevel5/BlurEditedMorph124.png,Stimuli/BlurLevel5/NumberedMorphs/BlurEditedMorph124.png,Stimuli/BlurLevel5/OriginalBlur/BlurEditedMorph124.png,Stimuli/BlurMorphTrio/EditedMorph124.png,None,None,,,,,0,0,0,0,0,5,5,123,,,,,,,,,,,,,,,,,,,,,,,57,6,1,303,1.3615975875375665,-2.096676419863561,124,Experiment,,,,,,,,,122,115,9,9,,,,,,,,,,,,,,,354.99138236699946,355.6846204079993,354.99138236699946,355.6846204079993,87.75510204081633,1583864159.414602,1583864162.365091,2.950489044189453,1583864156.4977212,1583864159.398232,,,CG,001,22,male,undergrad,2020_Mar_10_1111,AdjustEyeTrack,3.1.5,59.975795687027855,
89,Stimuli/Morph89.JPG,Stimuli/Morph89.png,Stimuli/BlurLevel5/BlurEditedMorph89,Stimuli/BlurLevel5/BlurEditedMorph89.png,Stimuli/BlurLevel5/NumberedMorphs/BlurEditedMorph89.png,Stimuli/BlurLevel5/OriginalBlur/BlurEditedMorph89.png,Stimuli/BlurMorphTrio/EditedMorph89.png,020273right.gif,Stimuli/normal_thumbnails/89right.gif,,,,,0,0,0,0,0,6,6,88,,,,,,,,,,,,,,,,,,,,,,,84,7,1,303,1.3615975875375665,-2.096676419863561,89,Experiment,,,,,,,,,64,106,-17,-17,,,,,,,,,,,,,,,361.19559849000143,361.90786940999897,361.19559849000143,361.90786940999897,76.87074829931973,1583864165.614037,1583864168.285171,2.6711339950561523,1583864162.881307,1583864165.599383,,,CG,001,22,male,undergrad,2020_Mar_10_1111,AdjustEyeTrack,3.1.5,59.975795687027855,
47,Stimuli/Morph47.JPG,Stimuli/Morph47.png,Stimuli/BlurLevel5/BlurEditedMorph47,Stimuli/BlurLevel5/BlurEditedMorph47.png,Stimuli/BlurLevel5/NumberedMorphs/BlurEditedMorph47.png,Stimuli/BlurLevel5/OriginalBlur/BlurEditedMorph47.png,Stimuli/BlurMorphTrio/EditedMorph47.png,010130right.gif,Stimuli/normal_thumbnails/47right.gif,,,,,0,0,0,0,0,7,7,46,,,,,,,,,,,,,,,,,,,,,,,79,8,1,137,-1.828384254047926,1.7049959001562462,47,Experiment,,,,,,,,,37,63,-16,-16,,,,,,,,,,,,,,,367.1177066269993,367.7348970540006,367.1177066269993,367.7348970540006,78.2312925170068,1583864171.448162,1583864173.53273,2.0845680236816406,1583864168.798385,1583864171.423519,,,CG,001,22,male,undergrad,2020_Mar_10_1111,AdjustEyeTrack,3.1.5,59.975795687027855,
65,Stimuli/Morph65.JPG,Stimuli/Morph65.png,Stimuli/BlurLevel5/BlurEditedMorph65,Stimuli/BlurLevel5/BlurEditedMorph65.png,Stimuli/BlurLevel5/NumberedMorphs/BlurEditedMorph65.png,Stimuli/BlurLevel5/OriginalBlur/BlurEditedMorph65.png,Stimuli/BlurMorphTrio/EditedMorph65.png,020209right.gif,Stimuli/normal_thumbnails/65right.gif,,,,,0,0,0,0,0,8,8,64,,,,,,,,,,,,,,,,,,,,,,,47,9,1,248,-0.9365164835397808,-2.317959636416968,65,Experiment,,,,,,,,,20,71,-6,-6,,,,,,,,,,,,,,,372.7890416049995,373.4914971420003,372.7890416049995,373.4914971420003,91.83673469387756,1583864177.2142458,1583864180.565187,3.3509411811828613,1583864174.064638,1583864177.1845472,,,CG,001,22,male,undergrad,2020_Mar_10_1111,AdjustEyeTrack,3.1.5,59.975795687027855,
22,Stimuli/Morph22.JPG,Stimuli/Morph22.png,Stimuli/BlurLevel5/BlurEditedMorph22,Stimuli/BlurLevel5/BlurEditedMorph22.png,Stimuli/BlurLevel5/NumberedMorphs/BlurEditedMorph22.png,Stimuli/BlurLevel5/OriginalBlur/BlurEditedMorph22.png,Stimuli/BlurMorphTrio/EditedMorph22.png,010055right.gif,Stimuli/normal_thumbnails/22right.gif,,,,,0,0,0,0,0,9,9,21,,,,,,,,,,,,,,,,,,,,,,,93,10,1,107,-0.7309292618068417,2.390761889907589,22,Experiment,,,,,,,,,109,16,6,6,,,,,,,,,,,,,,,380.10275480199925,380.8280838380015,380.10275480199925,380.8280838380015,91.83673469387756,1583864184.5494049,1583864187.0166578,2.4672529697418213,1583864181.081097,1583864184.5342798,,,CG,001,22,male,undergrad,2020_Mar_10_1111,AdjustEyeTrack,3.1.5,59.975795687027855,
102,Stimuli/Morph102.JPG,Stimuli/Morph102.png,Stimuli/BlurLevel5/BlurEditedMorph102,Stimuli/BlurLevel5/BlurEditedMorph102.png,Stimuli/BlurLevel5/NumberedMorphs/BlurEditedMorph102.png,Stimuli/BlurLevel5/OriginalBlur/BlurEditedMorph102.png,Stimuli/BlurMorphTrio/EditedMorph102.png,None,None,,,,,0,0,0,0,0,10,10,101,,,,,,,,,,,,,,,,,,,,,,,26,11,1,133,-1.7049959001562458,1.8283842540479267,102,Experiment,,,,,,,,,19,95,7,7,,,,,,,,,,,,,,,385.97986777999904,386.880508025999,385.97986777999904,386.880508025999,90.47619047619048,1583864190.614454,1583864193.1010072,2.486553192138672,1583864187.532594,1583864190.597873,,,CG,001,22,male,undergrad,2020_Mar_10_1111,AdjustEyeTrack,3.1.5,59.975795687027855,
98,Stimuli/Morph98.JPG,Stimuli/Morph98.png,Stimuli/BlurLevel5/BlurEditedMorph98,Stimuli/BlurLevel5/BlurEditedMorph98.png,Stimuli/BlurLevel5/NumberedMorphs/BlurEditedMorph98.png,Stimuli/BlurLevel5/OriginalBlur/BlurEditedMorph98.png,Stimuli/BlurMorphTrio/EditedMorph98.png,020298right.gif,Stimuli/normal_thumbnails/98right.gif,,,,,0,0,0,0,0,11,11,97,,,,,,,,,,,,,,,,,,,,,,,80,12,1,107,-0.7309292618068417,2.390761889907589,98,Experiment,,,,,,,,,16,95,3,3,,,,,,,,,,,,,,,391.89090378699984,392.5637929500008,391.89090378699984,392.5637929500008,95.91836734693877,1583864196.2815082,1583864201.416827,5.135318756103516,1583864193.614351,1583864196.2549162,,,CG,001,22,male,undergrad,2020_Mar_10_1111,AdjustEyeTrack,3.1.5,59.975795687027855,
26,Stimuli/Morph26.JPG,Stimuli/Morph26.png,Stimuli/BlurLevel5/BlurEditedMorph26,Stimuli/BlurLevel5/BlurEditedMorph26.png,Stimuli/BlurLevel5/NumberedMorphs/BlurEditedMorph26.png,Stimuli/BlurLevel5/OriginalBlur/BlurEditedMorph26.png,Stimuli/BlurMorphTrio/EditedMorph26.png,010070right.gif,Stimuli/normal_thumbnails/26right.gif,,,,,0,0,0,0,0,12,12,25,,,,,,,,,,,,,,,,,,,,,,,23,13,1,244,-1.0959278669726944,-2.246985115747917,26,Experiment,,,,,,,,,101,35,-9,-9,,,,,,,,,,,,,,,400.32470458399985,401.01376408899887,400.32470458399985,401.01376408899887,87.75510204081633,1583864204.730322,1583864208.8515992,4.121277332305908,1583864201.931222,1583864204.709888,,,CG,001,22,male,undergrad,2020_Mar_10_1111,AdjustEyeTrack,3.1.5,59.975795687027855,
94,Stimuli/Morph94.JPG,Stimuli/Morph94.png,Stimuli/BlurLevel5/BlurEditedMorph94,Stimuli/BlurLevel5/BlurEditedMorph94.png,Stimuli/BlurLevel5/NumberedMorphs/BlurEditedMorph94.png,Stimuli/BlurLevel5/OriginalBlur/BlurEditedMorph94.png,Stimuli/BlurMorphTrio/EditedMorph94.png,020286right.gif,Stimuli/normal_thumbnails/94right.gif,,,,,0,0,0,0,0,13,13,93,,,,,,,,,,,,,,,,,,,,,,,82,14,1,17,2.3907618899075884,0.7309292618068419,94,Experiment,,,,,,,,,144,96,-2,-2,,,,,,,,,,,,,,,407.7912368879988,408.4871761379982,407.7912368879988,408.4871761379982,97.27891156462584,1583864212.213355,1583864215.467946,3.2545909881591797,1583864209.364125,1583864212.191147,,,CG,001,22,male,undergrad,2020_Mar_10_1111,AdjustEyeTrack,3.1.5,59.975795687027855,
90,Stimuli/Morph90.JPG,Stimuli/Morph90.png,Stimuli/BlurLevel5/BlurEditedMorph90,Stimuli/BlurLevel5/BlurEditedMorph90.png,Stimuli/BlurLevel5/NumberedMorphs/BlurEditedMorph90.png,Stimuli/BlurLevel5/OriginalBlur/BlurEditedMorph90.png,Stimuli/BlurMorphTrio/EditedMorph90.png,020275right.gif,Stimuli/normal_thumbnails/90right.gif,,,,,0,0,0,0,0,14,14,89,,,,,,,,,,,,,,,,,,,,,,,64,15,1,173,-2.481365379103305,0.30467335851286886,90,Experiment,,,,,,,,,37,93,-3,-3,,,,,,,,,,,,,,,414.3052500749982,414.98393878700153,414.3052500749982,414.98393878700153,95.91836734693877,1583864218.713474,1583864223.9682639,5.25478982925415,1583864215.980203,1583864218.691884,,,CG,001,22,male,undergrad,2020_Mar_10_1111,AdjustEyeTrack,3.1.5,59.975795687027855,
131,Stimuli/Morph131.JPG,Stimuli/Morph131.png,Stimuli/BlurLevel5/BlurEditedMorph131,Stimuli/BlurLevel5/BlurEditedMorph131.png,Stimuli/BlurLevel5/NumberedMorphs/BlurEditedMorph131.png,Stimuli/BlurLevel5/OriginalBlur/BlurEditedMorph131.png,Stimuli/BlurMorphTrio/EditedMorph131.png,None,None,,,,,0,0,0,0,0,15,15,130,,,,,,,,,,,,,,,,,,,,,,,100,16,1,13,2.435925161963088,0.5623776358596625,131,Experiment,,,,,,,,,42,10,121,-26,,,,,,,,,,,,,,,422.8316697340015,423.52321883499826,422.8316697340015,423.52321883499826,64.62585034013605,1583864227.229742,1583864233.20095,5.971207857131958,1583864224.4806778,1583864227.207634,,,CG,001,22,male,undergrad,2020_Mar_10_1111,AdjustEyeTrack,3.1.5,59.975795687027855,
21,Stimuli/Morph21.JPG,Stimuli/Morph21.png,Stimuli/BlurLevel5/BlurEditedMorph21,Stimuli/BlurLevel5/BlurEditedMorph21.png,Stimuli/BlurLevel5/NumberedMorphs/BlurEditedMorph21.png,Stimuli/BlurLevel5/OriginalBlur/BlurEditedMorph21.png,Stimuli/BlurMorphTrio/EditedMorph21.png,010049right.gif,Stimuli/normal_thumbnails/21right.gif,,,,,0,0,0,0,0,16,16,20,,,,,,,,,,,,,,,,,,,,,,,80,17,1,49,1.6401475724762684,1.8867739505569299,21,Experiment,,,,,,,,,97,11,10,10,,,,,,,,,,,,,,,431.9843985910011,432.6725328620014,431.9843985910011,432.6725328620014,86.39455782312925,1583864236.396957,1583864241.696511,5.299554109573364,1583864233.7154932,1583864236.376718,,,CG,001,22,male,undergrad,2020_Mar_10_1111,AdjustEyeTrack,3.1.5,59.975795687027855,
141,Stimuli/Morph141.JPG,Stimuli/Morph141.png,Stimuli/BlurLevel5/BlurEditedMorph141,Stimuli/BlurLevel5/BlurEditedMorph141.png,Stimuli/BlurLevel5/NumberedMorphs/BlurEditedMorph141.png,Stimuli/BlurLevel5/OriginalBlur/BlurEditedMorph141.png,Stimuli/BlurMorphTrio/EditedMorph141.png,None,None,,,,,0,0,0,0,0,17,17,140,,,,,,,,,,,,,,,,,,,,,,,78,18,1,92,-0.08724874175625238,2.4984770675477392,141,Experiment,,,,,,,,,46,8,133,-14,,,,,,,,,,,,,,,440.4583209400007,441.12969926799997,440.4583209400007,441.12969926799997,80.95238095238095,1583864244.846974,1583864249.3297029,4.482728958129883,1583864242.213993,1583864244.8208158,,,CG,001,22,male,undergrad,2020_Mar_10_1111,AdjustEyeTrack,3.1.5,59.975795687027855,
54,Stimuli/Morph54.JPG,Stimuli/Morph54.png,Stimuli/BlurLevel5/BlurEditedMorph54,Stimuli/BlurLevel5/BlurEditedMorph54.png,Stimuli/BlurLevel5/NumberedMorphs/BlurEditedMorph54.png,Stimuli/BlurLevel5/OriginalBlur/BlurEditedMorph54.png,Stimuli/BlurMorphTrio/EditedMorph54.png,010150right.gif,Stimuli/normal_thumbnails/54right.gif,,,,,0,0,0,0,0,18,18,53,,,,,,,,,,,,,,,,,,,,,,,37,19,1,192,-2.445369001834514,-0.5197792270443988,54,Experiment,,,,,,,,,49,56,-2,-2,,,,,,,,,,,,,,,448.32498830799886,449.00690280100025,448.32498830799886,449.00690280100025,97.27891156462584,1583864252.73105,1583864256.079584,3.348533868789673,1583864249.8469,1583864252.7163231,,,CG,001,22,male,undergrad,2020_Mar_10_1111,AdjustEyeTrack,3.1.5,59.975795687027855,
6,Stimuli/Morph6.JPG,Stimuli/Morph6.png,Stimuli/BlurLevel5/BlurEditedMorph6,Stimuli/BlurLevel5/BlurEditedMorph6.png,Stimuli/BlurLevel5/NumberedMorphs/BlurEditedMorph6.png,Stimuli/BlurLevel5/OriginalBlur/BlurEditedMorph6.png,Stimuli/BlurMorphTrio/EditedMorph6.png,010012right.gif,Stimuli/normal_thumbnails/6right.gif,,,,,0,0,0,0,0,19,19,5,,,,,,,,,,,,,,,,,,,,,,,92,20,1,166,-2.425739315689991,0.6048047389991693,6,Experiment,,,,,,,,,13,8,-2,-2,,,,,,,,,,,,,,,455.36559390299954,456.06905328300127,455.36559390299954,456.06905328300127,97.27891156462584,1583864259.813323,1583864263.913684,4.100360870361328,1583864256.5968158,1583864259.791476,,,CG,001,22,male,undergrad,2020_Mar_10_1111,AdjustEyeTrack,3.1.5,59.975795687027855,
29,Stimuli/Morph29.JPG,Stimuli/Morph29.png,Stimuli/BlurLevel5/BlurEditedMorph29,Stimuli/BlurLevel5/BlurEditedMorph29.png,Stimuli/BlurLevel5/NumberedMorphs/BlurEditedMorph29.png,Stimuli/BlurLevel5/OriginalBlur/BlurEditedMorph29.png,Stimuli/BlurMorphTrio/EditedMorph29.png,010074right.gif,Stimuli/normal_thumbnails/29right.gif,,,,,0,0,0,0,0,20,20,28,,,,,,,,,,,,,,,,,,,,,,,11,21,1,293,0.9768278212231838,-2.301262133631101,29,Experiment,,,,,,,,,128,35,-6,-6,,,,,,,,,,,,,,,463.2228562749988,463.9299835899983,463.2228562749988,463.9299835899983,91.83673469387756,1583864267.667331,1583864271.546113,3.878782033920288,1583864264.4305248,1583864267.653315,,,CG,001,22,male,undergrad,2020_Mar_10_1111,AdjustEyeTrack,3.1.5,59.975795687027855,
78,Stimuli/Morph78.JPG,Stimuli/Morph78.png,Stimuli/BlurLevel5/BlurEditedMorph78,Stimuli/BlurLevel5/BlurEditedMorph78.png,Stimuli/BlurLevel5/NumberedMorphs/BlurEditedMorph78.png,Stimuli/BlurLevel5/OriginalBlur/BlurEditedMorph78.png,Stimuli/BlurMorphTrio/EditedMorph78.png,020238right.gif,Stimuli/normal_thumbnails/78right.gif,,,,,0,0,0,0,0,21,21,77,,,,,,,,,,,,,,,,,,,,,,,78,22,1,113,-0.9768278212231846,2.3012621336311008,78,Experiment,,,,,,,,,140,77,1,1,,,,,,,,,,,,,,,470.3750128440006,471.06290406599874,470.3750128440006,471.06290406599874,98.63945578231292,1583864274.797014,1583864282.19604,7.399025917053223,1583864272.0634398,1583864274.775519,,,CG,001,22,male,undergrad,2020_Mar_10_1111,AdjustEyeTrack,3.1.5,59.975795687027855,
61,Stimuli/Morph61.JPG,Stimuli/Morph61.png,Stimuli/BlurLevel5/BlurEditedMorph61,Stimuli/BlurLevel5/BlurEditedMorph61.png,Stimuli/BlurLevel5/NumberedMorphs/BlurEditedMorph61.png,Stimuli/BlurLevel5/OriginalBlur/BlurEditedMorph61.png,Stimuli/BlurMorphTrio/EditedMorph61.png,020201right.gif,Stimuli/normal_thumbnails/61right.gif,,,,,0,0,0,0,0,22,22,60,,,,,,,,,,,,,,,,,,,,,,,70,23,1,60,1.2500000000000002,2.1650635094610964,61,Experiment,,,,,,,,,104,66,-5,-5,,,,,,,,,,,,,,,480.9539957699999,481.6333923079983,480.9539957699999,481.6333923079983,93.19727891156462,1583864285.34623,1583864292.896055,7.549824953079224,1583864282.713093,1583864285.320427,,,CG,001,22,male,undergrad,2020_Mar_10_1111,AdjustEyeTrack,3.1.5,59.975795687027855,
31,Stimuli/Morph31.JPG,Stimuli/Morph31.png,Stimuli/BlurLevel5/BlurEditedMorph31,Stimuli/BlurLevel5/BlurEditedMorph31.png,Stimuli/BlurLevel5/NumberedMorphs/BlurEditedMorph31.png,Stimuli/BlurLevel5/OriginalBlur/BlurEditedMorph31.png,Stimuli/BlurMorphTrio/EditedMorph31.png,010079right.gif,Stimuli/normal_thumbnails/31right.gif,,,,,0,0,0,0,0,23,23,30,,,,,,,,,,,,,,,,,,,,,,,41,24,1,9,2.4692208514878446,0.39108616260057716,31,Experiment,,,,,,,,,14,133,-102,45,,,,,,,,,,,,,,,491.6462229960016,492.2816515839986,491.6462229960016,492.2816515839986,38.775510204081634,1583864295.933933,1583864305.879483,9.945549964904785,1583864293.413514,1583864295.9184709,,,CG,001,22,male,undergrad,2020_Mar_10_1111,AdjustEyeTrack,3.1.5,59.975795687027855,
118,Stimuli/Morph118.JPG,Stimuli/Morph118.png,Stimuli/BlurLevel5/BlurEditedMorph118,Stimuli/BlurLevel5/BlurEditedMorph118.png,Stimuli/BlurLevel5/NumberedMorphs/BlurEditedMorph118.png,Stimuli/BlurLevel5/OriginalBlur/BlurEditedMorph118.png,Stimuli/BlurMorphTrio/EditedMorph118.png,None,None,,,,,0,0,0,0,0,24,24,117,,,,,,,,,,,,,,,,,,,,,,,81,25,1,94,-0.17439118436031337,2.4939101256495606,118,Experiment,,,,,,,,,92,137,-19,-19,,,,,,,,,,,,,,,504.66053108599954,505.33323282900164,504.66053108599954,505.33323282900164,74.14965986394557,1583864309.062567,1583864315.878828,6.816261053085327,1583864306.395957,1583864309.040021,,,CG,001,22,male,undergrad,2020_Mar_10_1111,AdjustEyeTrack,3.1.5,59.975795687027855,
82,Stimuli/Morph82.JPG,Stimuli/Morph82.png,Stimuli/BlurLevel5/BlurEditedMorph82,Stimuli/BlurLevel5/BlurEditedMorph82.png,Stimuli/BlurLevel5/NumberedMorphs/BlurEditedMorph82.png,Stimuli/BlurLevel5/OriginalBlur/BlurEditedMorph82.png,Stimuli/BlurMorphTrio/EditedMorph82.png,020247right.gif,Stimuli/normal_thumbnails/82right.gif,,,,,0,0,0,0,0,25,25,81,,,,,,,,,,,,,,,,,,,,,,,67,26,1,186,-2.4863047384206833,-0.2613211581691337,82,Experiment,,,,,,,,,23,74,8,8,,,,,,,,,,,,,,,514.8914801239989,515.5736597370014,514.8914801239989,515.5736597370014,89.1156462585034,1583864319.3128252,1583864322.3621619,3.0493366718292236,1583864316.4134169,1583864319.28596,,,CG,001,22,male,undergrad,2020_Mar_10_1111,AdjustEyeTrack,3.1.5,59.975795687027855,
40,Stimuli/Morph40.JPG,Stimuli/Morph40.png,Stimuli/BlurLevel5/BlurEditedMorph40,Stimuli/BlurLevel5/BlurEditedMorph40.png,Stimuli/BlurLevel5/NumberedMorphs/BlurEditedMorph40.png,Stimuli/BlurLevel5/OriginalBlur/BlurEditedMorph40.png,Stimuli/BlurMorphTrio/EditedMorph40.png,010110right.gif,Stimuli/normal_thumbnails/40right.gif,,,,,0,0,0,0,0,26,26,39,,,,,,,,,,,,,,,,,,,,,,,66,27,1,111,-0.8959198738632507,2.3339510662430043,40,Experiment,,,,,,,,,28,127,-87,60,,,,,,,,,,,,,,,521.1664986469987,521.8285575209993,521.1664986469987,521.8285575209993,18.36734693877551,1583864325.532614,1583864333.428902,7.89628791809082,1583864322.880725,1583864325.5185752,,,CG,001,22,male,undergrad,2020_Mar_10_1111,AdjustEyeTrack,3.1.5,59.975795687027855,
28,Stimuli/Morph28.JPG,Stimuli/Morph28.png,Stimuli/BlurLevel5/BlurEditedMorph28,Stimuli/BlurLevel5/BlurEditedMorph28.png,Stimuli/BlurLevel5/NumberedMorphs/BlurEditedMorph28.png,Stimuli/BlurLevel5/OriginalBlur/BlurEditedMorph28.png,Stimuli/BlurMorphTrio/EditedMorph28.png,010073right.gif,Stimuli/normal_thumbnails/28right.gif,,,,,0,0,0,0,0,27,27,27,,,,,,,,,,,,,,,,,,,,,,,65,28,1,281,0.47702248844136275,-2.45406795861916,28,Experiment,,,,,,,,,100,38,-10,-10,,,,,,,,,,,,,,,532.3901943960009,533.0732356389999,532.3901943960009,533.0732356389999,86.39455782312925,1583864336.765436,1583864339.695304,2.92986798286438,1583864333.963077,1583864336.750516,,,CG,001,22,male,undergrad,2020_Mar_10_1111,AdjustEyeTrack,3.1.5,59.975795687027855,
115,Stimuli/Morph115.JPG,Stimuli/Morph115.png,Stimuli/BlurLevel5/BlurEditedMorph115,Stimuli/BlurLevel5/BlurEditedMorph115.png,Stimuli/BlurLevel5/NumberedMorphs/BlurEditedMorph115.png,Stimuli/BlurLevel5/OriginalBlur/BlurEditedMorph115.png,Stimuli/BlurMorphTrio/EditedMorph115.png,None,None,,,,,0,0,0,0,0,28,28,114,,,,,,,,,,,,,,,,,,,,,,,54,29,1,141,-1.9428649036424273,1.5733009776245934,115,Experiment,,,,,,,,,24,147,-32,-32,,,,,,,,,,,,,,,538.5624610080013,539.2305684989988,538.5624610080013,539.2305684989988,56.4625850340136,1583864342.945817,1583864349.379033,6.433216094970703,1583864340.213035,1583864342.922217,,,CG,001,22,male,undergrad,2020_Mar_10_1111,AdjustEyeTrack,3.1.5,59.975795687027855,
125,Stimuli/Morph125.JPG,Stimuli/Morph125.png,Stimuli/BlurLevel5/BlurEditedMorph125,Stimuli/BlurLevel5/BlurEditedMorph125.png,Stimuli/BlurLevel5/NumberedMorphs/BlurEditedMorph125.png,Stimuli/BlurLevel5/OriginalBlur/BlurEditedMorph125.png,Stimuli/BlurMorphTrio/EditedMorph125.png,None,None,,,,,0,0,0,0,0,29,29,124,,,,,,,,,,,,,,,,,,,,,,,45,30,1,319,1.8867739505569299,-1.6401475724762684,125,Experiment,,,,,,,,,37,136,-11,-11,,,,,,,,,,,,,,,548.1179152219993,548.8054408349999,548.1179152219993,548.8054408349999,85.03401360544218,1583864352.529449,1583864356.211456,3.682007074356079,1583864349.896141,1583864352.5035148,,,CG,001,22,male,undergrad,2020_Mar_10_1111,AdjustEyeTrack,3.1.5,59.975795687027855,
107,Stimuli/Morph107.JPG,Stimuli/Morph107.png,Stimuli/BlurLevel5/BlurEditedMorph107,Stimuli/BlurLevel5/BlurEditedMorph107.png,Stimuli/BlurLevel5/NumberedMorphs/BlurEditedMorph107.png,Stimuli/BlurLevel5/OriginalBlur/BlurEditedMorph107.png,Stimuli/BlurMorphTrio/EditedMorph107.png,None,None,,,,,0,0,0,0,0,30,30,106,,,,,,,,,,,,,,,,,,,,,,,72,31,1,143,-1.9965887751182323,1.5045375578801203,107,Experiment,,,,,,,,,118,118,-11,-11,,,,,,,,,,,,,,,555.109480916999,555.7954929389998,555.109480916999,555.7954929389998,85.03401360544218,1583864359.513964,1583864365.111996,5.598031997680664,1583864356.746668,1583864359.4986749,,,CG,001,22,male,undergrad,2020_Mar_10_1111,AdjustEyeTrack,3.1.5,59.975795687027855,
85,Stimuli/Morph85.JPG,Stimuli/Morph85.png,Stimuli/BlurLevel5/BlurEditedMorph85,Stimuli/BlurLevel5/BlurEditedMorph85.png,Stimuli/BlurLevel5/NumberedMorphs/BlurEditedMorph85.png,Stimuli/BlurLevel5/OriginalBlur/BlurEditedMorph85.png,Stimuli/BlurMorphTrio/EditedMorph85.png,020264right.gif,Stimuli/normal_thumbnails/85right.gif,,,,,0,0,0,0,0,31,31,84,,,,,,,,,,,,,,,,,,,,,,,11,32,1,358,2.4984770675477392,-0.08724874175625204,85,Experiment,,,,,,,,,3,30,55,55,,,,,,,,,,,,,,,564.3944816309995,565.1128205839996,564.3944816309995,565.1128205839996,25.170068027210878,1583864368.861711,1583864377.994784,9.133073091506958,1583864365.628705,1583864368.840281,,,CG,001,22,male,undergrad,2020_Mar_10_1111,AdjustEyeTrack,3.1.5,59.975795687027855,
14,Stimuli/Morph14.JPG,Stimuli/Morph14.png,Stimuli/BlurLevel5/BlurEditedMorph14,Stimuli/BlurLevel5/BlurEditedMorph14.png,Stimuli/BlurLevel5/NumberedMorphs/BlurEditedMorph14.png,Stimuli/BlurLevel5/OriginalBlur/BlurEditedMorph14.png,Stimuli/BlurMorphTrio/EditedMorph14.png,010030right.gif,Stimuli/normal_thumbnails/14right.gif,,,,,0,0,0,0,0,32,32,13,,,,,,,,,,,,,,,,,,,,,,,38,33,1,68,0.9365164835397799,2.3179596364169686,14,Experiment,,,,,,,,,78,17,-3,-3,,,,,,,,,,,,,,,576.9975656579991,577.6821085429983,576.9975656579991,577.6821085429983,95.91836734693877,1583864381.411499,1583864385.361863,3.950363874435425,1583864378.529161,1583864381.3885372,,,CG,001,22,male,undergrad,2020_Mar_10_1111,AdjustEyeTrack,3.1.5,59.975795687027855,
50,Stimuli/Morph50.JPG,Stimuli/Morph50.png,Stimuli/BlurLevel5/BlurEditedMorph50,Stimuli/BlurLevel5/BlurEditedMorph50.png,Stimuli/BlurLevel5/NumberedMorphs/BlurEditedMorph50.png,Stimuli/BlurLevel5/OriginalBlur/BlurEditedMorph50.png,Stimuli/BlurMorphTrio/EditedMorph50.png,010142right.gif,Stimuli/normal_thumbnails/50right.gif,,,,,0,0,0,0,0,33,33,49,,,,,,,,,,,,,,,,,,,,,,,15,34,1,222,-1.8578620636934855,-1.6728265158971456,50,Experiment,,,,,,,,,16,54,-4,-4,,,,,,,,,,,,,,,584.3031780960009,585.1182242569994,584.3031780960009,585.1182242569994,94.5578231292517,1583864388.9953358,1583864392.0616379,3.0663020610809326,1583864385.895554,1583864388.978454,,,CG,001,22,male,undergrad,2020_Mar_10_1111,AdjustEyeTrack,3.1.5,59.975795687027855,
121,Stimuli/Morph121.JPG,Stimuli/Morph121.png,Stimuli/BlurLevel5/BlurEditedMorph121,Stimuli/BlurLevel5/BlurEditedMorph121.png,Stimuli/BlurLevel5/NumberedMorphs/BlurEditedMorph121.png,Stimuli/BlurLevel5/OriginalBlur/BlurEditedMorph121.png,Stimuli/BlurMorphTrio/EditedMorph121.png,None,None,,,,,0,0,0,0,0,34,34,120,,,,,,,,,,,,,,,,,,,,,,,41,35,1,92,-0.08724874175625238,2.4984770675477392,121,Experiment,,,,,,,,,95,147,-26,-26,,,,,,,,,,,,,,,591.0453797340015,591.7444946540018,591.0453797340015,591.7444946540018,64.62585034013605,1583864395.444594,1583864399.811596,4.367002010345459,1583864392.597344,1583864395.428312,,,CG,001,22,male,undergrad,2020_Mar_10_1111,AdjustEyeTrack,3.1.5,59.975795687027855,
147,Stimuli/Morph147.JPG,Stimuli/Morph147.png,Stimuli/BlurLevel5/BlurEditedMorph147,Stimuli/BlurLevel5/BlurEditedMorph147.png,Stimuli/BlurLevel5/NumberedMorphs/BlurEditedMorph147.png,Stimuli/BlurLevel5/OriginalBlur/BlurEditedMorph147.png,Stimuli/BlurMorphTrio/EditedMorph147.png,None,None,,,,,0,0,0,0,0,35,35,146,,,,,,,,,,,,,,,,,,,,,,,6,36,1,241,-1.2120240506158422,-2.1865492678484895,147,Experiment,,,,,,,,,51,146,1,1,,,,,,,,,,,,,,,598.9327486980001,599.737003672999,598.9327486980001,599.737003672999,98.63945578231292,1583864403.644876,1583864408.111742,4.4668660163879395,1583864400.345946,1583864403.62335,,,CG,001,22,male,undergrad,2020_Mar_10_1111,AdjustEyeTrack,3.1.5,59.975795687027855,
127,Stimuli/Morph127.JPG,Stimuli/Morph127.png,Stimuli/BlurLevel5/BlurEditedMorph127,Stimuli/BlurLevel5/BlurEditedMorph127.png,Stimuli/BlurLevel5/NumberedMorphs/BlurEditedMorph127.png,Stimuli/BlurLevel5/OriginalBlur/BlurEditedMorph127.png,Stimuli/BlurMorphTrio/EditedMorph127.png,None,None,,,,,0,0,0,0,0,36,36,126,,,,,,,,,,,,,,,,,,,,,,,12,37,1,127,-1.504537557880121,1.996588775118232,127,Experiment,,,,,,,,,96,123,4,4,,,,,,,,,,,,,,,607.3190864790013,608.0232659180001,607.3190864790013,608.0232659180001,94.5578231292517,1583864411.777934,1583864417.778892,6.00095796585083,1583864408.6458392,1583864411.761855,,,CG,001,22,male,undergrad,2020_Mar_10_1111,AdjustEyeTrack,3.1.5,59.975795687027855,
91,Stimuli/Morph91.JPG,Stimuli/Morph91.png,Stimuli/BlurLevel5/BlurEditedMorph91,Stimuli/BlurLevel5/BlurEditedMorph91.png,Stimuli/BlurLevel5/NumberedMorphs/BlurEditedMorph91.png,Stimuli/BlurLevel5/OriginalBlur/BlurEditedMorph91.png,Stimuli/BlurMorphTrio/EditedMorph91.png,020276right.gif,Stimuli/normal_thumbnails/91right.gif,,,,,0,0,0,0,0,37,37,90,,,,,,,,,,,,,,,,,,,,,,,59,38,1,69,0.895919873863251,2.3339510662430043,91,Experiment,,,,,,,,,112,90,1,1,,,,,,,,,,,,,,,616.4720086080015,617.1437105439982,616.4720086080015,617.1437105439982,98.63945578231292,1583864420.87797,1583864425.544868,4.666898012161255,1583864418.312504,1583864420.862051,,,CG,001,22,male,undergrad,2020_Mar_10_1111,AdjustEyeTrack,3.1.5,59.975795687027855,
113,Stimuli/Morph113.JPG,Stimuli/Morph113.png,Stimuli/BlurLevel5/BlurEditedMorph113,Stimuli/BlurLevel5/BlurEditedMorph113.png,Stimuli/BlurLevel5/NumberedMorphs/BlurEditedMorph113.png,Stimuli/BlurLevel5/OriginalBlur/BlurEditedMorph113.png,Stimuli/BlurMorphTrio/EditedMorph113.png,None,None,,,,,0,0,0,0,0,38,38,112,,,,,,,,,,,,,,,,,,,,,,,44,39,1,238,-1.3247981605830126,-2.1201202403910644,113,Experiment,,,,,,,,,15,117,-4,-4,,,,,,,,,,,,,,,624.5041145399991,625.1993340289991,624.5041145399991,625.1993340289991,94.5578231292517,1583864428.928243,1583864434.577757,5.6495139598846436,1583864426.079233,1583864428.9128408,,,CG,001,22,male,undergrad,2020_Mar_10_1111,AdjustEyeTrack,3.1.5,59.975795687027855,
104,Stimuli/Morph104.JPG,Stimuli/Morph104.png,Stimuli/BlurLevel5/BlurEditedMorph104,Stimuli/BlurLevel5/BlurEditedMorph104.png,Stimuli/BlurLevel5/NumberedMorphs/BlurEditedMorph104.png,Stimuli/BlurLevel5/OriginalBlur/BlurEditedMorph104.png,Stimuli/BlurMorphTrio/EditedMorph104.png,None,None,,,,,0,0,0,0,0,39,39,103,,,,,,,,,,,,,,,,,,,,,,,33,40,1,238,-1.3247981605830126,-2.1201202403910644,104,Experiment,,,,,,,,,47,77,27,27,,,,,,,,,,,,,,,633.4687542569991,634.1603064299998,633.4687542569991,634.1603064299998,63.26530612244898,1583864437.897793,1583864442.5443242,4.646531105041504,1583864435.112054,1583864437.883127,,,CG,001,22,male,undergrad,2020_Mar_10_1111,AdjustEyeTrack,3.1.5,59.975795687027855,
10,Stimuli/Morph10.JPG,Stimuli/Morph10.png,Stimuli/BlurLevel5/BlurEditedMorph10,Stimuli/BlurLevel5/BlurEditedMorph10.png,Stimuli/BlurLevel5/NumberedMorphs/BlurEditedMorph10.png,Stimuli/BlurLevel5/OriginalBlur/BlurEditedMorph10.png,Stimuli/BlurMorphTrio/EditedMorph10.png,010016right.gif,Stimuli/normal_thumbnails/10right.gif,,,,,0,0,0,0,0,40,40,9,,,,,,,,,,,,,,,,,,,,,,,18,41,1,254,-0.6890933895424972,-2.4031542398457977,10,Experiment,,,,,,,,,142,133,-123,24,,,,,,,,,,,,,,,641.2229220750014,642.0006057819992,641.2229220750014,642.0006057819992,67.34693877551021,1583864445.7132218,1583864452.027405,6.314183235168457,1583864443.0786471,1583864445.698813,,,CG,001,22,male,undergrad,2020_Mar_10_1111,AdjustEyeTrack,3.1.5,59.975795687027855,
138,Stimuli/Morph138.JPG,Stimuli/Morph138.png,Stimuli/BlurLevel5/BlurEditedMorph138,Stimuli/BlurLevel5/BlurEditedMorph138.png,Stimuli/BlurLevel5/NumberedMorphs/BlurEditedMorph138.png,Stimuli/BlurLevel5/OriginalBlur/BlurEditedMorph138.png,Stimuli/BlurMorphTrio/EditedMorph138.png,None,None,,,,,0,0,0,0,0,41,41,137,,,,,,,,,,,,,,,,,,,,,,,94,42,1,318,1.8578620636934855,-1.6728265158971454,138,Experiment,,,,,,,,,107,6,132,-15,,,,,,,,,,,,,,,651.1993181850012,651.9101693560006,651.1993181850012,651.9101693560006,79.59183673469387,1583864455.6450539,1583864460.993943,5.348889112472534,1583864452.561793,1583864455.6210408,,,CG,001,22,male,undergrad,2020_Mar_10_1111,AdjustEyeTrack,3.1.5,59.975795687027855,
32,Stimuli/Morph32.JPG,Stimuli/Morph32.png,Stimuli/BlurLevel5/BlurEditedMorph32,Stimuli/BlurLevel5/BlurEditedMorph32.png,Stimuli/BlurLevel5/NumberedMorphs/BlurEditedMorph32.png,Stimuli/BlurLevel5/OriginalBlur/BlurEditedMorph32.png,Stimuli/BlurMorphTrio/EditedMorph32.png,010080right.gif,Stimuli/normal_thumbnails/32right.gif,,,,,0,0,0,0,0,42,42,31,,,,,,,,,,,,,,,,,,,,,,,71,43,1,183,-2.4965738368864345,-0.1308398906073589,32,Experiment,,,,,,,,,25,35,-3,-3,,,,,,,,,,,,,,,659.8457907420016,660.5274299080011,659.8457907420016,660.5274299080011,95.91836734693877,1583864464.2611682,1583864466.093815,1.8326468467712402,1583864461.527767,1583864464.245177,,,CG,001,22,male,undergrad,2020_Mar_10_1111,AdjustEyeTrack,3.1.5,59.975795687027855,
8,Stimuli/Morph8.JPG,Stimuli/Morph8.png,Stimuli/BlurLevel5/BlurEditedMorph8,Stimuli/BlurLevel5/BlurEditedMorph8.png,Stimuli/BlurLevel5/NumberedMorphs/BlurEditedMorph8.png,Stimuli/BlurLevel5/OriginalBlur/BlurEditedMorph8.png,Stimuli/BlurMorphTrio/EditedMorph8.png,010014right.gif,Stimuli/normal_thumbnails/8right.gif,,,,,0,0,0,0,0,43,43,7,,,,,,,,,,,,,,,,,,,,,,,38,44,1,129,-1.5733009776245932,1.9428649036424277,8,Experiment,,,,,,,,,58,5,3,3,,,,,,,,,,,,,,,665.1145338290007,665.8027252159991,665.1145338290007,665.8027252159991,95.91836734693877,1583864469.529887,1583864474.928262,5.398375034332275,1583864466.645947,1583864469.514625,,,CG,001,22,male,undergrad,2020_Mar_10_1111,AdjustEyeTrack,3.1.5,59.975795687027855,
34,Stimuli/Morph34.JPG,Stimuli/Morph34.png,Stimuli/BlurLevel5/BlurEditedMorph34,Stimuli/BlurLevel5/BlurEditedMorph34.png,Stimuli/BlurLevel5/NumberedMorphs/BlurEditedMorph34.png,Stimuli/BlurLevel5/OriginalBlur/BlurEditedMorph34.png,Stimuli/BlurMorphTrio/EditedMorph34.png,010090right.gif,Stimuli/normal_thumbnails/34right.gif,,,,,0,0,0,0,0,44,44,33,,,,,,,,,,,,,,,,,,,,,,,14,45,1,77,0.5623776358596623,2.435925161963088,34,Experiment,,,,,,,,,87,35,-1,-1,,,,,,,,,,,,,,,673.9817447200003,674.6759702359996,673.9817447200003,674.6759702359996,98.63945578231292,1583864478.410081,1583864483.7955542,5.385473251342773,1583864475.462813,1583864478.3858628,,,CG,001,22,male,undergrad,2020_Mar_10_1111,AdjustEyeTrack,3.1.5,59.975795687027855,
41,Stimuli/Morph41.JPG,Stimuli/Morph41.png,Stimuli/BlurLevel5/BlurEditedMorph41,Stimuli/BlurLevel5/BlurEditedMorph41.png,Stimuli/BlurLevel5/NumberedMorphs/BlurEditedMorph41.png,Stimuli/BlurLevel5/OriginalBlur/BlurEditedMorph41.png,Stimuli/BlurMorphTrio/EditedMorph41.png,010112right.gif,Stimuli/normal_thumbnails/41right.gif,,,,,0,0,0,0,0,45,45,40,,,,,,,,,,,,,,,,,,,,,,,1,46,1,267,-0.13083989060736076,-2.4965738368864345,41,Experiment,,,,,,,,,21,33,8,8,,,,,,,,,,,,,,,682.1136069519998,682.7765822379988,682.1136069519998,682.7765822379988,89.1156462585034,1583864486.510537,1583864488.9775949,2.467057943344116,1583864484.329233,1583864486.486769,,,CG,001,22,male,undergrad,2020_Mar_10_1111,AdjustEyeTrack,3.1.5,59.975795687027855,
33,Stimuli/Morph33.JPG,Stimuli/Morph33.png,Stimuli/BlurLevel5/BlurEditedMorph33,Stimuli/BlurLevel5/BlurEditedMorph33.png,Stimuli/BlurLevel5/NumberedMorphs/BlurEditedMorph33.png,Stimuli/BlurLevel5/OriginalBlur/BlurEditedMorph33.png,Stimuli/BlurMorphTrio/EditedMorph33.png,010089right.gif,Stimuli/normal_thumbnails/33right.gif,,,,,0,0,0,0,0,46,46,32,,,,,,,,,,,,,,,,,,,,,,,31,47,1,295,1.056545654351749,-2.2657694675916247,33,Experiment,,,,,,,,,133,33,0,0,,,,,,,,,,,,,,,687.9199097370001,688.6270266190004,687.9199097370001,688.6270266190004,100.0,1583864492.3806221,1583864495.093683,2.7130608558654785,1583864489.513334,1583864492.360806,,,CG,001,22,male,undergrad,2020_Mar_10_1111,AdjustEyeTrack,3.1.5,59.975795687027855,
51,Stimuli/Morph51.JPG,Stimuli/Morph51.png,Stimuli/BlurLevel5/BlurEditedMorph51,Stimuli/BlurLevel5/BlurEditedMorph51.png,Stimuli/BlurLevel5/NumberedMorphs/BlurEditedMorph51.png,Stimuli/BlurLevel5/OriginalBlur/BlurEditedMorph51.png,Stimuli/BlurMorphTrio/EditedMorph51.png,010146right.gif,Stimuli/normal_thumbnails/51right.gif,,,,,0,0,0,0,0,47,47,50,,,,,,,,,,,,,,,,,,,,,,,87,48,1,303,1.3615975875375665,-2.096676419863561,51,Experiment,,,,,,,,,19,50,1,1,,,,,,,,,,,,,,,694.0087495799999,694.7029133290016,694.0087495799999,694.7029133290016,98.63945578231292,1583864498.493856,1583864500.644404,2.150547981262207,1583864495.627788,1583864498.468477,,,CG,001,22,male,undergrad,2020_Mar_10_1111,AdjustEyeTrack,3.1.5,59.975795687027855,
18,Stimuli/Morph18.JPG,Stimuli/Morph18.png,Stimuli/BlurLevel5/BlurEditedMorph18,Stimuli/BlurLevel5/BlurEditedMorph18.png,Stimuli/BlurLevel5/NumberedMorphs/BlurEditedMorph18.png,Stimuli/BlurLevel5/OriginalBlur/BlurEditedMorph18.png,Stimuli/BlurMorphTrio/EditedMorph18.png,010039right.gif,Stimuli/normal_thumbnails/18right.gif,,,,,0,0,0,0,0,48,48,17,,,,,,,,,,,,,,,,,,,,,,,96,49,1,266,-0.17439118436031395,-2.4939101256495606,18,Experiment,,,,,,,,,106,18,0,0,,,,,,,,,,,,,,,700.1409174690016,700.859305938,700.1409174690016,700.859305938,100.0,1583864504.5771651,1583864507.810264,3.2330989837646484,1583864501.17756,1583864504.5514922,,,CG,001,22,male,undergrad,2020_Mar_10_1111,AdjustEyeTrack,3.1.5,59.975795687027855,
42,Stimuli/Morph42.JPG,Stimuli/Morph42.png,Stimuli/BlurLevel5/BlurEditedMorph42,Stimuli/BlurLevel5/BlurEditedMorph42.png,Stimuli/BlurLevel5/NumberedMorphs/BlurEditedMorph42.png,Stimuli/BlurLevel5/OriginalBlur/BlurEditedMorph42.png,Stimuli/BlurMorphTrio/EditedMorph42.png,010121right.gif,Stimuli/normal_thumbnails/42right.gif,,,,,0,0,0,0,0,49,49,41,,,,,,,,,,,,,,,,,,,,,,,44,50,1,201,-2.333951066243004,-0.8959198738632511,42,Experiment,,,,,,,,,20,43,-1,-1,,,,,,,,,,,,,,,706.8867364500002,707.5760743909996,706.8867364500002,707.5760743909996,98.63945578231292,1583864511.294216,1583864514.311403,3.0171871185302734,1583864508.344662,1583864511.277784,,,CG,001,22,male,undergrad,2020_Mar_10_1111,AdjustEyeTrack,3.1.5,59.975795687027855,
73,Stimuli/Morph73.JPG,Stimuli/Morph73.png,Stimuli/BlurLevel5/BlurEditedMorph73,Stimuli/BlurLevel5/BlurEditedMorph73.png,Stimuli/BlurLevel5/NumberedMorphs/BlurEditedMorph73.png,Stimuli/BlurLevel5/OriginalBlur/BlurEditedMorph73.png,Stimuli/BlurMorphTrio/EditedMorph73.png,020230right.gif,Stimuli/normal_thumbnails/73right.gif,,,,,0,0,0,0,0,50,50,72,,,,,,,,,,,,,,,,,,,,,,,77,51,1,75,0.6470476127563018,2.4148145657226707,73,Experiment,,,,,,,,,105,82,-9,-9,,,,,,,,,,,,,,,713.2707717980011,713.951338633,713.2707717980011,713.951338633,87.75510204081633,1583864517.6603441,1583864521.064235,3.40389084815979,1583864514.8782568,1583864517.643893,,,CG,001,22,male,undergrad,2020_Mar_10_1111,AdjustEyeTrack,3.1.5,59.975795687027855,
117,Stimuli/Morph117.JPG,Stimuli/Morph117.png,Stimuli/BlurLevel5/BlurEditedMorph117,Stimuli/BlurLevel5/BlurEditedMorph117.png,Stimuli/BlurLevel5/NumberedMorphs/BlurEditedMorph117.png,Stimuli/BlurLevel5/OriginalBlur/BlurEditedMorph117.png,Stimuli/BlurMorphTrio/EditedMorph117.png,None,None,,,,,0,0,0,0,0,51,51,116,,,,,,,,,,,,,,,,,,,,,,,31,52,1,74,0.6890933895424979,2.4031542398457972,117,Experiment,,,,,,,,,64,132,-15,-15,,,,,,,,,,,,,,,720.0454950169988,720.730252551999,720.0454950169988,720.730252551999,79.59183673469387,1583864524.4496582,1583864530.376765,5.927106857299805,1583864521.5949702,1583864524.410878,,,CG,001,22,male,undergrad,2020_Mar_10_1111,AdjustEyeTrack,3.1.5,59.975795687027855,
53,Stimuli/Morph53.JPG,Stimuli/Morph53.png,Stimuli/BlurLevel5/BlurEditedMorph53,Stimuli/BlurLevel5/BlurEditedMorph53.png,Stimuli/BlurLevel5/NumberedMorphs/BlurEditedMorph53.png,Stimuli/BlurLevel5/OriginalBlur/BlurEditedMorph53.png,Stimuli/BlurMorphTrio/EditedMorph53.png,010149right.gif,Stimuli/normal_thumbnails/53right.gif,,,,,0,0,0,0,0,52,52,52,,,,,,,,,,,,,,,,,,,,,,,79,53,1,26,2.2469851157479175,1.0959278669726935,53,Experiment,,,,,,,,,24,53,0,0,,,,,,,,,,,,,,,729.274481299999,729.9804160079984,729.274481299999,729.9804160079984,100.0,1583864533.711055,1583864537.47841,3.767354965209961,1583864530.911663,1583864533.68494,,,CG,001,22,male,undergrad,2020_Mar_10_1111,AdjustEyeTrack,3.1.5,59.975795687027855,
123,Stimuli/Morph123.JPG,Stimuli/Morph123.png,Stimuli/BlurLevel5/BlurEditedMorph123,Stimuli/BlurLevel5/BlurEditedMorph123.png,Stimuli/BlurLevel5/NumberedMorphs/BlurEditedMorph123.png,Stimuli/BlurLevel5/OriginalBlur/BlurEditedMorph123.png,Stimuli/BlurMorphTrio/EditedMorph123.png,None,None,,,,,0,0,0,0,0,53,53,122,,,,,,,,,,,,,,,,,,,,,,,56,54,1,198,-2.377641290737884,-0.7725424859373682,123,Experiment,,,,,,,,,146,120,3,3,,,,,,,,,,,,,,,736.6142818080007,737.3086671979981,736.6142818080007,737.3086671979981,95.91836734693877,1583864541.009928,1583864545.9443588,4.934430837631226,1583864538.010636,1583864540.994931,,,CG,001,22,male,undergrad,2020_Mar_10_1111,AdjustEyeTrack,3.1.5,59.975795687027855,
30,Stimuli/Morph30.JPG,Stimuli/Morph30.png,Stimuli/BlurLevel5/BlurEditedMorph30,Stimuli/BlurLevel5/BlurEditedMorph30.png,Stimuli/BlurLevel5/NumberedMorphs/BlurEditedMorph30.png,Stimuli/BlurLevel5/OriginalBlur/BlurEditedMorph30.png,Stimuli/BlurMorphTrio/EditedMorph30.png,010076right.gif,Stimuli/normal_thumbnails/30right.gif,,,,,0,0,0,0,0,54,54,29,,,,,,,,,,,,,,,,,,,,,,,94,55,1,226,-1.7366459261474931,-1.798349500846628,30,Experiment,,,,,,,,,45,30,0,0,,,,,,,,,,,,,,,745.1382002879982,745.837297299,745.1382002879982,745.837297299,100.0,1583864549.609697,1583864556.3607209,6.751023769378662,1583864546.480222,1583864549.588073,,,CG,001,22,male,undergrad,2020_Mar_10_1111,AdjustEyeTrack,3.1.5,59.975795687027855,
133,Stimuli/Morph133.JPG,Stimuli/Morph133.png,Stimuli/BlurLevel5/BlurEditedMorph133,Stimuli/BlurLevel5/BlurEditedMorph133.png,Stimuli/BlurLevel5/NumberedMorphs/BlurEditedMorph133.png,Stimuli/BlurLevel5/OriginalBlur/BlurEditedMorph133.png,Stimuli/BlurMorphTrio/EditedMorph133.png,None,None,,,,,0,0,0,0,0,55,55,132,,,,,,,,,,,,,,,,,,,,,,,81,56,1,16,2.4031542398457972,0.6890933895424979,133,Experiment,,,,,,,,,144,105,28,28,,,,,,,,,,,,,,,755.164332624001,755.8608673060007,755.164332624001,755.8608673060007,61.904761904761905,1583864559.627315,1583864565.01281,5.385494947433472,1583864556.894468,1583864559.594317,,,CG,001,22,male,undergrad,2020_Mar_10_1111,AdjustEyeTrack,3.1.5,59.975795687027855,
13,Stimuli/Morph13.JPG,Stimuli/Morph13.png,Stimuli/BlurLevel5/BlurEditedMorph13,Stimuli/BlurLevel5/BlurEditedMorph13.png,Stimuli/BlurLevel5/NumberedMorphs/BlurEditedMorph13.png,Stimuli/BlurLevel5/OriginalBlur/BlurEditedMorph13.png,Stimuli/BlurMorphTrio/EditedMorph13.png,010027right.gif,Stimuli/normal_thumbnails/13right.gif,,,,,0,0,0,0,0,56,56,12,,,,,,,,,,,,,,,,,,,,,,,46,57,1,147,-2.09667641986356,1.3615975875375683,13,Experiment,,,,,,,,,17,20,-7,-7,,,,,,,,,,,,,,,763.7686691570016,764.4514305500015,763.7686691570016,764.4514305500015,90.47619047619048,1583864568.092273,1583864571.060438,2.9681649208068848,1583864565.544089,1583864568.075865,,,CG,001,22,male,undergrad,2020_Mar_10_1111,AdjustEyeTrack,3.1.5,59.975795687027855,
70,Stimuli/Morph70.JPG,Stimuli/Morph70.png,Stimuli/BlurLevel5/BlurEditedMorph70,Stimuli/BlurLevel5/BlurEditedMorph70.png,Stimuli/BlurLevel5/NumberedMorphs/BlurEditedMorph70.png,Stimuli/BlurLevel5/OriginalBlur/BlurEditedMorph70.png,Stimuli/BlurMorphTrio/EditedMorph70.png,020221right.gif,Stimuli/normal_thumbnails/70right.gif,,,,,0,0,0,0,0,57,57,69,,,,,,,,,,,,,,,,,,,,,,,50,58,1,13,2.435925161963088,0.5623776358596625,70,Experiment,,,,,,,,,64,118,-48,-48,,,,,,,,,,,,,,,770.0200765279988,770.7252261770009,770.0200765279988,770.7252261770009,34.693877551020414,1583864574.4262311,1583864583.58373,9.157498836517334,1583864571.594053,1583864574.405257,,,CG,001,22,male,undergrad,2020_Mar_10_1111,AdjustEyeTrack,3.1.5,59.975795687027855,
144,Stimuli/Morph144.JPG,Stimuli/Morph144.png,Stimuli/BlurLevel5/BlurEditedMorph144,Stimuli/BlurLevel5/BlurEditedMorph144.png,Stimuli/BlurLevel5/NumberedMorphs/BlurEditedMorph144.png,Stimuli/BlurLevel5/OriginalBlur/BlurEditedMorph144.png,Stimuli/BlurMorphTrio/EditedMorph144.png,None,None,,,,,0,0,0,0,0,58,58,143,,,,,,,,,,,,,,,,,,,,,,,6,59,1,322,1.970026884016805,-1.5391536883141455,144,Experiment,,,,,,,,,100,2,142,-5,,,,,,,,,,,,,,,782.6933290579982,783.4101087359995,782.6933290579982,783.4101087359995,93.19727891156462,1583864587.176188,1583864591.180913,4.004724979400635,1583864584.1110919,1583864587.151386,,,CG,001,22,male,undergrad,2020_Mar_10_1111,AdjustEyeTrack,3.1.5,59.975795687027855,
36,Stimuli/Morph36.JPG,Stimuli/Morph36.png,Stimuli/BlurLevel5/BlurEditedMorph36,Stimuli/BlurLevel5/BlurEditedMorph36.png,Stimuli/BlurLevel5/NumberedMorphs/BlurEditedMorph36.png,Stimuli/BlurLevel5/OriginalBlur/BlurEditedMorph36.png,Stimuli/BlurMorphTrio/EditedMorph36.png,010095right.gif,Stimuli/normal_thumbnails/36right.gif,,,,,0,0,0,0,0,59,59,35,,,,,,,,,,,,,,,,,,,,,,,94,60,1,290,0.8550503583141726,-2.349231551964771,36,Experiment,,,,,,,,,79,38,-2,-2,,,,,,,,,,,,,,,790.3484591259985,791.0660703649992,790.3484591259985,791.0660703649992,97.27891156462584,1583864594.8125162,1583864603.696934,8.88441777229309,1583864591.710189,1583864594.796374,,,CG,001,22,male,undergrad,2020_Mar_10_1111,AdjustEyeTrack,3.1.5,59.975795687027855,
80,Stimuli/Morph80.JPG,Stimuli/Morph80.png,Stimuli/BlurLevel5/BlurEditedMorph80,Stimuli/BlurLevel5/BlurEditedMorph80.png,Stimuli/BlurLevel5/NumberedMorphs/BlurEditedMorph80.png,Stimuli/BlurLevel5/OriginalBlur/BlurEditedMorph80.png,Stimuli/BlurMorphTrio/EditedMorph80.png,020240right.gif,Stimuli/normal_thumbnails/80right.gif,,,,,0,0,0,0,0,60,60,79,,,,,,,,,,,,,,,,,,,,,,,83,61,1,60,1.2500000000000002,2.1650635094610964,80,Experiment,,,,,,,,,135,83,-3,-3,,,,,,,,,,,,,,,802.7141064509997,803.4166529930008,802.7141064509997,803.4166529930008,95.91836734693877,1583864607.128082,1583864613.042306,5.914223909378052,1583864604.228072,1583864607.1130319,,,CG,001,22,male,undergrad,2020_Mar_10_1111,AdjustEyeTrack,3.1.5,59.975795687027855,
129,Stimuli/Morph129.JPG,Stimuli/Morph129.png,Stimuli/BlurLevel5/BlurEditedMorph129,Stimuli/BlurLevel5/BlurEditedMorph129.png,Stimuli/BlurLevel5/NumberedMorphs/BlurEditedMorph129.png,Stimuli/BlurLevel5/OriginalBlur/BlurEditedMorph129.png,Stimuli/BlurMorphTrio/EditedMorph129.png,None,None,,,,,0,0,0,0,0,61,61,128,,,,,,,,,,,,,,,,,,,,,,,42,62,1,37,1.996588775118232,1.5045375578801208,129,Experiment,,,,,,,,,82,111,18,18,,,,,,,,,,,,,,,812.2597924420006,812.9802160350009,812.2597924420006,812.9802160350009,75.51020408163265,1583864616.742395,1583864622.296538,5.554143190383911,1583864613.5765939,1583864616.716649,,,CG,001,22,male,undergrad,2020_Mar_10_1111,AdjustEyeTrack,3.1.5,59.975795687027855,
99,Stimuli/Morph99.JPG,Stimuli/Morph99.png,Stimuli/BlurLevel5/BlurEditedMorph99,Stimuli/BlurLevel5/BlurEditedMorph99.png,Stimuli/BlurLevel5/NumberedMorphs/BlurEditedMorph99.png,Stimuli/BlurLevel5/OriginalBlur/BlurEditedMorph99.png,Stimuli/BlurMorphTrio/EditedMorph99.png,020299right.gif,Stimuli/normal_thumbnails/99right.gif,,,,,0,0,0,0,0,62,62,98,,,,,,,,,,,,,,,,,,,,,,,40,63,1,327,2.0966764198635603,-1.3615975875375674,99,Experiment,,,,,,,,,76,100,-1,-1,,,,,,,,,,,,,,,821.3069028630016,822.011632062,821.3069028630016,822.011632062,98.63945578231292,1583864625.7441652,1583864630.945974,5.201808929443359,1583864622.8260639,1583864625.729082,,,CG,001,22,male,undergrad,2020_Mar_10_1111,AdjustEyeTrack,3.1.5,59.975795687027855,
2,Stimuli/Morph2.JPG,Stimuli/Morph2.png,Stimuli/BlurLevel5/BlurEditedMorph2,Stimuli/BlurLevel5/BlurEditedMorph2.png,Stimuli/BlurLevel5/NumberedMorphs/BlurEditedMorph2.png,Stimuli/BlurLevel5/OriginalBlur/BlurEditedMorph2.png,Stimuli/BlurMorphTrio/EditedMorph2.png,010006right.gif,Stimuli/normal_thumbnails/2right.gif,,,,,0,0,0,0,0,63,63,1,,,,,,,,,,,,,,,,,,,,,,,49,64,1,226,-1.7366459261474931,-1.798349500846628,2,Experiment,,,,,,,,,127,5,-3,-3,,,,,,,,,,,,,,,829.9094453479993,830.5989084430003,829.9094453479993,830.5989084430003,95.91836734693877,1583864634.32583,1583864636.5754921,2.249662160873413,1583864631.476584,1583864634.309723,,,CG,001,22,male,undergrad,2020_Mar_10_1111,AdjustEyeTrack,3.1.5,59.975795687027855,
19,Stimuli/Morph19.JPG,Stimuli/Morph19.png,Stimuli/BlurLevel5/BlurEditedMorph19,Stimuli/BlurLevel5/BlurEditedMorph19.png,Stimuli/BlurLevel5/NumberedMorphs/BlurEditedMorph19.png,Stimuli/BlurLevel5/OriginalBlur/BlurEditedMorph19.png,Stimuli/BlurMorphTrio/EditedMorph19.png,010045right.gif,Stimuli/normal_thumbnails/19right.gif,,,,,0,0,0,0,0,64,64,18,,,,,,,,,,,,,,,,,,,,,,,57,65,1,214,-2.0725939313876047,-1.3979822586768667,19,Experiment,,,,,,,,,128,9,10,10,,,,,,,,,,,,,,,835.6170297630015,836.3187502760011,835.6170297630015,836.3187502760011,86.39455782312925,1583864640.045123,1583864646.0108318,5.9657087326049805,1583864637.110372,1583864640.030615,,,CG,001,22,male,undergrad,2020_Mar_10_1111,AdjustEyeTrack,3.1.5,59.975795687027855,
97,Stimuli/Morph97.JPG,Stimuli/Morph97.png,Stimuli/BlurLevel5/BlurEditedMorph97,Stimuli/BlurLevel5/BlurEditedMorph97.png,Stimuli/BlurLevel5/NumberedMorphs/BlurEditedMorph97.png,Stimuli/BlurLevel5/OriginalBlur/BlurEditedMorph97.png,Stimuli/BlurMorphTrio/EditedMorph97.png,020294right.gif,Stimuli/normal_thumbnails/97right.gif,,,,,0,0,0,0,0,65,65,96,,,,,,,,,,,,,,,,,,,,,,,11,66,1,277,0.3046733585128692,-2.481365379103305,97,Experiment,,,,,,,,,7,142,-45,-45,,,,,,,,,,,,,,,845.3142795230015,846.0456220209999,845.3142795230015,846.0456220209999,38.775510204081634,1583864649.843261,1583864656.996802,7.153541088104248,1583864646.543126,1583864649.820134,,,CG,001,22,male,undergrad,2020_Mar_10_1111,AdjustEyeTrack,3.1.5,59.975795687027855,
145,Stimuli/Morph145.JPG,Stimuli/Morph145.png,Stimuli/BlurLevel5/BlurEditedMorph145,Stimuli/BlurLevel5/BlurEditedMorph145.png,Stimuli/BlurLevel5/NumberedMorphs/BlurEditedMorph145.png,Stimuli/BlurLevel5/OriginalBlur/BlurEditedMorph145.png,Stimuli/BlurMorphTrio/EditedMorph145.png,None,None,,,,,0,0,0,0,0,66,66,144,,,,,,,,,,,,,,,,,,,,,,,38,67,1,342,2.3776412907378837,-0.7725424859373691,145,Experiment,,,,,,,,,23,142,3,3,,,,,,,,,,,,,,,856.0275804619996,856.7407822870009,856.0275804619996,856.7407822870009,95.91836734693877,1583864660.4917939,1583864665.2419882,4.750194311141968,1583864657.52787,1583864660.467802,,,CG,001,22,male,undergrad,2020_Mar_10_1111,AdjustEyeTrack,3.1.5,59.975795687027855,
109,Stimuli/Morph109.JPG,Stimuli/Morph109.png,Stimuli/BlurLevel5/BlurEditedMorph109,Stimuli/BlurLevel5/BlurEditedMorph109.png,Stimuli/BlurLevel5/NumberedMorphs/BlurEditedMorph109.png,Stimuli/BlurLevel5/OriginalBlur/BlurEditedMorph109.png,Stimuli/BlurMorphTrio/EditedMorph109.png,None,None,,,,,0,0,0,0,0,67,67,108,,,,,,,,,,,,,,,,,,,,,,,67,68,1,137,-1.828384254047926,1.7049959001562462,109,Experiment,,,,,,,,,24,126,-17,-17,,,,,,,,,,,,,,,864.3112245660013,865.0747551189997,864.3112245660013,865.0747551189997,76.87074829931973,1583864668.825309,1583864674.8415098,6.01620078086853,1583864665.777287,1583864668.7768378,,,CG,001,22,male,undergrad,2020_Mar_10_1111,AdjustEyeTrack,3.1.5,59.975795687027855,
59,Stimuli/Morph59.JPG,Stimuli/Morph59.png,Stimuli/BlurLevel5/BlurEditedMorph59,Stimuli/BlurLevel5/BlurEditedMorph59.png,Stimuli/BlurLevel5/NumberedMorphs/BlurEditedMorph59.png,Stimuli/BlurLevel5/OriginalBlur/BlurEditedMorph59.png,Stimuli/BlurMorphTrio/EditedMorph59.png,010160right.gif,Stimuli/normal_thumbnails/59right.gif,,,,,0,0,0,0,0,68,68,58,,,,,,,,,,,,,,,,,,,,,,,64,69,1,233,-1.5045375578801208,-1.996588775118232,59,Experiment,,,,,,,,,68,40,19,19,,,,,,,,,,,,,,,873.7390222850008,874.4338756049983,873.7390222850008,874.4338756049983,74.14965986394557,1583864678.191756,1583864684.1254778,5.9337217807769775,1583864675.3760362,1583864678.167356,,,CG,001,22,male,undergrad,2020_Mar_10_1111,AdjustEyeTrack,3.1.5,59.975795687027855,
96,Stimuli/Morph96.JPG,Stimuli/Morph96.png,Stimuli/BlurLevel5/BlurEditedMorph96,Stimuli/BlurLevel5/BlurEditedMorph96.png,Stimuli/BlurLevel5/NumberedMorphs/BlurEditedMorph96.png,Stimuli/BlurLevel5/OriginalBlur/BlurEditedMorph96.png,Stimuli/BlurMorphTrio/EditedMorph96.png,020292right.gif,Stimuli/normal_thumbnails/96right.gif,,,,,0,0,0,0,0,69,69,95,,,,,,,,,,,,,,,,,,,,,,,53,70,1,220,-1.9151111077974452,-1.6069690242163481,96,Experiment,,,,,,,,,75,103,-7,-7,,,,,,,,,,,,,,,883.2224751009999,883.928976307001,883.2224751009999,883.928976307001,90.47619047619048,1583864687.657718,1583864691.291754,3.634036064147949,1583864684.659394,1583864687.63772,,,CG,001,22,male,undergrad,2020_Mar_10_1111,AdjustEyeTrack,3.1.5,59.975795687027855,
9,Stimuli/Morph9.JPG,Stimuli/Morph9.png,Stimuli/BlurLevel5/BlurEditedMorph9,Stimuli/BlurLevel5/BlurEditedMorph9.png,Stimuli/BlurLevel5/NumberedMorphs/BlurEditedMorph9.png,Stimuli/BlurLevel5/OriginalBlur/BlurEditedMorph9.png,Stimuli/BlurMorphTrio/EditedMorph9.png,010015right.gif,Stimuli/normal_thumbnails/9right.gif,,,,,0,0,0,0,0,70,70,8,,,,,,,,,,,,,,,,,,,,,,,6,71,1,56,1.3979822586768673,2.072593931387604,9,Experiment,,,,,,,,,55,3,6,6,,,,,,,,,,,,,,,890.4532014479992,891.1782519730004,890.4532014479992,891.1782519730004,91.83673469387756,1583864694.9264362,1583864700.808564,5.88212776184082,1583864691.82587,1583864694.912006,,,CG,001,22,male,undergrad,2020_Mar_10_1111,AdjustEyeTrack,3.1.5,59.975795687027855,
105,Stimuli/Morph105.JPG,Stimuli/Morph105.png,Stimuli/BlurLevel5/BlurEditedMorph105,Stimuli/BlurLevel5/BlurEditedMorph105.png,Stimuli/BlurLevel5/NumberedMorphs/BlurEditedMorph105.png,Stimuli/BlurLevel5/OriginalBlur/BlurEditedMorph105.png,Stimuli/BlurMorphTrio/EditedMorph105.png,None,None,,,,,0,0,0,0,0,71,71,104,,,,,,,,,,,,,,,,,,,,,,,27,72,1,169,-2.45406795861916,0.4770224884413624,105,Experiment,,,,,,,,,50,112,-7,-7,,,,,,,,,,,,,,,899.8718831459992,900.5759822649998,899.8718831459992,900.5759822649998,90.47619047619048,1583864704.3249369,1583864708.992002,4.667065143585205,1583864701.3427541,1583864704.302557,,,CG,001,22,male,undergrad,2020_Mar_10_1111,AdjustEyeTrack,3.1.5,59.975795687027855,
93,Stimuli/Morph93.JPG,Stimuli/Morph93.png,Stimuli/BlurLevel5/BlurEditedMorph93,Stimuli/BlurLevel5/BlurEditedMorph93.png,Stimuli/BlurLevel5/NumberedMorphs/BlurEditedMorph93.png,Stimuli/BlurLevel5/OriginalBlur/BlurEditedMorph93.png,Stimuli/BlurMorphTrio/EditedMorph93.png,020280right.gif,Stimuli/normal_thumbnails/93right.gif,,,,,0,0,0,0,0,72,72,92,,,,,,,,,,,,,,,,,,,,,,,18,73,1,272,0.0872487417562532,-2.4984770675477392,93,Experiment,,,,,,,,,118,80,13,13,,,,,,,,,,,,,,,907.6763083299993,908.3624891030013,907.6763083299993,908.3624891030013,82.31292517006803,1583864712.075669,1583864714.9076731,2.8320040702819824,1583864709.5261922,1583864712.061549,,,CG,001,22,male,undergrad,2020_Mar_10_1111,AdjustEyeTrack,3.1.5,59.975795687027855,
4,Stimuli/Morph4.JPG,Stimuli/Morph4.png,Stimuli/BlurLevel5/BlurEditedMorph4,Stimuli/BlurLevel5/BlurEditedMorph4.png,Stimuli/BlurLevel5/NumberedMorphs/BlurEditedMorph4.png,Stimuli/BlurLevel5/OriginalBlur/BlurEditedMorph4.png,Stimuli/BlurMorphTrio/EditedMorph4.png,010010right.gif,Stimuli/normal_thumbnails/4right.gif,,,,,0,0,0,0,0,73,73,3,,,,,,,,,,,,,,,,,,,,,,,79,74,1,202,-2.3179596364169686,-0.93651648353978,4,Experiment,,,,,,,,,116,10,-6,-6,,,,,,,,,,,,,,,913.7741259440008,914.4650642089982,913.7741259440008,914.4650642089982,91.83673469387756,1583864718.174148,1583864721.2754428,3.101294755935669,1583864715.441771,1583864718.1588202,,,CG,001,22,male,undergrad,2020_Mar_10_1111,AdjustEyeTrack,3.1.5,59.975795687027855,
55,Stimuli/Morph55.JPG,Stimuli/Morph55.png,Stimuli/BlurLevel5/BlurEditedMorph55,Stimuli/BlurLevel5/BlurEditedMorph55.png,Stimuli/BlurLevel5/NumberedMorphs/BlurEditedMorph55.png,Stimuli/BlurLevel5/OriginalBlur/BlurEditedMorph55.png,Stimuli/BlurMorphTrio/EditedMorph55.png,010151right.gif,Stimuli/normal_thumbnails/55right.gif,,,,,0,0,0,0,0,74,74,54,,,,,,,,,,,,,,,,,,,,,,,2,75,1,38,1.9700268840168047,1.5391536883141457,55,Experiment,,,,,,,,,123,47,8,8,,,,,,,,,,,,,,,920.1266571919987,920.8258482679994,920.1266571919987,920.8258482679994,89.1156462585034,1583864724.558815,1583864730.69103,6.1322150230407715,1583864721.809053,1583864724.542015,,,CG,001,22,male,undergrad,2020_Mar_10_1111,AdjustEyeTrack,3.1.5,59.975795687027855,
37,Stimuli/Morph37.JPG,Stimuli/Morph37.png,Stimuli/BlurLevel5/BlurEditedMorph37,Stimuli/BlurLevel5/BlurEditedMorph37.png,Stimuli/BlurLevel5/NumberedMorphs/BlurEditedMorph37.png,Stimuli/BlurLevel5/OriginalBlur/BlurEditedMorph37.png,Stimuli/BlurMorphTrio/EditedMorph37.png,010097right.gif,Stimuli/normal_thumbnails/37right.gif,,,,,0,0,0,0,0,75,75,36,,,,,,,,,,,,,,,,,,,,,,,68,76,1,184,-2.4939101256495606,-0.1743911843603132,37,Experiment,,,,,,,,,129,39,-2,-2,,,,,,,,,,,,,,,929.6107340390008,930.3039132839986,929.6107340390008,930.3039132839986,97.27891156462584,1583864734.025239,1583864738.7577899,4.732550859451294,1583864731.225373,1583864734.010203,,,CG,001,22,male,undergrad,2020_Mar_10_1111,AdjustEyeTrack,3.1.5,59.975795687027855,
146,Stimuli/Morph146.JPG,Stimuli/Morph146.png,Stimuli/BlurLevel5/BlurEditedMorph146,Stimuli/BlurLevel5/BlurEditedMorph146.png,Stimuli/BlurLevel5/NumberedMorphs/BlurEditedMorph146.png,Stimuli/BlurLevel5/OriginalBlur/BlurEditedMorph146.png,Stimuli/BlurMorphTrio/EditedMorph146.png,None,None,,,,,0,0,0,0,0,76,76,145,,,,,,,,,,,,,,,,,,,,,,,78,77,1,223,-1.8283842540479267,-1.7049959001562458,146,Experiment,,,,,,,,,79,3,143,-4,,,,,,,,,,,,,,,937.5568969829983,938.2486710490011,937.5568969829983,938.2486710490011,94.5578231292517,1583864741.891524,1583864744.894515,3.002990961074829,1583864739.291905,1583864741.864662,,,CG,001,22,male,undergrad,2020_Mar_10_1111,AdjustEyeTrack,3.1.5,59.975795687027855,
49,Stimuli/Morph49.JPG,Stimuli/Morph49.png,Stimuli/BlurLevel5/BlurEditedMorph49,Stimuli/BlurLevel5/BlurEditedMorph49.png,Stimuli/BlurLevel5/NumberedMorphs/BlurEditedMorph49.png,Stimuli/BlurLevel5/OriginalBlur/BlurEditedMorph49.png,Stimuli/BlurMorphTrio/EditedMorph49.png,010135right.gif,Stimuli/normal_thumbnails/49right.gif,,,,,0,0,0,0,0,77,77,48,,,,,,,,,,,,,,,,,,,,,,,64,78,1,127,-1.504537557880121,1.996588775118232,49,Experiment,,,,,,,,,38,55,-6,-6,,,,,,,,,,,,,,,943.79810774,944.5018942409988,943.79810774,944.5018942409988,91.83673469387756,1583864748.226539,1583864750.757857,2.531318187713623,1583864745.44628,1583864748.211245,,,CG,001,22,male,undergrad,2020_Mar_10_1111,AdjustEyeTrack,3.1.5,59.975795687027855,
72,Stimuli/Morph72.JPG,Stimuli/Morph72.png,Stimuli/BlurLevel5/BlurEditedMorph72,Stimuli/BlurLevel5/BlurEditedMorph72.png,Stimuli/BlurLevel5/NumberedMorphs/BlurEditedMorph72.png,Stimuli/BlurLevel5/OriginalBlur/BlurEditedMorph72.png,Stimuli/BlurMorphTrio/EditedMorph72.png,020227right.gif,Stimuli/normal_thumbnails/72right.gif,,,,,0,0,0,0,0,78,78,71,,,,,,,,,,,,,,,,,,,,,,,38,79,1,276,0.2613211581691325,-2.4863047384206833,72,Experiment,,,,,,,,,89,69,3,3,,,,,,,,,,,,,,,949.7837604339984,950.4901329130007,949.7837604339984,950.4901329130007,95.91836734693877,1583864754.226847,1583864757.074573,2.8477261066436768,1583864751.308449,1583864754.212851,,,CG,001,22,male,undergrad,2020_Mar_10_1111,AdjustEyeTrack,3.1.5,59.975795687027855,
64,Stimuli/Morph64.JPG,Stimuli/Morph64.png,Stimuli/BlurLevel5/BlurEditedMorph64,Stimuli/BlurLevel5/BlurEditedMorph64.png,Stimuli/BlurLevel5/NumberedMorphs/BlurEditedMorph64.png,Stimuli/BlurLevel5/OriginalBlur/BlurEditedMorph64.png,Stimuli/BlurMorphTrio/EditedMorph64.png,020208right.gif,Stimuli/normal_thumbnails/64right.gif,,,,,0,0,0,0,0,79,79,63,,,,,,,,,,,,,,,,,,,,,,,4,80,1,176,-2.4939101256495606,0.1743911843603138,64,Experiment,,,,,,,,,22,62,2,2,,,,,,,,,,,,,,,956.2208883200001,956.9240441039983,956.2208883200001,956.9240441039983,97.27891156462584,1583864760.658714,1583864765.441204,4.782490015029907,1583864757.608574,1583864760.6430452,,,CG,001,22,male,undergrad,2020_Mar_10_1111,AdjustEyeTrack,3.1.5,59.975795687027855,
126,Stimuli/Morph126.JPG,Stimuli/Morph126.png,Stimuli/BlurLevel5/BlurEditedMorph126,Stimuli/BlurLevel5/BlurEditedMorph126.png,Stimuli/BlurLevel5/NumberedMorphs/BlurEditedMorph126.png,Stimuli/BlurLevel5/OriginalBlur/BlurEditedMorph126.png,Stimuli/BlurMorphTrio/EditedMorph126.png,None,None,,,,,0,0,0,0,0,80,80,125,,,,,,,,,,,,,,,,,,,,,,,54,81,1,65,1.0565456543517486,2.2657694675916247,126,Experiment,,,,,,,,,117,116,10,10,,,,,,,,,,,,,,,964.3241845599987,965.0335534699989,964.3241845599987,965.0335534699989,86.39455782312925,1583864768.7598379,1583864772.9411561,4.181318283081055,1583864765.974995,1583864768.744771,,,CG,001,22,male,undergrad,2020_Mar_10_1111,AdjustEyeTrack,3.1.5,59.975795687027855,
1,Stimuli/Morph1.JPG,Stimuli/Morph1.png,Stimuli/BlurLevel5/BlurEditedMorph1,Stimuli/BlurLevel5/BlurEditedMorph1.png,Stimuli/BlurLevel5/NumberedMorphs/BlurEditedMorph1.png,Stimuli/BlurLevel5/OriginalBlur/BlurEditedMorph1.png,Stimuli/BlurMorphTrio/EditedMorph1.png,010003right.gif,Stimuli/normal_thumbnails/1right.gif,,,,,0,0,0,0,0,81,81,0,,,,,,,,,,,,,,,,,,,,,,,6,82,1,52,1.5391536883141457,1.9700268840168047,1,Experiment,,,,,,,,,53,131,-130,17,,,,,,,,,,,,,,,972.0737808420017,972.8094785639987,972.0737808420017,972.8094785639987,76.87074829931973,1583864776.540481,1583864780.9243991,4.383918046951294,1583864773.47439,1583864776.524766,,,CG,001,22,male,undergrad,2020_Mar_10_1111,AdjustEyeTrack,3.1.5,59.975795687027855,
43,Stimuli/Morph43.JPG,Stimuli/Morph43.png,Stimuli/BlurLevel5/BlurEditedMorph43,Stimuli/BlurLevel5/BlurEditedMorph43.png,Stimuli/BlurLevel5/NumberedMorphs/BlurEditedMorph43.png,Stimuli/BlurLevel5/OriginalBlur/BlurEditedMorph43.png,Stimuli/BlurMorphTrio/EditedMorph43.png,010124right.gif,Stimuli/normal_thumbnails/43right.gif,,,,,0,0,0,0,0,82,82,42,,,,,,,,,,,,,,,,,,,,,,,54,83,1,244,-1.0959278669726944,-2.246985115747917,43,Experiment,,,,,,,,,105,48,-5,-5,,,,,,,,,,,,,,,979.7628406699987,980.462911816001,979.7628406699987,980.462911816001,93.19727891156462,1583864784.240876,1583864788.640573,4.3996970653533936,1583864781.459826,1583864784.218799,,,CG,001,22,male,undergrad,2020_Mar_10_1111,AdjustEyeTrack,3.1.5,59.975795687027855,
57,Stimuli/Morph57.JPG,Stimuli/Morph57.png,Stimuli/BlurLevel5/BlurEditedMorph57,Stimuli/BlurLevel5/BlurEditedMorph57.png,Stimuli/BlurLevel5/NumberedMorphs/BlurEditedMorph57.png,Stimuli/BlurLevel5/OriginalBlur/BlurEditedMorph57.png,Stimuli/BlurMorphTrio/EditedMorph57.png,010158right.gif,Stimuli/normal_thumbnails/57right.gif,,,,,0,0,0,0,0,83,83,56,,,,,,,,,,,,,,,,,,,,,,,93,84,1,102,-0.5197792270443984,2.4453690018345142,57,Experiment,,,,,,,,,83,39,18,18,,,,,,,,,,,,,,,988.2273192069988,988.9691656050018,988.2273192069988,988.9691656050018,75.51020408163265,1583864792.6937768,1583864798.9247732,6.230996370315552,1583864789.174763,1583864792.678137,,,CG,001,22,male,undergrad,2020_Mar_10_1111,AdjustEyeTrack,3.1.5,59.975795687027855,
25,Stimuli/Morph25.JPG,Stimuli/Morph25.png,Stimuli/BlurLevel5/BlurEditedMorph25,Stimuli/BlurLevel5/BlurEditedMorph25.png,Stimuli/BlurLevel5/NumberedMorphs/BlurEditedMorph25.png,Stimuli/BlurLevel5/OriginalBlur/BlurEditedMorph25.png,Stimuli/BlurMorphTrio/EditedMorph25.png,010069right.gif,Stimuli/normal_thumbnails/25right.gif,,,,,0,0,0,0,0,84,84,24,,,,,,,,,,,,,,,,,,,,,,,15,85,1,334,2.246985115747917,-1.0959278669726944,25,Experiment,,,,,,,,,78,26,-1,-1,,,,,,,,,,,,,,,997.9829674329994,998.6888109270003,997.9829674329994,998.6888109270003,98.63945578231292,1583864802.490156,1583864809.3076859,6.817529916763306,1583864799.524937,1583864802.444841,,,CG,001,22,male,undergrad,2020_Mar_10_1111,AdjustEyeTrack,3.1.5,59.975795687027855,
13,Stimuli/Morph13.JPG,Stimuli/Morph13.png,Stimuli/BlurLevel5/BlurEditedMorph13,Stimuli/BlurLevel5/BlurEditedMorph13.png,Stimuli/BlurLevel5/NumberedMorphs/BlurEditedMorph13.png,Stimuli/BlurLevel5/OriginalBlur/BlurEditedMorph13.png,Stimuli/BlurMorphTrio/EditedMorph13.png,010027right.gif,Stimuli/normal_thumbnails/13right.gif,,,,,1,0,1,0,0,0,0,12,,,,,,,,,,,,,,,,,,,,,,,23,1,2,273,0.13083989060735987,-2.4965738368864345,13,Experiment,,,,,,,,,101,17,-4,-4,,,,,,,,,,,,,,,1023.3131714470001,1024.0219706800017,1023.3131714470001,1024.0219706800017,94.5578231292517,1583864827.7572632,1583864830.307175,2.5499117374420166,1583864824.923734,1583864827.740253,space,14.305191928000568,CG,001,22,male,undergrad,2020_Mar_10_1111,AdjustEyeTrack,3.1.5,59.975795687027855,
83,Stimuli/Morph83.JPG,Stimuli/Morph83.png,Stimuli/BlurLevel5/BlurEditedMorph83,Stimuli/BlurLevel5/BlurEditedMorph83.png,Stimuli/BlurLevel5/NumberedMorphs/BlurEditedMorph83.png,Stimuli/BlurLevel5/OriginalBlur/BlurEditedMorph83.png,Stimuli/BlurMorphTrio/EditedMorph83.png,020259right.gif,Stimuli/normal_thumbnails/83right.gif,,,,,1,0,1,0,0,1,1,82,,,,,,,,,,,,,,,,,,,,,,,50,2,2,174,-2.4863047384206833,0.2613211581691343,83,Experiment,,,,,,,,,109,87,-4,-4,,,,,,,,,,,,,,,1029.2812630599983,1029.9758109789982,1029.2812630599983,1029.9758109789982,94.5578231292517,1583864833.723556,1583864836.65711,2.93355393409729,1583864830.8407092,1583864833.708002,,,CG,001,22,male,undergrad,2020_Mar_10_1111,AdjustEyeTrack,3.1.5,59.975795687027855,
22,Stimuli/Morph22.JPG,Stimuli/Morph22.png,Stimuli/BlurLevel5/BlurEditedMorph22,Stimuli/BlurLevel5/BlurEditedMorph22.png,Stimuli/BlurLevel5/NumberedMorphs/BlurEditedMorph22.png,Stimuli/BlurLevel5/OriginalBlur/BlurEditedMorph22.png,Stimuli/BlurMorphTrio/EditedMorph22.png,010055right.gif,Stimuli/normal_thumbnails/22right.gif,,,,,1,0,1,0,0,2,2,21,,,,,,,,,,,,,,,,,,,,,,,65,3,2,182,-2.4984770675477392,-0.08724874175625223,22,Experiment,,,,,,,,,35,142,-120,27,,,,,,,,,,,,,,,1035.6454086900012,1036.340104971001,1035.6454086900012,1036.340104971001,63.26530612244898,1583864840.0596101,1583864843.723603,3.6639928817749023,1583864837.206901,1583864840.044727,,,CG,001,22,male,undergrad,2020_Mar_10_1111,AdjustEyeTrack,3.1.5,59.975795687027855,
46,Stimuli/Morph46.JPG,Stimuli/Morph46.png,Stimuli/BlurLevel5/BlurEditedMorph46,Stimuli/BlurLevel5/BlurEditedMorph46.png,Stimuli/BlurLevel5/NumberedMorphs/BlurEditedMorph46.png,Stimuli/BlurLevel5/OriginalBlur/BlurEditedMorph46.png,Stimuli/BlurMorphTrio/EditedMorph46.png,010128right.gif,Stimuli/normal_thumbnails/46right.gif,,,,,1,0,1,0,0,3,3,45,,,,,,,,,,,,,,,,,,,,,,,56,4,2,20,2.3492315519647713,0.8550503583141718,46,Experiment,,,,,,,,,119,67,-21,-21,,,,,,,,,,,,,,,1042.812785940001,1043.5259131429993,1042.812785940001,1043.5259131429993,71.42857142857143,1583864847.222657,1583864851.339901,4.117244005203247,1583864844.257374,1583864847.199479,,,CG,001,22,male,undergrad,2020_Mar_10_1111,AdjustEyeTrack,3.1.5,59.975795687027855,
59,Stimuli/Morph59.JPG,Stimuli/Morph59.png,Stimuli/BlurLevel5/BlurEditedMorph59,Stimuli/BlurLevel5/BlurEditedMorph59.png,Stimuli/BlurLevel5/NumberedMorphs/BlurEditedMorph59.png,Stimuli/BlurLevel5/OriginalBlur/BlurEditedMorph59.png,Stimuli/BlurMorphTrio/EditedMorph59.png,010160right.gif,Stimuli/normal_thumbnails/59right.gif,,,,,1,0,1,0,0,4,4,58,,,,,,,,,,,,,,,,,,,,,,,31,5,2,67,0.9768278212231842,2.3012621336311008,59,Experiment,,,,,,,,,4,70,-11,-11,,,,,,,,,,,,,,,1050.3646598419982,1051.0546125559995,1050.3646598419982,1051.0546125559995,85.03401360544218,1583864854.772827,1583864858.1897972,3.4169702529907227,1583864851.874329,1583864854.757759,,,CG,001,22,male,undergrad,2020_Mar_10_1111,AdjustEyeTrack,3.1.5,59.975795687027855,
89,Stimuli/Morph89.JPG,Stimuli/Morph89.png,Stimuli/BlurLevel5/BlurEditedMorph89,Stimuli/BlurLevel5/BlurEditedMorph89.png,Stimuli/BlurLevel5/NumberedMorphs/BlurEditedMorph89.png,Stimuli/BlurLevel5/OriginalBlur/BlurEditedMorph89.png,Stimuli/BlurMorphTrio/EditedMorph89.png,020273right.gif,Stimuli/normal_thumbnails/89right.gif,,,,,1,0,1,0,0,5,5,88,,,,,,,,,,,,,,,,,,,,,,,30,6,2,36,2.0225424859373686,1.469463130731183,89,Experiment,,,,,,,,,83,107,-18,-18,,,,,,,,,,,,,,,1057.1437280850005,1057.8220540939983,1057.1437280850005,1057.8220540939983,75.51020408163265,1583864861.523341,1583864865.2233112,3.699970245361328,1583864858.723972,1583864861.507715,,,CG,001,22,male,undergrad,2020_Mar_10_1111,AdjustEyeTrack,3.1.5,59.975795687027855,
39,Stimuli/Morph39.JPG,Stimuli/Morph39.png,Stimuli/BlurLevel5/BlurEditedMorph39,Stimuli/BlurLevel5/BlurEditedMorph39.png,Stimuli/BlurLevel5/NumberedMorphs/BlurEditedMorph39.png,Stimuli/BlurLevel5/OriginalBlur/BlurEditedMorph39.png,Stimuli/BlurMorphTrio/EditedMorph39.png,010109right.gif,Stimuli/normal_thumbnails/39right.gif,,,,,1,0,1,0,0,6,6,38,,,,,,,,,,,,,,,,,,,,,,,90,7,2,337,2.3012621336311008,-0.9768278212231847,39,Experiment,,,,,,,,,127,35,4,4,,,,,,,,,,,,,,,1064.0940117309983,1064.7720267010009,1064.0940117309983,1064.7720267010009,94.5578231292517,1583864868.4571881,1583864872.6067462,4.149558067321777,1583864865.756942,1583864868.440767,,,CG,001,22,male,undergrad,2020_Mar_10_1111,AdjustEyeTrack,3.1.5,59.975795687027855,
101,Stimuli/Morph101.JPG,Stimuli/Morph101.png,Stimuli/BlurLevel5/BlurEditedMorph101,Stimuli/BlurLevel5/BlurEditedMorph101.png,Stimuli/BlurLevel5/NumberedMorphs/BlurEditedMorph101.png,Stimuli/BlurLevel5/OriginalBlur/BlurEditedMorph101.png,Stimuli/BlurMorphTrio/EditedMorph101.png,None,None,,,,,1,0,1,0,0,7,7,100,,,,,,,,,,,,,,,,,,,,,,,39,8,2,45,1.7677669529663689,1.7677669529663687,101,Experiment,,,,,,,,,58,109,-8,-8,,,,,,,,,,,,,,,1071.6114208619983,1072.315340434001,1071.6114208619983,1072.315340434001,89.1156462585034,1583864876.0433002,1583864880.3061419,4.262841701507568,1583864873.139986,1583864876.0272589,,,CG,001,22,male,undergrad,2020_Mar_10_1111,AdjustEyeTrack,3.1.5,59.975795687027855,
42,Stimuli/Morph42.JPG,Stimuli/Morph42.png,Stimuli/BlurLevel5/BlurEditedMorph42,Stimuli/BlurLevel5/BlurEditedMorph42.png,Stimuli/BlurLevel5/NumberedMorphs/BlurEditedMorph42.png,Stimuli/BlurLevel5/OriginalBlur/BlurEditedMorph42.png,Stimuli/BlurMorphTrio/EditedMorph42.png,010121right.gif,Stimuli/normal_thumbnails/42right.gif,,,,,1,0,1,0,0,8,8,41,,,,,,,,,,,,,,,,,,,,,,,97,9,2,268,-0.08724874175625189,-2.4984770675477392,42,Experiment,,,,,,,,,7,43,-1,-1,,,,,,,,,,,,,,,1079.3857226869986,1080.094139566001,1079.3857226869986,1080.094139566001,98.63945578231292,1583864883.793493,1583864888.0229409,4.229447841644287,1583864880.840281,1583864883.776234,,,CG,001,22,male,undergrad,2020_Mar_10_1111,AdjustEyeTrack,3.1.5,59.975795687027855,
143,Stimuli/Morph143.JPG,Stimuli/Morph143.png,Stimuli/BlurLevel5/BlurEditedMorph143,Stimuli/BlurLevel5/BlurEditedMorph143.png,Stimuli/BlurLevel5/NumberedMorphs/BlurEditedMorph143.png,Stimuli/BlurLevel5/OriginalBlur/BlurEditedMorph143.png,Stimuli/BlurMorphTrio/EditedMorph143.png,None,None,,,,,1,0,1,0,0,9,9,142,,,,,,,,,,,,,,,,,,,,,,,77,10,2,230,-1.606969024216349,-1.9151111077974448,143,Experiment,,,,,,,,,33,5,138,-9,,,,,,,,,,,,,,,1086.9272227260008,1087.6142081840007,1086.9272227260008,1087.6142081840007,87.75510204081633,1583864891.25558,1583864896.9066062,5.651026248931885,1583864888.556333,1583864891.239481,,,CG,001,22,male,undergrad,2020_Mar_10_1111,AdjustEyeTrack,3.1.5,59.975795687027855,
103,Stimuli/Morph103.JPG,Stimuli/Morph103.png,Stimuli/BlurLevel5/BlurEditedMorph103,Stimuli/BlurLevel5/BlurEditedMorph103.png,Stimuli/BlurLevel5/NumberedMorphs/BlurEditedMorph103.png,Stimuli/BlurLevel5/OriginalBlur/BlurEditedMorph103.png,Stimuli/BlurMorphTrio/EditedMorph103.png,None,None,,,,,1,0,1,0,0,10,10,102,,,,,,,,,,,,,,,,,,,,,,,33,11,2,31,2.142918251755281,1.2875951872751354,103,Experiment,,,,,,,,,131,96,7,7,,,,,,,,,,,,,,,1095.8554863749996,1096.567337700999,1095.8554863749996,1096.567337700999,90.47619047619048,1583864900.2763321,1583864904.189556,3.9132237434387207,1583864897.44131,1583864900.261429,,,CG,001,22,male,undergrad,2020_Mar_10_1111,AdjustEyeTrack,3.1.5,59.975795687027855,
84,Stimuli/Morph84.JPG,Stimuli/Morph84.png,Stimuli/BlurLevel5/BlurEditedMorph84,Stimuli/BlurLevel5/BlurEditedMorph84.png,Stimuli/BlurLevel5/NumberedMorphs/BlurEditedMorph84.png,Stimuli/BlurLevel5/OriginalBlur/BlurEditedMorph84.png,Stimuli/BlurMorphTrio/EditedMorph84.png,020261right.gif,Stimuli/normal_thumbnails/84right.gif,,,,,1,0,1,0,0,11,11,83,,,,,,,,,,,,,,,,,,,,,,,94,12,2,68,0.9365164835397799,2.3179596364169686,84,Experiment,,,,,,,,,16,80,4,4,,,,,,,,,,,,,,,1103.4239108209986,1104.1400318359993,1103.4239108209986,1104.1400318359993,94.5578231292517,1583864907.8723001,1583864911.38934,3.5170397758483887,1583864904.723535,1583864907.8560178,,,CG,001,22,male,undergrad,2020_Mar_10_1111,AdjustEyeTrack,3.1.5,59.975795687027855,
63,Stimuli/Morph63.JPG,Stimuli/Morph63.png,Stimuli/BlurLevel5/BlurEditedMorph63,Stimuli/BlurLevel5/BlurEditedMorph63.png,Stimuli/BlurLevel5/NumberedMorphs/BlurEditedMorph63.png,Stimuli/BlurLevel5/OriginalBlur/BlurEditedMorph63.png,Stimuli/BlurMorphTrio/EditedMorph63.png,020206right.gif,Stimuli/normal_thumbnails/63right.gif,,,,,1,0,1,0,0,12,12,62,,,,,,,,,,,,,,,,,,,,,,,3,13,2,246,-1.0168416076895002,-2.2838636441065026,63,Experiment,,,,,,,,,116,64,-1,-1,,,,,,,,,,,,,,,1110.4772476500002,1111.1539298159987,1110.4772476500002,1111.1539298159987,98.63945578231292,1583864914.872406,1583864926.1894028,11.316996812820435,1583864911.922845,1583864914.856679,,,CG,001,22,male,undergrad,2020_Mar_10_1111,AdjustEyeTrack,3.1.5,59.975795687027855,
34,Stimuli/Morph34.JPG,Stimuli/Morph34.png,Stimuli/BlurLevel5/BlurEditedMorph34,Stimuli/BlurLevel5/BlurEditedMorph34.png,Stimuli/BlurLevel5/NumberedMorphs/BlurEditedMorph34.png,Stimuli/BlurLevel5/OriginalBlur/BlurEditedMorph34.png,Stimuli/BlurMorphTrio/EditedMorph34.png,010090right.gif,Stimuli/normal_thumbnails/34right.gif,,,,,1,0,1,0,0,13,13,33,,,,,,,,,,,,,,,,,,,,,,,98,14,2,256,-0.6048047389991695,-2.425739315689991,34,Experiment,,,,,,,,,121,30,4,4,,,,,,,,,,,,,,,1125.231676247,1125.9406422930006,1125.231676247,1125.9406422930006,94.5578231292517,1583864929.6722538,1583864933.2063,3.534046173095703,1583864926.723179,1583864929.648725,,,CG,001,22,male,undergrad,2020_Mar_10_1111,AdjustEyeTrack,3.1.5,59.975795687027855,
8,Stimuli/Morph8.JPG,Stimuli/Morph8.png,Stimuli/BlurLevel5/BlurEditedMorph8,Stimuli/BlurLevel5/BlurEditedMorph8.png,Stimuli/BlurLevel5/NumberedMorphs/BlurEditedMorph8.png,Stimuli/BlurLevel5/OriginalBlur/BlurEditedMorph8.png,Stimuli/BlurMorphTrio/EditedMorph8.png,010014right.gif,Stimuli/normal_thumbnails/8right.gif,,,,,1,0,1,0,0,14,14,7,,,,,,,,,,,,,,,,,,,,,,,15,15,2,56,1.3979822586768673,2.072593931387604,8,Experiment,,,,,,,,,33,145,-137,10,,,,,,,,,,,,,,,1132.0904341560017,1132.7871763850017,1132.0904341560017,1132.7871763850017,86.39455782312925,1583864936.4886022,1583864941.656346,5.167743921279907,1583864933.740179,1583864936.468273,,,CG,001,22,male,undergrad,2020_Mar_10_1111,AdjustEyeTrack,3.1.5,59.975795687027855,
95,Stimuli/Morph95.JPG,Stimuli/Morph95.png,Stimuli/BlurLevel5/BlurEditedMorph95,Stimuli/BlurLevel5/BlurEditedMorph95.png,Stimuli/BlurLevel5/NumberedMorphs/BlurEditedMorph95.png,Stimuli/BlurLevel5/OriginalBlur/BlurEditedMorph95.png,Stimuli/BlurMorphTrio/EditedMorph95.png,020287right.gif,Stimuli/normal_thumbnails/95right.gif,,,,,1,0,1,0,0,15,15,94,,,,,,,,,,,,,,,,,,,,,,,15,16,2,111,-0.8959198738632507,2.3339510662430043,95,Experiment,,,,,,,,,135,93,2,2,,,,,,,,,,,,,,,1140.3400544879987,1141.027659831001,1140.3400544879987,1141.027659831001,97.27891156462584,1583864944.658325,1583864960.090455,15.432130098342896,1583864942.190003,1583864944.6438,,,CG,001,22,male,undergrad,2020_Mar_10_1111,AdjustEyeTrack,3.1.5,59.975795687027855,
58,Stimuli/Morph58.JPG,Stimuli/Morph58.png,Stimuli/BlurLevel5/BlurEditedMorph58,Stimuli/BlurLevel5/BlurEditedMorph58.png,Stimuli/BlurLevel5/NumberedMorphs/BlurEditedMorph58.png,Stimuli/BlurLevel5/OriginalBlur/BlurEditedMorph58.png,Stimuli/BlurMorphTrio/EditedMorph58.png,010159right.gif,Stimuli/normal_thumbnails/58right.gif,,,,,1,0,1,0,0,16,16,57,,,,,,,,,,,,,,,,,,,,,,,92,17,2,197,-2.3907618899075884,-0.730929261806842,58,Experiment,,,,,,,,,54,54,4,4,,,,,,,,,,,,,,,1159.4560846060012,1160.1787896649985,1159.4560846060012,1160.1787896649985,94.5578231292517,1583864963.904874,1583864966.138813,2.2339389324188232,1583864960.6403499,1583864963.888839,,,CG,001,22,male,undergrad,2020_Mar_10_1111,AdjustEyeTrack,3.1.5,59.975795687027855,
75,Stimuli/Morph75.JPG,Stimuli/Morph75.png,Stimuli/BlurLevel5/BlurEditedMorph75,Stimuli/BlurLevel5/BlurEditedMorph75.png,Stimuli/BlurLevel5/NumberedMorphs/BlurEditedMorph75.png,Stimuli/BlurLevel5/OriginalBlur/BlurEditedMorph75.png,Stimuli/BlurMorphTrio/EditedMorph75.png,020233right.gif,Stimuli/normal_thumbnails/75right.gif,,,,,1,0,1,0,0,17,17,74,,,,,,,,,,,,,,,,,,,,,,,21,18,2,279,0.3910861626005767,-2.4692208514878446,75,Experiment,,,,,,,,,146,90,-15,-15,,,,,,,,,,,,,,,1165.0747265680002,1165.7696206190012,1165.0747265680002,1165.7696206190012,79.59183673469387,1583864969.488346,1583864979.6904068,10.20206069946289,1583864966.7226298,1583864969.467242,,,CG,001,22,male,undergrad,2020_Mar_10_1111,AdjustEyeTrack,3.1.5,59.975795687027855,
128,Stimuli/Morph128.JPG,Stimuli/Morph128.png,Stimuli/BlurLevel5/BlurEditedMorph128,Stimuli/BlurLevel5/BlurEditedMorph128.png,Stimuli/BlurLevel5/NumberedMorphs/BlurEditedMorph128.png,Stimuli/BlurLevel5/OriginalBlur/BlurEditedMorph128.png,Stimuli/BlurMorphTrio/EditedMorph128.png,None,None,,,,,1,0,1,0,0,18,18,127,,,,,,,,,,,,,,,,,,,,,,,69,19,2,336,2.2838636441065026,-1.0168416076895004,128,Experiment,,,,,,,,,48,87,41,41,,,,,,,,,,,,,,,1178.8389383870017,1179.5236610409993,1178.8389383870017,1179.5236610409993,44.21768707482994,1583864983.1882958,1583864988.888454,5.70015811920166,1583864980.22282,1583864983.163293,,,CG,001,22,male,undergrad,2020_Mar_10_1111,AdjustEyeTrack,3.1.5,59.975795687027855,
87,Stimuli/Morph87.JPG,Stimuli/Morph87.png,Stimuli/BlurLevel5/BlurEditedMorph87,Stimuli/BlurLevel5/BlurEditedMorph87.png,Stimuli/BlurLevel5/NumberedMorphs/BlurEditedMorph87.png,Stimuli/BlurLevel5/OriginalBlur/BlurEditedMorph87.png,Stimuli/BlurMorphTrio/EditedMorph87.png,020270right.gif,Stimuli/normal_thumbnails/87right.gif,,,,,1,0,1,0,0,19,19,86,,,,,,,,,,,,,,,,,,,,,,,25,20,2,91,-0.043631016093208685,2.499619237890978,87,Experiment,,,,,,,,,57,85,2,2,,,,,,,,,,,,,,,1187.7343382040017,1188.4192402400004,1187.7343382040017,1188.4192402400004,97.27891156462584,1583864992.1379,1583864994.822669,2.6847689151763916,1583864989.422037,1583864992.1225832,,,CG,001,22,male,undergrad,2020_Mar_10_1111,AdjustEyeTrack,3.1.5,59.975795687027855,
110,Stimuli/Morph110.JPG,Stimuli/Morph110.png,Stimuli/BlurLevel5/BlurEditedMorph110,Stimuli/BlurLevel5/BlurEditedMorph110.png,Stimuli/BlurLevel5/NumberedMorphs/BlurEditedMorph110.png,Stimuli/BlurLevel5/OriginalBlur/BlurEditedMorph110.png,Stimuli/BlurMorphTrio/EditedMorph110.png,None,None,,,,,1,0,1,0,0,20,20,109,,,,,,,,,,,,,,,,,,,,,,,51,21,2,214,-2.0725939313876047,-1.3979822586768667,110,Experiment,,,,,,,,,14,122,-12,-12,,,,,,,,,,,,,,,1193.9415855100015,1194.6449835579988,1193.9415855100015,1194.6449835579988,83.6734693877551,1583864999.0891142,1583865004.406086,5.316971778869629,1583864995.372292,1583864999.0651789,,,CG,001,22,male,undergrad,2020_Mar_10_1111,AdjustEyeTrack,3.1.5,59.975795687027855,
60,Stimuli/Morph60.JPG,Stimuli/Morph60.png,Stimuli/BlurLevel5/BlurEditedMorph60,Stimuli/BlurLevel5/BlurEditedMorph60.png,Stimuli/BlurLevel5/NumberedMorphs/BlurEditedMorph60.png,Stimuli/BlurLevel5/OriginalBlur/BlurEditedMorph60.png,Stimuli/BlurMorphTrio/EditedMorph60.png,020200right.gif,Stimuli/normal_thumbnails/60right.gif,,,,,1,0,1,0,0,21,21,59,,,,,,,,,,,,,,,,,,,,,,,86,22,2,78,0.5197792270443986,2.445369001834514,60,Experiment,,,,,,,,,119,60,0,0,,,,,,,,,,,,,,,1203.3727952789995,1204.0733514860003,1203.3727952789995,1204.0733514860003,100.0,1583865007.804554,1583865013.341519,5.5369651317596436,1583865004.938273,1583865007.778545,,,CG,001,22,male,undergrad,2020_Mar_10_1111,AdjustEyeTrack,3.1.5,59.975795687027855,
30,Stimuli/Morph30.JPG,Stimuli/Morph30.png,Stimuli/BlurLevel5/BlurEditedMorph30,Stimuli/BlurLevel5/BlurEditedMorph30.png,Stimuli/BlurLevel5/NumberedMorphs/BlurEditedMorph30.png,Stimuli/BlurLevel5/OriginalBlur/BlurEditedMorph30.png,Stimuli/BlurMorphTrio/EditedMorph30.png,010076right.gif,Stimuli/normal_thumbnails/30right.gif,,,,,1,0,1,0,0,22,22,29,,,,,,,,,,,,,,,,,,,,,,,15,23,2,188,-2.475670171853926,-0.3479327524001638,30,Experiment,,,,,,,,,88,4,26,26,,,,,,,,,,,,,,,1212.2251788899994,1212.9032547200004,1212.2251788899994,1212.9032547200004,64.62585034013605,1583865016.622338,1583865027.306509,10.684170961380005,1583865013.8725362,1583865016.599446,,,CG,001,22,male,undergrad,2020_Mar_10_1111,AdjustEyeTrack,3.1.5,59.975795687027855,
88,Stimuli/Morph88.JPG,Stimuli/Morph88.png,Stimuli/BlurLevel5/BlurEditedMorph88,Stimuli/BlurLevel5/BlurEditedMorph88.png,Stimuli/BlurLevel5/NumberedMorphs/BlurEditedMorph88.png,Stimuli/BlurLevel5/OriginalBlur/BlurEditedMorph88.png,Stimuli/BlurMorphTrio/EditedMorph88.png,020271right.gif,Stimuli/normal_thumbnails/88right.gif,,,,,1,0,1,0,0,23,23,87,,,,,,,,,,,,,,,,,,,,,,,52,24,2,342,2.3776412907378837,-0.7725424859373691,88,Experiment,,,,,,,,,61,92,-4,-4,,,,,,,,,,,,,,,1226.2343240459995,1226.9297737710003,1226.2343240459995,1226.9297737710003,94.5578231292517,1583865030.6712499,1583865033.289839,2.618589162826538,1583865027.855264,1583865030.6550772,,,CG,001,22,male,undergrad,2020_Mar_10_1111,AdjustEyeTrack,3.1.5,59.975795687027855,
97,Stimuli/Morph97.JPG,Stimuli/Morph97.png,Stimuli/BlurLevel5/BlurEditedMorph97,Stimuli/BlurLevel5/BlurEditedMorph97.png,Stimuli/BlurLevel5/NumberedMorphs/BlurEditedMorph97.png,Stimuli/BlurLevel5/OriginalBlur/BlurEditedMorph97.png,Stimuli/BlurMorphTrio/EditedMorph97.png,020294right.gif,Stimuli/normal_thumbnails/97right.gif,,,,,1,0,1,0,0,24,24,96,,,,,,,,,,,,,,,,,,,,,,,85,25,2,102,-0.5197792270443984,2.4453690018345142,97,Experiment,,,,,,,,,88,83,14,14,,,,,,,,,,,,,,,1232.1913630220006,1232.879654321001,1232.1913630220006,1232.879654321001,80.95238095238095,1583865036.591945,1583865041.823189,5.231244087219238,1583865033.8384461,1583865036.5764139,,,CG,001,22,male,undergrad,2020_Mar_10_1111,AdjustEyeTrack,3.1.5,59.975795687027855,
33,Stimuli/Morph33.JPG,Stimuli/Morph33.png,Stimuli/BlurLevel5/BlurEditedMorph33,Stimuli/BlurLevel5/BlurEditedMorph33.png,Stimuli/BlurLevel5/NumberedMorphs/BlurEditedMorph33.png,Stimuli/BlurLevel5/OriginalBlur/BlurEditedMorph33.png,Stimuli/BlurMorphTrio/EditedMorph33.png,010089right.gif,Stimuli/normal_thumbnails/33right.gif,,,,,1,0,1,0,0,25,25,32,,,,,,,,,,,,,,,,,,,,,,,55,26,2,44,1.798349500846628,1.7366459261474931,33,Experiment,,,,,,,,,22,34,-1,-1,,,,,,,,,,,,,,,1240.736298762,1241.432752536999,1240.736298762,1241.432752536999,98.63945578231292,1583865045.1572852,1583865051.9223099,6.765024662017822,1583865042.388672,1583865045.141601,,,CG,001,22,male,undergrad,2020_Mar_10_1111,AdjustEyeTrack,3.1.5,59.975795687027855,
41,Stimuli/Morph41.JPG,Stimuli/Morph41.png,Stimuli/BlurLevel5/BlurEditedMorph41,Stimuli/BlurLevel5/BlurEditedMorph41.png,Stimuli/BlurLevel5/NumberedMorphs/BlurEditedMorph41.png,Stimuli/BlurLevel5/OriginalBlur/BlurEditedMorph41.png,Stimuli/BlurMorphTrio/EditedMorph41.png,010112right.gif,Stimuli/normal_thumbnails/41right.gif,,,,,1,0,1,0,0,26,26,40,,,,,,,,,,,,,,,,,,,,,,,94,27,2,145,-2.0478801107224798,1.433941090877615,41,Experiment,,,,,,,,,88,37,4,4,,,,,,,,,,,,,,,1251.0981409900014,1251.8030316619988,1251.0981409900014,1251.8030316619988,94.5578231292517,1583865055.52082,1583865059.306134,3.7853140830993652,1583865052.471642,1583865055.504936,,,CG,001,22,male,undergrad,2020_Mar_10_1111,AdjustEyeTrack,3.1.5,59.975795687027855,
16,Stimuli/Morph16.JPG,Stimuli/Morph16.png,Stimuli/BlurLevel5/BlurEditedMorph16,Stimuli/BlurLevel5/BlurEditedMorph16.png,Stimuli/BlurLevel5/NumberedMorphs/BlurEditedMorph16.png,Stimuli/BlurLevel5/OriginalBlur/BlurEditedMorph16.png,Stimuli/BlurMorphTrio/EditedMorph16.png,010034right.gif,Stimuli/normal_thumbnails/16right.gif,,,,,1,0,1,0,0,27,27,15,,,,,,,,,,,,,,,,,,,,,,,78,28,2,252,-0.7725424859373689,-2.3776412907378837,16,Experiment,,,,,,,,,96,9,7,7,,,,,,,,,,,,,,,1258.1237865410003,1258.830162852999,1258.1237865410003,1258.830162852999,90.47619047619048,1583865062.620647,1583865067.05776,4.437113046646118,1583865059.854997,1583865062.5997288,,,CG,001,22,male,undergrad,2020_Mar_10_1111,AdjustEyeTrack,3.1.5,59.975795687027855,
20,Stimuli/Morph20.JPG,Stimuli/Morph20.png,Stimuli/BlurLevel5/BlurEditedMorph20,Stimuli/BlurLevel5/BlurEditedMorph20.png,Stimuli/BlurLevel5/NumberedMorphs/BlurEditedMorph20.png,Stimuli/BlurLevel5/OriginalBlur/BlurEditedMorph20.png,Stimuli/BlurMorphTrio/EditedMorph20.png,010046right.gif,Stimuli/normal_thumbnails/20right.gif,,,,,1,0,1,0,0,28,28,19,,,,,,,,,,,,,,,,,,,,,,,98,29,2,72,0.7725424859373686,2.3776412907378837,20,Experiment,,,,,,,,,92,19,1,1,,,,,,,,,,,,,,,1266.0950202519998,1266.7936779589982,1266.0950202519998,1266.7936779589982,98.63945578231292,1583865070.4710011,1583865074.137077,3.6660759449005127,1583865067.604486,1583865070.448363,,,CG,001,22,male,undergrad,2020_Mar_10_1111,AdjustEyeTrack,3.1.5,59.975795687027855,
130,Stimuli/Morph130.JPG,Stimuli/Morph130.png,Stimuli/BlurLevel5/BlurEditedMorph130,Stimuli/BlurLevel5/BlurEditedMorph130.png,Stimuli/BlurLevel5/NumberedMorphs/BlurEditedMorph130.png,Stimuli/BlurLevel5/OriginalBlur/BlurEditedMorph130.png,Stimuli/BlurMorphTrio/EditedMorph130.png,None,None,,,,,1,0,1,0,0,29,29,129,,,,,,,,,,,,,,,,,,,,,,,56,30,2,127,-1.504537557880121,1.996588775118232,130,Experiment,,,,,,,,,104,4,126,-21,,,,,,,,,,,,,,,1273.2444850840002,1273.9554743849985,1273.2444850840002,1273.9554743849985,71.42857142857143,1583865077.72175,1583865081.722978,4.001228094100952,1583865074.6708229,1583865077.6962519,,,CG,001,22,male,undergrad,2020_Mar_10_1111,AdjustEyeTrack,3.1.5,59.975795687027855,
91,Stimuli/Morph91.JPG,Stimuli/Morph91.png,Stimuli/BlurLevel5/BlurEditedMorph91,Stimuli/BlurLevel5/BlurEditedMorph91.png,Stimuli/BlurLevel5/NumberedMorphs/BlurEditedMorph91.png,Stimuli/BlurLevel5/OriginalBlur/BlurEditedMorph91.png,Stimuli/BlurMorphTrio/EditedMorph91.png,020276right.gif,Stimuli/normal_thumbnails/91right.gif,,,,,1,0,1,0,0,30,30,90,,,,,,,,,,,,,,,,,,,,,,,47,31,2,256,-0.6048047389991695,-2.425739315689991,91,Experiment,,,,,,,,,93,111,-20,-20,,,,,,,,,,,,,,,1281.0071430569988,1281.7271420690013,1281.0071430569988,1281.7271420690013,72.7891156462585,1583865085.503225,1583865091.4405818,5.93735671043396,1583865082.271053,1583865085.482383,,,CG,001,22,male,undergrad,2020_Mar_10_1111,AdjustEyeTrack,3.1.5,59.975795687027855,
12,Stimuli/Morph12.JPG,Stimuli/Morph12.png,Stimuli/BlurLevel5/BlurEditedMorph12,Stimuli/BlurLevel5/BlurEditedMorph12.png,Stimuli/BlurLevel5/NumberedMorphs/BlurEditedMorph12.png,Stimuli/BlurLevel5/OriginalBlur/BlurEditedMorph12.png,Stimuli/BlurMorphTrio/EditedMorph12.png,010026right.gif,Stimuli/normal_thumbnails/12right.gif,,,,,1,0,1,0,0,31,31,11,,,,,,,,,,,,,,,,,,,,,,,33,32,2,261,-0.39108616260057766,-2.469220851487844,12,Experiment,,,,,,,,,47,13,-1,-1,,,,,,,,,,,,,,,1290.4382542310013,1291.1674546130016,1290.4382542310013,1291.1674546130016,98.63945578231292,1583865094.8534222,1583865099.1915011,4.33807897567749,1583865091.971214,1583865094.8281212,,,CG,001,22,male,undergrad,2020_Mar_10_1111,AdjustEyeTrack,3.1.5,59.975795687027855,
125,Stimuli/Morph125.JPG,Stimuli/Morph125.png,Stimuli/BlurLevel5/BlurEditedMorph125,Stimuli/BlurLevel5/BlurEditedMorph125.png,Stimuli/BlurLevel5/NumberedMorphs/BlurEditedMorph125.png,Stimuli/BlurLevel5/OriginalBlur/BlurEditedMorph125.png,Stimuli/BlurMorphTrio/EditedMorph125.png,None,None,,,,,1,0,1,0,0,32,32,124,,,,,,,,,,,,,,,,,,,,,,,28,33,2,8,2.475670171853926,0.3479327524001636,125,Experiment,,,,,,,,,77,126,-1,-1,,,,,,,,,,,,,,,1298.3260451569986,1299.0347797350005,1298.3260451569986,1299.0347797350005,98.63945578231292,1583865102.887187,1583865107.1905332,4.303346157073975,1583865099.737532,1583865102.866951,,,CG,001,22,male,undergrad,2020_Mar_10_1111,AdjustEyeTrack,3.1.5,59.975795687027855,
62,Stimuli/Morph62.JPG,Stimuli/Morph62.png,Stimuli/BlurLevel5/BlurEditedMorph62,Stimuli/BlurLevel5/BlurEditedMorph62.png,Stimuli/BlurLevel5/NumberedMorphs/BlurEditedMorph62.png,Stimuli/BlurLevel5/OriginalBlur/BlurEditedMorph62.png,Stimuli/BlurMorphTrio/EditedMorph62.png,020205right.gif,Stimuli/normal_thumbnails/62right.gif,,,,,1,0,1,0,0,33,33,61,,,,,,,,,,,,,,,,,,,,,,,94,34,2,283,0.5623776358596623,-2.435925161963088,62,Experiment,,,,,,,,,71,64,-2,-2,,,,,,,,,,,,,,,1306.3699735949995,1307.0928188209982,1306.3699735949995,1307.0928188209982,97.27891156462584,1583865110.8534799,1583865117.890034,7.0365540981292725,1583865107.737717,1583865110.7943711,,,CG,001,22,male,undergrad,2020_Mar_10_1111,AdjustEyeTrack,3.1.5,59.975795687027855,
146,Stimuli/Morph146.JPG,Stimuli/Morph146.png,Stimuli/BlurLevel5/BlurEditedMorph146,Stimuli/BlurLevel5/BlurEditedMorph146.png,Stimuli/BlurLevel5/NumberedMorphs/BlurEditedMorph146.png,Stimuli/BlurLevel5/OriginalBlur/BlurEditedMorph146.png,Stimuli/BlurMorphTrio/EditedMorph146.png,None,None,,,,,1,0,1,0,0,34,34,145,,,,,,,,,,,,,,,,,,,,,,,83,35,2,164,-2.4031542398457972,0.689093389542498,146,Experiment,,,,,,,,,53,143,3,3,,,,,,,,,,,,,,,1316.971803466,1317.667881821999,1316.971803466,1317.667881821999,95.91836734693877,1583865121.47021,1583865125.241289,3.7710788249969482,1583865118.437738,1583865121.4541261,,,CG,001,22,male,undergrad,2020_Mar_10_1111,AdjustEyeTrack,3.1.5,59.975795687027855,
32,Stimuli/Morph32.JPG,Stimuli/Morph32.png,Stimuli/BlurLevel5/BlurEditedMorph32,Stimuli/BlurLevel5/BlurEditedMorph32.png,Stimuli/BlurLevel5/NumberedMorphs/BlurEditedMorph32.png,Stimuli/BlurLevel5/OriginalBlur/BlurEditedMorph32.png,Stimuli/BlurMorphTrio/EditedMorph32.png,010080right.gif,Stimuli/normal_thumbnails/32right.gif,,,,,1,0,1,0,0,35,35,31,,,,,,,,,,,,,,,,,,,,,,,20,36,2,312,1.6728265158971445,-1.8578620636934868,32,Experiment,,,,,,,,,107,32,0,0,,,,,,,,,,,,,,,1324.181189750001,1324.8842686390017,1324.181189750001,1324.8842686390017,100.0,1583865128.669972,1583865132.639868,3.969896078109741,1583865125.789006,1583865128.646189,,,CG,001,22,male,undergrad,2020_Mar_10_1111,AdjustEyeTrack,3.1.5,59.975795687027855,
93,Stimuli/Morph93.JPG,Stimuli/Morph93.png,Stimuli/BlurLevel5/BlurEditedMorph93,Stimuli/BlurLevel5/BlurEditedMorph93.png,Stimuli/BlurLevel5/NumberedMorphs/BlurEditedMorph93.png,Stimuli/BlurLevel5/OriginalBlur/BlurEditedMorph93.png,Stimuli/BlurMorphTrio/EditedMorph93.png,020280right.gif,Stimuli/normal_thumbnails/93right.gif,,,,,1,0,1,0,0,36,36,92,,,,,,,,,,,,,,,,,,,,,,,100,37,2,47,1.7049959001562462,1.828384254047926,93,Experiment,,,,,,,,,109,95,-2,-2,,,,,,,,,,,,,,,1331.560043251,1332.2529344030008,1331.560043251,1332.2529344030008,97.27891156462584,1583865136.021617,1583865140.3403049,4.318687915802002,1583865133.186835,1583865136.007346,,,CG,001,22,male,undergrad,2020_Mar_10_1111,AdjustEyeTrack,3.1.5,59.975795687027855,
26,Stimuli/Morph26.JPG,Stimuli/Morph26.png,Stimuli/BlurLevel5/BlurEditedMorph26,Stimuli/BlurLevel5/BlurEditedMorph26.png,Stimuli/BlurLevel5/NumberedMorphs/BlurEditedMorph26.png,Stimuli/BlurLevel5/OriginalBlur/BlurEditedMorph26.png,Stimuli/BlurMorphTrio/EditedMorph26.png,010070right.gif,Stimuli/normal_thumbnails/26right.gif,,,,,1,0,1,0,0,37,37,25,,,,,,,,,,,,,,,,,,,,,,,34,38,2,314,1.7366459261474931,-1.798349500846628,26,Experiment,,,,,,,,,42,39,-13,-13,,,,,,,,,,,,,,,1339.470122988001,1340.1872647929995,1339.470122988001,1340.1872647929995,82.31292517006803,1583865143.9527261,1583865147.0892348,3.1365087032318115,1583865140.887326,1583865143.937365,,,CG,001,22,male,undergrad,2020_Mar_10_1111,AdjustEyeTrack,3.1.5,59.975795687027855,
116,Stimuli/Morph116.JPG,Stimuli/Morph116.png,Stimuli/BlurLevel5/BlurEditedMorph116,Stimuli/BlurLevel5/BlurEditedMorph116.png,Stimuli/BlurLevel5/NumberedMorphs/BlurEditedMorph116.png,Stimuli/BlurLevel5/OriginalBlur/BlurEditedMorph116.png,Stimuli/BlurMorphTrio/EditedMorph116.png,None,None,,,,,1,0,1,0,0,38,38,115,,,,,,,,,,,,,,,,,,,,,,,71,39,2,43,1.828384254047926,1.7049959001562462,116,Experiment,,,,,,,,,53,97,19,19,,,,,,,,,,,,,,,1345.911402646001,1346.6088907150006,1345.911402646001,1346.6088907150006,74.14965986394557,1583865150.371666,1583865154.470329,4.098663091659546,1583865147.637949,1583865150.314425,,,CG,001,22,male,undergrad,2020_Mar_10_1111,AdjustEyeTrack,3.1.5,59.975795687027855,
106,Stimuli/Morph106.JPG,Stimuli/Morph106.png,Stimuli/BlurLevel5/BlurEditedMorph106,Stimuli/BlurLevel5/BlurEditedMorph106.png,Stimuli/BlurLevel5/NumberedMorphs/BlurEditedMorph106.png,Stimuli/BlurLevel5/OriginalBlur/BlurEditedMorph106.png,Stimuli/BlurMorphTrio/EditedMorph106.png,None,None,,,,,1,0,1,0,0,39,39,105,,,,,,,,,,,,,,,,,,,,,,,67,40,2,113,-0.9768278212231846,2.3012621336311008,106,Experiment,,,,,,,,,40,103,3,3,,,,,,,,,,,,,,,1353.4955386270012,1354.2003686940006,1353.4955386270012,1354.2003686940006,95.91836734693877,1583865157.902648,1583865163.074356,5.171708106994629,1583865155.0203872,1583865157.886358,,,CG,001,22,male,undergrad,2020_Mar_10_1111,AdjustEyeTrack,3.1.5,59.975795687027855,
