stimulusID,stimulus_JPG,stimulusPath,stimulusPath2,stimulusPath3,stimulusPath4,stimulusPath5,stimulusPath6,xRayOriginal,xRayPath,Training.thisRepN,Training.thisTrialN,Training.thisN,Training.thisIndex,Blocks.thisRepN,Blocks.thisTrialN,Blocks.thisN,Blocks.thisIndex,Trials.thisRepN,Trials.thisTrialN,Trials.thisN,Trials.thisIndex,text_2.started,text_2.stopped,image.started,image.stopped,image_2.started,image_2.stopped,image_3.started,image_3.stopped,image_4.started,image_4.stopped,image_6.started,image_6.stopped,image_7.started,image_7.stopped,image_8.started,image_8.stopped,image_9.started,image_9.stopped,image_10.started,image_10.stopped,image_12.started,image_12.stopped,xrayID,trialNumber,blockNumber,stimLocationDeg,stimXCoord,stimYCoord,stimulusID,blockType,trainingXray.started,trainingXray.stopped,trainingTumors.started,trainingTumors.stopped,trainingScore%,startTrainingRespTime,endTrainingRespTime,trainingRT,morphTrack,morphID,errorRaw,errorCorrected,startTrainingStimTime,endTrainingStimTime,key_resp_3.keys,key_resp_3.rt,text.started,text.stopped,text_3.started,text_3.stopped,text_4.started,text_4.stopped,key_resp_5.keys,key_resp_5.rt,key_resp_5.started,key_resp_5.stopped,xray1.started,xray1.stopped,tumors.started,tumors.stopped,trialCorrect%,startRespTime,endRespTime,RT,startStimTime,endStimTime,key_resp.keys,key_resp.rt,participant,session,age,gender,status,date,expName,psychopyVersion,frameRate
120,Stimuli/Morph120.JPG,Stimuli/Morph120.png,Stimuli/BlurLevel5/BlurEditedMorph120,Stimuli/BlurLevel5/BlurEditedMorph120.png,Stimuli/BlurLevel5/NumberedMorphs/BlurEditedMorph120.png,Stimuli/BlurLevel5/OriginalBlur/BlurEditedMorph120.png,Stimuli/BlurMorphTrio/EditedMorph120.png,None,None,0,0,0,119,,,,,,,,,57.82602729,None,57.82602729,None,57.82602729,None,57.82602729,None,57.82602729,None,57.82602729,None,57.82602729,None,57.82602729,None,57.82602729,None,57.82602729,None,57.82602729,None,86,-100,-100,306,1.469463131,-2.022542486,120,training,167.1483112,167.8494677,167.1483112,167.8494677,67.34693878,1583442359,1583442363,4.047019958,38,96,24,24,1583442356,1583442359,space,7.576227871,,,,,,,,,,,,,,,,,,,,,,,ES,1,20,female,undergrad,2020_Mar_05_1304,AdjustEyeTrack,3.1.5,59.98762743
59,Stimuli/Morph59.JPG,Stimuli/Morph59.png,Stimuli/BlurLevel5/BlurEditedMorph59,Stimuli/BlurLevel5/BlurEditedMorph59.png,Stimuli/BlurLevel5/NumberedMorphs/BlurEditedMorph59.png,Stimuli/BlurLevel5/OriginalBlur/BlurEditedMorph59.png,Stimuli/BlurMorphTrio/EditedMorph59.png,010160right.gif,Stimuli/normal_thumbnails/59right.gif,0,1,1,58,,,,,,,,,,,,,,,,,,,,,,,,,,,,,,,53,-100,-100,5,2.490486745,0.217889357,59,training,182.2508015,182.9562017,182.2508015,182.9562017,38.7755102,1583442374,1583442386,11.41627288,11,14,45,45,1583442371,1583442374,space,3.987732649,,,,,,,,,,,,,,,,,,,,,,,ES,1,20,female,undergrad,2020_Mar_05_1304,AdjustEyeTrack,3.1.5,59.98762743
123,Stimuli/Morph123.JPG,Stimuli/Morph123.png,Stimuli/BlurLevel5/BlurEditedMorph123,Stimuli/BlurLevel5/BlurEditedMorph123.png,Stimuli/BlurLevel5/NumberedMorphs/BlurEditedMorph123.png,Stimuli/BlurLevel5/OriginalBlur/BlurEditedMorph123.png,Stimuli/BlurMorphTrio/EditedMorph123.png,None,None,0,2,2,122,,,,,,,,,,,,,,,,,,,,,,,,,,,,,,,11,-100,-100,297,1.134976249,-2.22751631,123,training,201.5595386,202.2911665,201.5595386,202.2911665,15.6462585,1583442394,1583442398,4.233141184,20,38,85,-62,1583442390,1583442394,space,17.8553414,,,,,,,,,,,,,,,,,,,,,,,ES,1,20,female,undergrad,2020_Mar_05_1304,AdjustEyeTrack,3.1.5,59.98762743
116,Stimuli/Morph116.JPG,Stimuli/Morph116.png,Stimuli/BlurLevel5/BlurEditedMorph116,Stimuli/BlurLevel5/BlurEditedMorph116.png,Stimuli/BlurLevel5/NumberedMorphs/BlurEditedMorph116.png,Stimuli/BlurLevel5/OriginalBlur/BlurEditedMorph116.png,Stimuli/BlurMorphTrio/EditedMorph116.png,None,None,0,3,3,115,,,,,,,,,,,,,,,,,,,,,,,,,,,,,,,82,-100,-100,29,2.186549268,1.212024051,116,training,227.0604186,227.7612995,227.0604186,227.7612995,85.03401361,1583442419,1583442425,5.731050968,27,105,11,11,1583442416,1583442419,space,1.416880303,,,,,,,,,,,,,,,,,,,,,,,ES,1,20,female,undergrad,2020_Mar_05_1304,AdjustEyeTrack,3.1.5,59.98762743
110,Stimuli/Morph110.JPG,Stimuli/Morph110.png,Stimuli/BlurLevel5/BlurEditedMorph110,Stimuli/BlurLevel5/BlurEditedMorph110.png,Stimuli/BlurLevel5/NumberedMorphs/BlurEditedMorph110.png,Stimuli/BlurLevel5/OriginalBlur/BlurEditedMorph110.png,Stimuli/BlurMorphTrio/EditedMorph110.png,None,None,0,4,4,109,,,,,,,,,,,,,,,,,,,,,,,,,,,,,,,64,-100,-100,343,2.39076189,-0.730929262,110,training,237.5245794,238.205382,237.5245794,238.205382,94.55782313,1583442430,1583442435,5.467237949,49,106,4,4,1583442427,1583442430,space,1.243335611,,,,,,,,,,,,,,,,,,,,,,,ES,1,20,female,undergrad,2020_Mar_05_1304,AdjustEyeTrack,3.1.5,59.98762743
38,Stimuli/Morph38.JPG,Stimuli/Morph38.png,Stimuli/BlurLevel5/BlurEditedMorph38,Stimuli/BlurLevel5/BlurEditedMorph38.png,Stimuli/BlurLevel5/NumberedMorphs/BlurEditedMorph38.png,Stimuli/BlurLevel5/OriginalBlur/BlurEditedMorph38.png,Stimuli/BlurMorphTrio/EditedMorph38.png,010108right.gif,Stimuli/normal_thumbnails/38right.gif,0,5,5,37,,,,,,,,,,,,,,,,,,,,,,,,,,,,,,,54,-100,-100,287,0.730929262,-2.39076189,38,training,247.4945918,248.1958245,247.4945918,248.1958245,79.59183673,1583442440,1583442442,2.065850019,87,53,-15,-15,1583442437,1583442440,space,0.79916222,,,,,,,,,,,,,,,,,,,,,,,ES,1,20,female,undergrad,2020_Mar_05_1304,AdjustEyeTrack,3.1.5,59.98762743
9,Stimuli/Morph9.JPG,Stimuli/Morph9.png,Stimuli/BlurLevel5/BlurEditedMorph9,Stimuli/BlurLevel5/BlurEditedMorph9.png,Stimuli/BlurLevel5/NumberedMorphs/BlurEditedMorph9.png,Stimuli/BlurLevel5/OriginalBlur/BlurEditedMorph9.png,Stimuli/BlurMorphTrio/EditedMorph9.png,010015right.gif,Stimuli/normal_thumbnails/9right.gif,0,6,6,8,,,,,,,,,,,,,,,,,,,,,,,,,,,,,,,42,-100,-100,251,-0.813920386,-2.363796439,9,training,253.9356361,254.6632232,253.9356361,254.6632232,95.91836735,1583442446,1583442449,2.718664885,12,12,-3,-3,1583442443,1583442446,space,0.868531879,,,,,,,,,,,,,,,,,,,,,,,ES,1,20,female,undergrad,2020_Mar_05_1304,AdjustEyeTrack,3.1.5,59.98762743
36,Stimuli/Morph36.JPG,Stimuli/Morph36.png,Stimuli/BlurLevel5/BlurEditedMorph36,Stimuli/BlurLevel5/BlurEditedMorph36.png,Stimuli/BlurLevel5/NumberedMorphs/BlurEditedMorph36.png,Stimuli/BlurLevel5/OriginalBlur/BlurEditedMorph36.png,Stimuli/BlurMorphTrio/EditedMorph36.png,010095right.gif,Stimuli/normal_thumbnails/36right.gif,0,7,7,35,,,,,,,,,,,,,,,,,,,,,,,,,,,,,,,38,-100,-100,65,1.056545654,2.265769468,36,training,260.9768695,261.6759608,260.9768695,261.6759608,83.67346939,1583442453,1583442456,2.952560902,60,48,-12,-12,1583442450,1583442453,space,0.749393134,,,,,,,,,,,,,,,,,,,,,,,ES,1,20,female,undergrad,2020_Mar_05_1304,AdjustEyeTrack,3.1.5,59.98762743
67,Stimuli/Morph67.JPG,Stimuli/Morph67.png,Stimuli/BlurLevel5/BlurEditedMorph67,Stimuli/BlurLevel5/BlurEditedMorph67.png,Stimuli/BlurLevel5/NumberedMorphs/BlurEditedMorph67.png,Stimuli/BlurLevel5/OriginalBlur/BlurEditedMorph67.png,Stimuli/BlurMorphTrio/EditedMorph67.png,020217right.gif,Stimuli/normal_thumbnails/67right.gif,0,8,8,66,,,,,,,,,,,,,,,,,,,,,,,,,,,,,,,94,-100,-100,239,-1.287595187,-2.142918252,67,training,268.2818521,268.9886402,268.2818521,268.9886402,86.39455782,1583442460,1583442463,2.474787712,72,57,10,10,1583442457,1583442460,space,0.538533642,,,,,,,,,,,,,,,,,,,,,,,ES,1,20,female,undergrad,2020_Mar_05_1304,AdjustEyeTrack,3.1.5,59.98762743
146,Stimuli/Morph146.JPG,Stimuli/Morph146.png,Stimuli/BlurLevel5/BlurEditedMorph146,Stimuli/BlurLevel5/BlurEditedMorph146.png,Stimuli/BlurLevel5/NumberedMorphs/BlurEditedMorph146.png,Stimuli/BlurLevel5/OriginalBlur/BlurEditedMorph146.png,Stimuli/BlurMorphTrio/EditedMorph146.png,None,None,0,9,9,145,,,,,,,,,,,,,,,,,,,,,,,,,,,,,,,46,-100,-100,286,0.68909339,-2.40315424,146,training,274.5654299,275.2729929,274.5654299,275.2729929,87.75510204,1583442467,1583442470,3.134550095,32,137,9,9,1583442464,1583442467,space,0.415959819,,,,,,,,,,,,,,,,,,,,,,,ES,1,20,female,undergrad,2020_Mar_05_1304,AdjustEyeTrack,3.1.5,59.98762743
,,,,,,,,,,,,,,,,,,,,,,,,,,,,,,,,,,,,,,,,,,,,,-100,-100,,,,,training,,,,,,,,,,,,,,,,,281.1898244,None,281.1898244,None,281.1898244,None,space,49.40663013,281.1898244,None,,,,,,,,,,,,,ES,1,20,female,undergrad,2020_Mar_05_1304,AdjustEyeTrack,3.1.5,59.98762743
78,Stimuli/Morph78.JPG,Stimuli/Morph78.png,Stimuli/BlurLevel5/BlurEditedMorph78,Stimuli/BlurLevel5/BlurEditedMorph78.png,Stimuli/BlurLevel5/NumberedMorphs/BlurEditedMorph78.png,Stimuli/BlurLevel5/OriginalBlur/BlurEditedMorph78.png,Stimuli/BlurMorphTrio/EditedMorph78.png,020238right.gif,Stimuli/normal_thumbnails/78right.gif,,,,,0,0,0,0,0,0,0,77,,,,,,,,,,,,,,,,,,,,,,,47,1,1,71,0.813920386,2.363796439,78,Experiment,,,,,,,,,82,89,-11,-11,,,,,,,,,,,,,,,332.1867768,332.9043679,332.1867768,332.9043679,85.03401361,1583442524,1583442529,4.171373129,1583442521,1583442524,,,ES,1,20,female,undergrad,2020_Mar_05_1304,AdjustEyeTrack,3.1.5,59.98762743
22,Stimuli/Morph22.JPG,Stimuli/Morph22.png,Stimuli/BlurLevel5/BlurEditedMorph22,Stimuli/BlurLevel5/BlurEditedMorph22.png,Stimuli/BlurLevel5/NumberedMorphs/BlurEditedMorph22.png,Stimuli/BlurLevel5/OriginalBlur/BlurEditedMorph22.png,Stimuli/BlurMorphTrio/EditedMorph22.png,010055right.gif,Stimuli/normal_thumbnails/22right.gif,,,,,0,0,0,0,0,1,1,21,,,,,,,,,,,,,,,,,,,,,,,15,2,1,189,-2.469220851,-0.391086163,22,Experiment,,,,,,,,,130,21,1,1,,,,,,,,,,,,,,,339.7041947,340.4043019,339.7041947,340.4043019,98.63945578,1583442532,1583442537,5.468394041,1583442529,1583442532,,,ES,1,20,female,undergrad,2020_Mar_05_1304,AdjustEyeTrack,3.1.5,59.98762743
143,Stimuli/Morph143.JPG,Stimuli/Morph143.png,Stimuli/BlurLevel5/BlurEditedMorph143,Stimuli/BlurLevel5/BlurEditedMorph143.png,Stimuli/BlurLevel5/NumberedMorphs/BlurEditedMorph143.png,Stimuli/BlurLevel5/OriginalBlur/BlurEditedMorph143.png,Stimuli/BlurMorphTrio/EditedMorph143.png,None,None,,,,,0,0,0,0,0,2,2,142,,,,,,,,,,,,,,,,,,,,,,,14,3,1,23,2.301262134,0.976827821,143,Experiment,,,,,,,,,10,142,1,1,,,,,,,,,,,,,,,348.6144227,349.3242543,348.6144227,349.3242543,98.63945578,1583442541,1583442552,11.35242701,1583442538,1583442541,,,ES,1,20,female,undergrad,2020_Mar_05_1304,AdjustEyeTrack,3.1.5,59.98762743
12,Stimuli/Morph12.JPG,Stimuli/Morph12.png,Stimuli/BlurLevel5/BlurEditedMorph12,Stimuli/BlurLevel5/BlurEditedMorph12.png,Stimuli/BlurLevel5/NumberedMorphs/BlurEditedMorph12.png,Stimuli/BlurLevel5/OriginalBlur/BlurEditedMorph12.png,Stimuli/BlurMorphTrio/EditedMorph12.png,010026right.gif,Stimuli/normal_thumbnails/12right.gif,,,,,0,0,0,0,0,3,3,11,,,,,,,,,,,,,,,,,,,,,,,73,4,1,0,2.5,0,12,Experiment,,,,,,,,,59,6,6,6,,,,,,,,,,,,,,,363.2423647,363.9452931,363.2423647,363.9452931,91.83673469,1583442555,1583442560,4.153635979,1583442553,1583442555,,,ES,1,20,female,undergrad,2020_Mar_05_1304,AdjustEyeTrack,3.1.5,59.98762743
38,Stimuli/Morph38.JPG,Stimuli/Morph38.png,Stimuli/BlurLevel5/BlurEditedMorph38,Stimuli/BlurLevel5/BlurEditedMorph38.png,Stimuli/BlurLevel5/NumberedMorphs/BlurEditedMorph38.png,Stimuli/BlurLevel5/OriginalBlur/BlurEditedMorph38.png,Stimuli/BlurMorphTrio/EditedMorph38.png,010108right.gif,Stimuli/normal_thumbnails/38right.gif,,,,,0,0,0,0,0,4,4,37,,,,,,,,,,,,,,,,,,,,,,,31,5,1,343,2.39076189,-0.730929262,38,Experiment,,,,,,,,,104,11,27,27,,,,,,,,,,,,,,,370.8265572,371.5378305,370.8265572,371.5378305,63.26530612,1583442563,1583442567,3.616642952,1583442560,1583442563,,,ES,1,20,female,undergrad,2020_Mar_05_1304,AdjustEyeTrack,3.1.5,59.98762743
50,Stimuli/Morph50.JPG,Stimuli/Morph50.png,Stimuli/BlurLevel5/BlurEditedMorph50,Stimuli/BlurLevel5/BlurEditedMorph50.png,Stimuli/BlurLevel5/NumberedMorphs/BlurEditedMorph50.png,Stimuli/BlurLevel5/OriginalBlur/BlurEditedMorph50.png,Stimuli/BlurMorphTrio/EditedMorph50.png,010142right.gif,Stimuli/normal_thumbnails/50right.gif,,,,,0,0,0,0,0,5,5,49,,,,,,,,,,,,,,,,,,,,,,,24,6,1,113,-0.976827821,2.301262134,50,Experiment,,,,,,,,,71,53,-3,-3,,,,,,,,,,,,,,,377.9338776,378.6303496,377.9338776,378.6303496,95.91836735,1583442570,1583442573,2.914505959,1583442567,1583442570,,,ES,1,20,female,undergrad,2020_Mar_05_1304,AdjustEyeTrack,3.1.5,59.98762743
126,Stimuli/Morph126.JPG,Stimuli/Morph126.png,Stimuli/BlurLevel5/BlurEditedMorph126,Stimuli/BlurLevel5/BlurEditedMorph126.png,Stimuli/BlurLevel5/NumberedMorphs/BlurEditedMorph126.png,Stimuli/BlurLevel5/OriginalBlur/BlurEditedMorph126.png,Stimuli/BlurMorphTrio/EditedMorph126.png,None,None,,,,,0,0,0,0,0,6,6,125,,,,,,,,,,,,,,,,,,,,,,,85,7,1,321,1.942864904,-1.573300978,126,Experiment,,,,,,,,,146,118,8,8,,,,,,,,,,,,,,,384.0962951,384.8038349,384.0962951,384.8038349,89.11564626,1583442576,1583442578,1.986946106,1583442574,1583442576,,,ES,1,20,female,undergrad,2020_Mar_05_1304,AdjustEyeTrack,3.1.5,59.98762743
40,Stimuli/Morph40.JPG,Stimuli/Morph40.png,Stimuli/BlurLevel5/BlurEditedMorph40,Stimuli/BlurLevel5/BlurEditedMorph40.png,Stimuli/BlurLevel5/NumberedMorphs/BlurEditedMorph40.png,Stimuli/BlurLevel5/OriginalBlur/BlurEditedMorph40.png,Stimuli/BlurMorphTrio/EditedMorph40.png,010110right.gif,Stimuli/normal_thumbnails/40right.gif,,,,,0,0,0,0,0,7,7,39,,,,,,,,,,,,,,,,,,,,,,,24,8,1,142,-1.970026884,1.539153688,40,Experiment,,,,,,,,,118,51,-11,-11,,,,,,,,,,,,,,,389.3582886,390.0560784,389.3582886,390.0560784,85.03401361,1583442582,1583442585,3.150099277,1583442579,1583442581,,,ES,1,20,female,undergrad,2020_Mar_05_1304,AdjustEyeTrack,3.1.5,59.98762743
94,Stimuli/Morph94.JPG,Stimuli/Morph94.png,Stimuli/BlurLevel5/BlurEditedMorph94,Stimuli/BlurLevel5/BlurEditedMorph94.png,Stimuli/BlurLevel5/NumberedMorphs/BlurEditedMorph94.png,Stimuli/BlurLevel5/OriginalBlur/BlurEditedMorph94.png,Stimuli/BlurMorphTrio/EditedMorph94.png,020286right.gif,Stimuli/normal_thumbnails/94right.gif,,,,,0,0,0,0,0,8,8,93,,,,,,,,,,,,,,,,,,,,,,,91,9,1,302,1.324798161,-2.12012024,94,Experiment,,,,,,,,,44,92,2,2,,,,,,,,,,,,,,,395.9274643,396.6392339,395.9274643,396.6392339,97.27891156,1583442588,1583442592,3.520485163,1583442585,1583442588,,,ES,1,20,female,undergrad,2020_Mar_05_1304,AdjustEyeTrack,3.1.5,59.98762743
92,Stimuli/Morph92.JPG,Stimuli/Morph92.png,Stimuli/BlurLevel5/BlurEditedMorph92,Stimuli/BlurLevel5/BlurEditedMorph92.png,Stimuli/BlurLevel5/NumberedMorphs/BlurEditedMorph92.png,Stimuli/BlurLevel5/OriginalBlur/BlurEditedMorph92.png,Stimuli/BlurMorphTrio/EditedMorph92.png,020277right.gif,Stimuli/normal_thumbnails/92right.gif,,,,,0,0,0,0,0,9,9,91,,,,,,,,,,,,,,,,,,,,,,,87,10,1,101,-0.477022488,2.454067959,92,Experiment,,,,,,,,,115,91,1,1,,,,,,,,,,,,,,,402.7753363,403.4712106,402.7753363,403.4712106,98.63945578,1583442595,1583442596,1.154633999,1583442592,1583442595,,,ES,1,20,female,undergrad,2020_Mar_05_1304,AdjustEyeTrack,3.1.5,59.98762743
45,Stimuli/Morph45.JPG,Stimuli/Morph45.png,Stimuli/BlurLevel5/BlurEditedMorph45,Stimuli/BlurLevel5/BlurEditedMorph45.png,Stimuli/BlurLevel5/NumberedMorphs/BlurEditedMorph45.png,Stimuli/BlurLevel5/OriginalBlur/BlurEditedMorph45.png,Stimuli/BlurMorphTrio/EditedMorph45.png,010127right.gif,Stimuli/normal_thumbnails/45right.gif,,,,,0,0,0,0,0,10,10,44,,,,,,,,,,,,,,,,,,,,,,,63,11,1,68,0.936516484,2.317959636,45,Experiment,,,,,,,,,139,47,-2,-2,,,,,,,,,,,,,,,407.2678495,407.9582745,407.2678495,407.9582745,97.27891156,1583442599,1583442604,4.883050919,1583442597,1583442599,,,ES,1,20,female,undergrad,2020_Mar_05_1304,AdjustEyeTrack,3.1.5,59.98762743
112,Stimuli/Morph112.JPG,Stimuli/Morph112.png,Stimuli/BlurLevel5/BlurEditedMorph112,Stimuli/BlurLevel5/BlurEditedMorph112.png,Stimuli/BlurLevel5/NumberedMorphs/BlurEditedMorph112.png,Stimuli/BlurLevel5/OriginalBlur/BlurEditedMorph112.png,Stimuli/BlurMorphTrio/EditedMorph112.png,None,None,,,,,0,0,0,0,0,11,11,111,,,,,,,,,,,,,,,,,,,,,,,78,12,1,137,-1.828384254,1.7049959,112,Experiment,,,,,,,,,25,98,14,14,,,,,,,,,,,,,,,415.3349669,416.0118543,415.3349669,416.0118543,80.95238095,1583442607,1583442610,2.666848898,1583442605,1583442607,,,ES,1,20,female,undergrad,2020_Mar_05_1304,AdjustEyeTrack,3.1.5,59.98762743
48,Stimuli/Morph48.JPG,Stimuli/Morph48.png,Stimuli/BlurLevel5/BlurEditedMorph48,Stimuli/BlurLevel5/BlurEditedMorph48.png,Stimuli/BlurLevel5/NumberedMorphs/BlurEditedMorph48.png,Stimuli/BlurLevel5/OriginalBlur/BlurEditedMorph48.png,Stimuli/BlurMorphTrio/EditedMorph48.png,010131right.gif,Stimuli/normal_thumbnails/48right.gif,,,,,0,0,0,0,0,12,12,47,,,,,,,,,,,,,,,,,,,,,,,97,13,1,113,-0.976827821,2.301262134,48,Experiment,,,,,,,,,127,53,-5,-5,,,,,,,,,,,,,,,421.4309982,422.1383034,421.4309982,422.1383034,93.19727891,1583442614,1583442616,2.765420198,1583442611,1583442614,,,ES,1,20,female,undergrad,2020_Mar_05_1304,AdjustEyeTrack,3.1.5,59.98762743
24,Stimuli/Morph24.JPG,Stimuli/Morph24.png,Stimuli/BlurLevel5/BlurEditedMorph24,Stimuli/BlurLevel5/BlurEditedMorph24.png,Stimuli/BlurLevel5/NumberedMorphs/BlurEditedMorph24.png,Stimuli/BlurLevel5/OriginalBlur/BlurEditedMorph24.png,Stimuli/BlurMorphTrio/EditedMorph24.png,010068right.gif,Stimuli/normal_thumbnails/24right.gif,,,,,0,0,0,0,0,13,13,23,,,,,,,,,,,,,,,,,,,,,,,98,14,1,135,-1.767766953,1.767766953,24,Experiment,,,,,,,,,7,19,5,5,,,,,,,,,,,,,,,427.6414381,428.3427946,427.6414381,428.3427946,93.19727891,1583442620,1583442625,4.749825954,1583442617,1583442620,,,ES,1,20,female,undergrad,2020_Mar_05_1304,AdjustEyeTrack,3.1.5,59.98762743
72,Stimuli/Morph72.JPG,Stimuli/Morph72.png,Stimuli/BlurLevel5/BlurEditedMorph72,Stimuli/BlurLevel5/BlurEditedMorph72.png,Stimuli/BlurLevel5/NumberedMorphs/BlurEditedMorph72.png,Stimuli/BlurLevel5/OriginalBlur/BlurEditedMorph72.png,Stimuli/BlurMorphTrio/EditedMorph72.png,020227right.gif,Stimuli/normal_thumbnails/72right.gif,,,,,0,0,0,0,0,14,14,71,,,,,,,,,,,,,,,,,,,,,,,39,15,1,80,0.434120444,2.462019383,72,Experiment,,,,,,,,,15,67,5,5,,,,,,,,,,,,,,,435.8065106,436.5112221,435.8065106,436.5112221,93.19727891,1583442628,1583442631,3.450716734,1583442625,1583442628,,,ES,1,20,female,undergrad,2020_Mar_05_1304,AdjustEyeTrack,3.1.5,59.98762743
56,Stimuli/Morph56.JPG,Stimuli/Morph56.png,Stimuli/BlurLevel5/BlurEditedMorph56,Stimuli/BlurLevel5/BlurEditedMorph56.png,Stimuli/BlurLevel5/NumberedMorphs/BlurEditedMorph56.png,Stimuli/BlurLevel5/OriginalBlur/BlurEditedMorph56.png,Stimuli/BlurMorphTrio/EditedMorph56.png,010157right.gif,Stimuli/normal_thumbnails/56right.gif,,,,,0,0,0,0,0,15,15,55,,,,,,,,,,,,,,,,,,,,,,,69,16,1,39,1.942864904,1.573300978,56,Experiment,,,,,,,,,2,50,6,6,,,,,,,,,,,,,,,442.7977329,443.5032554,442.7977329,443.5032554,91.83673469,1583442635,1583442637,2.266422033,1583442632,1583442635,,,ES,1,20,female,undergrad,2020_Mar_05_1304,AdjustEyeTrack,3.1.5,59.98762743
53,Stimuli/Morph53.JPG,Stimuli/Morph53.png,Stimuli/BlurLevel5/BlurEditedMorph53,Stimuli/BlurLevel5/BlurEditedMorph53.png,Stimuli/BlurLevel5/NumberedMorphs/BlurEditedMorph53.png,Stimuli/BlurLevel5/OriginalBlur/BlurEditedMorph53.png,Stimuli/BlurMorphTrio/EditedMorph53.png,010149right.gif,Stimuli/normal_thumbnails/53right.gif,,,,,0,0,0,0,0,16,16,52,,,,,,,,,,,,,,,,,,,,,,,48,17,1,287,0.730929262,-2.39076189,53,Experiment,,,,,,,,,147,46,7,7,,,,,,,,,,,,,,,448.3876781,449.0882402,448.3876781,449.0882402,90.47619048,1583442641,1583442643,2.554029226,1583442638,1583442641,,,ES,1,20,female,undergrad,2020_Mar_05_1304,AdjustEyeTrack,3.1.5,59.98762743
4,Stimuli/Morph4.JPG,Stimuli/Morph4.png,Stimuli/BlurLevel5/BlurEditedMorph4,Stimuli/BlurLevel5/BlurEditedMorph4.png,Stimuli/BlurLevel5/NumberedMorphs/BlurEditedMorph4.png,Stimuli/BlurLevel5/OriginalBlur/BlurEditedMorph4.png,Stimuli/BlurMorphTrio/EditedMorph4.png,010010right.gif,Stimuli/normal_thumbnails/4right.gif,,,,,0,0,0,0,0,17,17,3,,,,,,,,,,,,,,,,,,,,,,,43,18,1,304,1.397982259,-2.072593931,4,Experiment,,,,,,,,,56,9,-5,-5,,,,,,,,,,,,,,,454.2882659,454.9903118,454.2882659,454.9903118,93.19727891,1583442646,1583442649,2.382214069,1583442644,1583442646,,,ES,1,20,female,undergrad,2020_Mar_05_1304,AdjustEyeTrack,3.1.5,59.98762743
101,Stimuli/Morph101.JPG,Stimuli/Morph101.png,Stimuli/BlurLevel5/BlurEditedMorph101,Stimuli/BlurLevel5/BlurEditedMorph101.png,Stimuli/BlurLevel5/NumberedMorphs/BlurEditedMorph101.png,Stimuli/BlurLevel5/OriginalBlur/BlurEditedMorph101.png,Stimuli/BlurMorphTrio/EditedMorph101.png,None,None,,,,,0,0,0,0,0,18,18,100,,,,,,,,,,,,,,,,,,,,,,,69,19,1,127,-1.504537558,1.996588775,101,Experiment,,,,,,,,,124,107,-6,-6,,,,,,,,,,,,,,,460.1569208,460.85607,460.1569208,460.85607,91.83673469,1583442652,1583442655,3.14613986,1583442649,1583442652,,,ES,1,20,female,undergrad,2020_Mar_05_1304,AdjustEyeTrack,3.1.5,59.98762743
110,Stimuli/Morph110.JPG,Stimuli/Morph110.png,Stimuli/BlurLevel5/BlurEditedMorph110,Stimuli/BlurLevel5/BlurEditedMorph110.png,Stimuli/BlurLevel5/NumberedMorphs/BlurEditedMorph110.png,Stimuli/BlurLevel5/OriginalBlur/BlurEditedMorph110.png,Stimuli/BlurMorphTrio/EditedMorph110.png,None,None,,,,,0,0,0,0,0,19,19,109,,,,,,,,,,,,,,,,,,,,,,,60,20,1,250,-0.855050358,-2.349231552,110,Experiment,,,,,,,,,78,108,2,2,,,,,,,,,,,,,,,466.8328589,467.5449119,466.8328589,467.5449119,97.27891156,1583442659,1583442662,2.519150019,1583442656,1583442659,,,ES,1,20,female,undergrad,2020_Mar_05_1304,AdjustEyeTrack,3.1.5,59.98762743
79,Stimuli/Morph79.JPG,Stimuli/Morph79.png,Stimuli/BlurLevel5/BlurEditedMorph79,Stimuli/BlurLevel5/BlurEditedMorph79.png,Stimuli/BlurLevel5/NumberedMorphs/BlurEditedMorph79.png,Stimuli/BlurLevel5/OriginalBlur/BlurEditedMorph79.png,Stimuli/BlurMorphTrio/EditedMorph79.png,020239right.gif,Stimuli/normal_thumbnails/79right.gif,,,,,0,0,0,0,0,20,20,78,,,,,,,,,,,,,,,,,,,,,,,93,21,1,343,2.39076189,-0.730929262,79,Experiment,,,,,,,,,9,108,-29,-29,,,,,,,,,,,,,,,473.4422421,474.2024148,473.4422421,474.2024148,60.54421769,1583442666,1583442671,5.446285009,1583442662,1583442666,,,ES,1,20,female,undergrad,2020_Mar_05_1304,AdjustEyeTrack,3.1.5,59.98762743
15,Stimuli/Morph15.JPG,Stimuli/Morph15.png,Stimuli/BlurLevel5/BlurEditedMorph15,Stimuli/BlurLevel5/BlurEditedMorph15.png,Stimuli/BlurLevel5/NumberedMorphs/BlurEditedMorph15.png,Stimuli/BlurLevel5/OriginalBlur/BlurEditedMorph15.png,Stimuli/BlurMorphTrio/EditedMorph15.png,010031right.gif,Stimuli/normal_thumbnails/15right.gif,,,,,0,0,0,0,0,21,21,14,,,,,,,,,,,,,,,,,,,,,,,14,22,1,121,-1.287595187,2.142918252,15,Experiment,,,,,,,,,106,112,-97,50,,,,,,,,,,,,,,,482.471845,483.1739611,482.471845,483.1739611,31.97278912,1583442675,1583442676,1.576534748,1583442672,1583442675,,,ES,1,20,female,undergrad,2020_Mar_05_1304,AdjustEyeTrack,3.1.5,59.98762743
141,Stimuli/Morph141.JPG,Stimuli/Morph141.png,Stimuli/BlurLevel5/BlurEditedMorph141,Stimuli/BlurLevel5/BlurEditedMorph141.png,Stimuli/BlurLevel5/NumberedMorphs/BlurEditedMorph141.png,Stimuli/BlurLevel5/OriginalBlur/BlurEditedMorph141.png,Stimuli/BlurMorphTrio/EditedMorph141.png,None,None,,,,,0,0,0,0,0,22,22,140,,,,,,,,,,,,,,,,,,,,,,,16,23,1,297,1.134976249,-2.22751631,141,Experiment,,,,,,,,,102,22,119,-28,,,,,,,,,,,,,,,487.6497963,488.3693683,487.6497963,488.3693683,61.9047619,1583442680,1583442683,3.250168085,1583442677,1583442680,,,ES,1,20,female,undergrad,2020_Mar_05_1304,AdjustEyeTrack,3.1.5,59.98762743
114,Stimuli/Morph114.JPG,Stimuli/Morph114.png,Stimuli/BlurLevel5/BlurEditedMorph114,Stimuli/BlurLevel5/BlurEditedMorph114.png,Stimuli/BlurLevel5/NumberedMorphs/BlurEditedMorph114.png,Stimuli/BlurLevel5/OriginalBlur/BlurEditedMorph114.png,Stimuli/BlurMorphTrio/EditedMorph114.png,None,None,,,,,0,0,0,0,0,23,23,113,,,,,,,,,,,,,,,,,,,,,,,49,24,1,85,0.217889357,2.490486745,114,Experiment,,,,,,,,,46,95,19,19,,,,,,,,,,,,,,,494.3055891,495.0032991,494.3055891,495.0032991,74.14965986,1583442687,1583442688,1.665996075,1583442684,1583442686,,,ES,1,20,female,undergrad,2020_Mar_05_1304,AdjustEyeTrack,3.1.5,59.98762743
28,Stimuli/Morph28.JPG,Stimuli/Morph28.png,Stimuli/BlurLevel5/BlurEditedMorph28,Stimuli/BlurLevel5/BlurEditedMorph28.png,Stimuli/BlurLevel5/NumberedMorphs/BlurEditedMorph28.png,Stimuli/BlurLevel5/OriginalBlur/BlurEditedMorph28.png,Stimuli/BlurMorphTrio/EditedMorph28.png,010073right.gif,Stimuli/normal_thumbnails/28right.gif,,,,,0,0,0,0,0,24,24,27,,,,,,,,,,,,,,,,,,,,,,,27,25,1,328,2.12012024,-1.324798161,28,Experiment,,,,,,,,,146,20,8,8,,,,,,,,,,,,,,,499.4223123,500.1362034,499.4223123,500.1362034,89.11564626,1583442692,1583442695,3.231728792,1583442689,1583442692,,,ES,1,20,female,undergrad,2020_Mar_05_1304,AdjustEyeTrack,3.1.5,59.98762743
51,Stimuli/Morph51.JPG,Stimuli/Morph51.png,Stimuli/BlurLevel5/BlurEditedMorph51,Stimuli/BlurLevel5/BlurEditedMorph51.png,Stimuli/BlurLevel5/NumberedMorphs/BlurEditedMorph51.png,Stimuli/BlurLevel5/OriginalBlur/BlurEditedMorph51.png,Stimuli/BlurMorphTrio/EditedMorph51.png,010146right.gif,Stimuli/normal_thumbnails/51right.gif,,,,,0,0,0,0,0,25,25,50,,,,,,,,,,,,,,,,,,,,,,,5,26,1,218,-1.970026884,-1.539153688,51,Experiment,,,,,,,,,120,55,-4,-4,,,,,,,,,,,,,,,505.9708311,506.6774907,505.9708311,506.6774907,94.55782313,1583442698,1583442700,2.212217093,1583442695,1583442698,,,ES,1,20,female,undergrad,2020_Mar_05_1304,AdjustEyeTrack,3.1.5,59.98762743
105,Stimuli/Morph105.JPG,Stimuli/Morph105.png,Stimuli/BlurLevel5/BlurEditedMorph105,Stimuli/BlurLevel5/BlurEditedMorph105.png,Stimuli/BlurLevel5/NumberedMorphs/BlurEditedMorph105.png,Stimuli/BlurLevel5/OriginalBlur/BlurEditedMorph105.png,Stimuli/BlurMorphTrio/EditedMorph105.png,None,None,,,,,0,0,0,0,0,26,26,104,,,,,,,,,,,,,,,,,,,,,,,35,27,1,288,0.772542486,-2.377641291,105,Experiment,,,,,,,,,30,101,4,4,,,,,,,,,,,,,,,511.5320873,512.2406878,511.5320873,512.2406878,94.55782313,1583442704,1583442707,3.016896009,1583442701,1583442704,,,ES,1,20,female,undergrad,2020_Mar_05_1304,AdjustEyeTrack,3.1.5,59.98762743
71,Stimuli/Morph71.JPG,Stimuli/Morph71.png,Stimuli/BlurLevel5/BlurEditedMorph71,Stimuli/BlurLevel5/BlurEditedMorph71.png,Stimuli/BlurLevel5/NumberedMorphs/BlurEditedMorph71.png,Stimuli/BlurLevel5/OriginalBlur/BlurEditedMorph71.png,Stimuli/BlurMorphTrio/EditedMorph71.png,020225right.gif,Stimuli/normal_thumbnails/71right.gif,,,,,0,0,0,0,0,27,27,70,,,,,,,,,,,,,,,,,,,,,,,96,28,1,317,1.828384254,-1.7049959,71,Experiment,,,,,,,,,15,122,-51,-51,,,,,,,,,,,,,,,518.4339166,519.1867068,518.4339166,519.1867068,30.6122449,1583442711,1583442714,3.631652832,1583442707,1583442711,,,ES,1,20,female,undergrad,2020_Mar_05_1304,AdjustEyeTrack,3.1.5,59.98762743
62,Stimuli/Morph62.JPG,Stimuli/Morph62.png,Stimuli/BlurLevel5/BlurEditedMorph62,Stimuli/BlurLevel5/BlurEditedMorph62.png,Stimuli/BlurLevel5/NumberedMorphs/BlurEditedMorph62.png,Stimuli/BlurLevel5/OriginalBlur/BlurEditedMorph62.png,Stimuli/BlurMorphTrio/EditedMorph62.png,020205right.gif,Stimuli/normal_thumbnails/62right.gif,,,,,0,0,0,0,0,28,28,61,,,,,,,,,,,,,,,,,,,,,,,50,29,1,234,-1.469463131,-2.022542486,62,Experiment,,,,,,,,,118,70,-8,-8,,,,,,,,,,,,,,,525.519721,526.2394327,525.519721,526.2394327,89.11564626,1583442718,1583442721,3.050097227,1583442715,1583442718,,,ES,1,20,female,undergrad,2020_Mar_05_1304,AdjustEyeTrack,3.1.5,59.98762743
37,Stimuli/Morph37.JPG,Stimuli/Morph37.png,Stimuli/BlurLevel5/BlurEditedMorph37,Stimuli/BlurLevel5/BlurEditedMorph37.png,Stimuli/BlurLevel5/NumberedMorphs/BlurEditedMorph37.png,Stimuli/BlurLevel5/OriginalBlur/BlurEditedMorph37.png,Stimuli/BlurMorphTrio/EditedMorph37.png,010097right.gif,Stimuli/normal_thumbnails/37right.gif,,,,,0,0,0,0,0,29,29,36,,,,,,,,,,,,,,,,,,,,,,,50,30,1,41,1.886773951,1.640147572,37,Experiment,,,,,,,,,96,27,10,10,,,,,,,,,,,,,,,531.7465538,532.459283,531.7465538,532.459283,86.39455782,1583442724,1583442727,2.614399195,1583442721,1583442724,,,ES,1,20,female,undergrad,2020_Mar_05_1304,AdjustEyeTrack,3.1.5,59.98762743
39,Stimuli/Morph39.JPG,Stimuli/Morph39.png,Stimuli/BlurLevel5/BlurEditedMorph39,Stimuli/BlurLevel5/BlurEditedMorph39.png,Stimuli/BlurLevel5/NumberedMorphs/BlurEditedMorph39.png,Stimuli/BlurLevel5/OriginalBlur/BlurEditedMorph39.png,Stimuli/BlurMorphTrio/EditedMorph39.png,010109right.gif,Stimuli/normal_thumbnails/39right.gif,,,,,0,0,0,0,0,30,30,38,,,,,,,,,,,,,,,,,,,,,,,17,31,1,171,-2.469220851,0.391086163,39,Experiment,,,,,,,,,123,34,5,5,,,,,,,,,,,,,,,537.9634846,538.6695226,537.9634846,538.6695226,93.19727891,1583442730,1583442733,2.530439138,1583442727,1583442730,,,ES,1,20,female,undergrad,2020_Mar_05_1304,AdjustEyeTrack,3.1.5,59.98762743
7,Stimuli/Morph7.JPG,Stimuli/Morph7.png,Stimuli/BlurLevel5/BlurEditedMorph7,Stimuli/BlurLevel5/BlurEditedMorph7.png,Stimuli/BlurLevel5/NumberedMorphs/BlurEditedMorph7.png,Stimuli/BlurLevel5/OriginalBlur/BlurEditedMorph7.png,Stimuli/BlurMorphTrio/EditedMorph7.png,010013right.gif,Stimuli/normal_thumbnails/7right.gif,,,,,0,0,0,0,0,31,31,6,,,,,,,,,,,,,,,,,,,,,,,16,32,1,230,-1.606969024,-1.915111108,7,Experiment,,,,,,,,,115,30,-23,-23,,,,,,,,,,,,,,,543.9398445,544.64599,543.9398445,544.64599,68.70748299,1583442736,1583442739,2.396378756,1583442733,1583442736,,,ES,1,20,female,undergrad,2020_Mar_05_1304,AdjustEyeTrack,3.1.5,59.98762743
5,Stimuli/Morph5.JPG,Stimuli/Morph5.png,Stimuli/BlurLevel5/BlurEditedMorph5,Stimuli/BlurLevel5/BlurEditedMorph5.png,Stimuli/BlurLevel5/NumberedMorphs/BlurEditedMorph5.png,Stimuli/BlurLevel5/OriginalBlur/BlurEditedMorph5.png,Stimuli/BlurMorphTrio/EditedMorph5.png,010011right.gif,Stimuli/normal_thumbnails/5right.gif,,,,,0,0,0,0,0,32,32,4,,,,,,,,,,,,,,,,,,,,,,,97,33,1,296,1.095927867,-2.246985116,5,Experiment,,,,,,,,,75,18,-13,-13,,,,,,,,,,,,,,,549.8298826,550.5390013,549.8298826,550.5390013,82.31292517,1583442742,1583442745,2.84953618,1583442739,1583442742,,,ES,1,20,female,undergrad,2020_Mar_05_1304,AdjustEyeTrack,3.1.5,59.98762743
35,Stimuli/Morph35.JPG,Stimuli/Morph35.png,Stimuli/BlurLevel5/BlurEditedMorph35,Stimuli/BlurLevel5/BlurEditedMorph35.png,Stimuli/BlurLevel5/NumberedMorphs/BlurEditedMorph35.png,Stimuli/BlurLevel5/OriginalBlur/BlurEditedMorph35.png,Stimuli/BlurMorphTrio/EditedMorph35.png,010094right.gif,Stimuli/normal_thumbnails/35right.gif,,,,,0,0,0,0,0,33,33,34,,,,,,,,,,,,,,,,,,,,,,,84,34,1,35,2.047880111,1.433941091,35,Experiment,,,,,,,,,4,47,-12,-12,,,,,,,,,,,,,,,556.0077854,556.7052768,556.0077854,556.7052768,83.67346939,1583442748,1583442751,2.520629883,1583442745,1583442748,,,ES,1,20,female,undergrad,2020_Mar_05_1304,AdjustEyeTrack,3.1.5,59.98762743
44,Stimuli/Morph44.JPG,Stimuli/Morph44.png,Stimuli/BlurLevel5/BlurEditedMorph44,Stimuli/BlurLevel5/BlurEditedMorph44.png,Stimuli/BlurLevel5/NumberedMorphs/BlurEditedMorph44.png,Stimuli/BlurLevel5/OriginalBlur/BlurEditedMorph44.png,Stimuli/BlurMorphTrio/EditedMorph44.png,010126right.gif,Stimuli/normal_thumbnails/44right.gif,,,,,0,0,0,0,0,34,34,43,,,,,,,,,,,,,,,,,,,,,,,45,35,1,32,2.12012024,1.324798161,44,Experiment,,,,,,,,,16,51,-7,-7,,,,,,,,,,,,,,,561.7422854,562.438154,561.7422854,562.438154,90.47619048,1583442754,1583442757,2.950088024,1583442751,1583442754,,,ES,1,20,female,undergrad,2020_Mar_05_1304,AdjustEyeTrack,3.1.5,59.98762743
95,Stimuli/Morph95.JPG,Stimuli/Morph95.png,Stimuli/BlurLevel5/BlurEditedMorph95,Stimuli/BlurLevel5/BlurEditedMorph95.png,Stimuli/BlurLevel5/NumberedMorphs/BlurEditedMorph95.png,Stimuli/BlurLevel5/OriginalBlur/BlurEditedMorph95.png,Stimuli/BlurMorphTrio/EditedMorph95.png,020287right.gif,Stimuli/normal_thumbnails/95right.gif,,,,,0,0,0,0,0,35,35,94,,,,,,,,,,,,,,,,,,,,,,,15,36,1,334,2.246985116,-1.095927867,95,Experiment,,,,,,,,,6,105,-10,-10,,,,,,,,,,,,,,,568.033752,568.745105,568.033752,568.745105,86.39455782,1583442760,1583442763,2.933771849,1583442757,1583442760,,,ES,1,20,female,undergrad,2020_Mar_05_1304,AdjustEyeTrack,3.1.5,59.98762743
127,Stimuli/Morph127.JPG,Stimuli/Morph127.png,Stimuli/BlurLevel5/BlurEditedMorph127,Stimuli/BlurLevel5/BlurEditedMorph127.png,Stimuli/BlurLevel5/NumberedMorphs/BlurEditedMorph127.png,Stimuli/BlurLevel5/OriginalBlur/BlurEditedMorph127.png,Stimuli/BlurMorphTrio/EditedMorph127.png,None,None,,,,,0,0,0,0,0,36,36,126,,,,,,,,,,,,,,,,,,,,,,,58,37,1,64,1.095927867,2.246985116,127,Experiment,,,,,,,,,41,118,9,9,,,,,,,,,,,,,,,574.268868,574.9596398,574.268868,574.9596398,87.75510204,1583442766,1583442769,2.663808823,1583442764,1583442766,,,ES,1,20,female,undergrad,2020_Mar_05_1304,AdjustEyeTrack,3.1.5,59.98762743
102,Stimuli/Morph102.JPG,Stimuli/Morph102.png,Stimuli/BlurLevel5/BlurEditedMorph102,Stimuli/BlurLevel5/BlurEditedMorph102.png,Stimuli/BlurLevel5/NumberedMorphs/BlurEditedMorph102.png,Stimuli/BlurLevel5/OriginalBlur/BlurEditedMorph102.png,Stimuli/BlurMorphTrio/EditedMorph102.png,None,None,,,,,0,0,0,0,0,37,37,101,,,,,,,,,,,,,,,,,,,,,,,74,38,1,182,-2.498477068,-0.087248742,102,Experiment,,,,,,,,,25,110,-8,-8,,,,,,,,,,,,,,,580.3073649,581.0258465,580.3073649,581.0258465,89.11564626,1583442773,1583442775,2.484103918,1583442770,1583442772,,,ES,1,20,female,undergrad,2020_Mar_05_1304,AdjustEyeTrack,3.1.5,59.98762743
58,Stimuli/Morph58.JPG,Stimuli/Morph58.png,Stimuli/BlurLevel5/BlurEditedMorph58,Stimuli/BlurLevel5/BlurEditedMorph58.png,Stimuli/BlurLevel5/NumberedMorphs/BlurEditedMorph58.png,Stimuli/BlurLevel5/OriginalBlur/BlurEditedMorph58.png,Stimuli/BlurMorphTrio/EditedMorph58.png,010159right.gif,Stimuli/normal_thumbnails/58right.gif,,,,,0,0,0,0,0,38,38,57,,,,,,,,,,,,,,,,,,,,,,,61,39,1,8,2.475670172,0.347932752,58,Experiment,,,,,,,,,32,54,4,4,,,,,,,,,,,,,,,586.3190373,587.0515391,586.3190373,587.0515391,94.55782313,1583442779,1583442781,2.483904123,1583442776,1583442779,,,ES,1,20,female,undergrad,2020_Mar_05_1304,AdjustEyeTrack,3.1.5,59.98762743
65,Stimuli/Morph65.JPG,Stimuli/Morph65.png,Stimuli/BlurLevel5/BlurEditedMorph65,Stimuli/BlurLevel5/BlurEditedMorph65.png,Stimuli/BlurLevel5/NumberedMorphs/BlurEditedMorph65.png,Stimuli/BlurLevel5/OriginalBlur/BlurEditedMorph65.png,Stimuli/BlurMorphTrio/EditedMorph65.png,020209right.gif,Stimuli/normal_thumbnails/65right.gif,,,,,0,0,0,0,0,39,39,64,,,,,,,,,,,,,,,,,,,,,,,51,40,1,153,-2.22751631,1.134976249,65,Experiment,,,,,,,,,69,54,11,11,,,,,,,,,,,,,,,592.3869817,593.1425206,592.3869817,593.1425206,85.03401361,1583442785,1583442788,3.182873964,1583442782,1583442785,,,ES,1,20,female,undergrad,2020_Mar_05_1304,AdjustEyeTrack,3.1.5,59.98762743
104,Stimuli/Morph104.JPG,Stimuli/Morph104.png,Stimuli/BlurLevel5/BlurEditedMorph104,Stimuli/BlurLevel5/BlurEditedMorph104.png,Stimuli/BlurLevel5/NumberedMorphs/BlurEditedMorph104.png,Stimuli/BlurLevel5/OriginalBlur/BlurEditedMorph104.png,Stimuli/BlurMorphTrio/EditedMorph104.png,None,None,,,,,0,0,0,0,0,40,40,103,,,,,,,,,,,,,,,,,,,,,,,80,41,1,109,-0.813920386,2.363796439,104,Experiment,,,,,,,,,87,103,1,1,,,,,,,,,,,,,,,598.9170808,599.6193885,598.9170808,599.6193885,98.63945578,1583442791,1583442794,2.733428001,1583442788,1583442791,,,ES,1,20,female,undergrad,2020_Mar_05_1304,AdjustEyeTrack,3.1.5,59.98762743
115,Stimuli/Morph115.JPG,Stimuli/Morph115.png,Stimuli/BlurLevel5/BlurEditedMorph115,Stimuli/BlurLevel5/BlurEditedMorph115.png,Stimuli/BlurLevel5/NumberedMorphs/BlurEditedMorph115.png,Stimuli/BlurLevel5/OriginalBlur/BlurEditedMorph115.png,Stimuli/BlurMorphTrio/EditedMorph115.png,None,None,,,,,0,0,0,0,0,41,41,114,,,,,,,,,,,,,,,,,,,,,,,36,42,1,311,1.640147572,-1.886773951,115,Experiment,,,,,,,,,105,98,17,17,,,,,,,,,,,,,,,605.1883672,605.9205285,605.1883672,605.9205285,76.8707483,1583442797,1583442799,1.865226984,1583442794,1583442797,,,ES,1,20,female,undergrad,2020_Mar_05_1304,AdjustEyeTrack,3.1.5,59.98762743
133,Stimuli/Morph133.JPG,Stimuli/Morph133.png,Stimuli/BlurLevel5/BlurEditedMorph133,Stimuli/BlurLevel5/BlurEditedMorph133.png,Stimuli/BlurLevel5/NumberedMorphs/BlurEditedMorph133.png,Stimuli/BlurLevel5/OriginalBlur/BlurEditedMorph133.png,Stimuli/BlurMorphTrio/EditedMorph133.png,None,None,,,,,0,0,0,0,0,42,42,132,,,,,,,,,,,,,,,,,,,,,,,94,43,1,270,-4.59E-16,-2.5,133,Experiment,,,,,,,,,146,132,1,1,,,,,,,,,,,,,,,610.7159228,611.4426287,610.7159228,611.4426287,98.63945578,1583442803,1583442811,7.799818993,1583442800,1583442803,,,ES,1,20,female,undergrad,2020_Mar_05_1304,AdjustEyeTrack,3.1.5,59.98762743
60,Stimuli/Morph60.JPG,Stimuli/Morph60.png,Stimuli/BlurLevel5/BlurEditedMorph60,Stimuli/BlurLevel5/BlurEditedMorph60.png,Stimuli/BlurLevel5/NumberedMorphs/BlurEditedMorph60.png,Stimuli/BlurLevel5/OriginalBlur/BlurEditedMorph60.png,Stimuli/BlurMorphTrio/EditedMorph60.png,020200right.gif,Stimuli/normal_thumbnails/60right.gif,,,,,0,0,0,0,0,43,43,59,,,,,,,,,,,,,,,,,,,,,,,82,44,1,306,1.469463131,-2.022542486,60,Experiment,,,,,,,,,61,58,2,2,,,,,,,,,,,,,,,621.9033587,622.6091178,621.9033587,622.6091178,97.27891156,1583442814,1583442819,4.899655819,1583442811,1583442814,,,ES,1,20,female,undergrad,2020_Mar_05_1304,AdjustEyeTrack,3.1.5,59.98762743
61,Stimuli/Morph61.JPG,Stimuli/Morph61.png,Stimuli/BlurLevel5/BlurEditedMorph61,Stimuli/BlurLevel5/BlurEditedMorph61.png,Stimuli/BlurLevel5/NumberedMorphs/BlurEditedMorph61.png,Stimuli/BlurLevel5/OriginalBlur/BlurEditedMorph61.png,Stimuli/BlurMorphTrio/EditedMorph61.png,020201right.gif,Stimuli/normal_thumbnails/61right.gif,,,,,0,0,0,0,0,44,44,60,,,,,,,,,,,,,,,,,,,,,,,72,45,1,315,1.767766953,-1.767766953,61,Experiment,,,,,,,,,78,52,9,9,,,,,,,,,,,,,,,630.1770662,630.8851062,630.1770662,630.8851062,87.75510204,1583442822,1583442824,1.833034039,1583442820,1583442822,,,ES,1,20,female,undergrad,2020_Mar_05_1304,AdjustEyeTrack,3.1.5,59.98762743
118,Stimuli/Morph118.JPG,Stimuli/Morph118.png,Stimuli/BlurLevel5/BlurEditedMorph118,Stimuli/BlurLevel5/BlurEditedMorph118.png,Stimuli/BlurLevel5/NumberedMorphs/BlurEditedMorph118.png,Stimuli/BlurLevel5/OriginalBlur/BlurEditedMorph118.png,Stimuli/BlurMorphTrio/EditedMorph118.png,None,None,,,,,0,0,0,0,0,45,45,117,,,,,,,,,,,,,,,,,,,,,,,48,46,1,268,-0.087248742,-2.498477068,118,Experiment,,,,,,,,,55,113,5,5,,,,,,,,,,,,,,,635.3482645,636.0529235,635.3482645,636.0529235,93.19727891,1583442828,1583442830,1.99931097,1583442825,1583442828,,,ES,1,20,female,undergrad,2020_Mar_05_1304,AdjustEyeTrack,3.1.5,59.98762743
21,Stimuli/Morph21.JPG,Stimuli/Morph21.png,Stimuli/BlurLevel5/BlurEditedMorph21,Stimuli/BlurLevel5/BlurEditedMorph21.png,Stimuli/BlurLevel5/NumberedMorphs/BlurEditedMorph21.png,Stimuli/BlurLevel5/OriginalBlur/BlurEditedMorph21.png,Stimuli/BlurMorphTrio/EditedMorph21.png,010049right.gif,Stimuli/normal_thumbnails/21right.gif,,,,,0,0,0,0,0,46,46,20,,,,,,,,,,,,,,,,,,,,,,,9,47,1,166,-2.425739316,0.604804739,21,Experiment,,,,,,,,,61,17,4,4,,,,,,,,,,,,,,,640.459293,641.1455349,640.459293,641.1455349,94.55782313,1583442833,1583442836,2.916499138,1583442830,1583442833,,,ES,1,20,female,undergrad,2020_Mar_05_1304,AdjustEyeTrack,3.1.5,59.98762743
131,Stimuli/Morph131.JPG,Stimuli/Morph131.png,Stimuli/BlurLevel5/BlurEditedMorph131,Stimuli/BlurLevel5/BlurEditedMorph131.png,Stimuli/BlurLevel5/NumberedMorphs/BlurEditedMorph131.png,Stimuli/BlurLevel5/OriginalBlur/BlurEditedMorph131.png,Stimuli/BlurMorphTrio/EditedMorph131.png,None,None,,,,,0,0,0,0,0,47,47,130,,,,,,,,,,,,,,,,,,,,,,,26,48,1,142,-1.970026884,1.539153688,131,Experiment,,,,,,,,,99,14,117,-30,,,,,,,,,,,,,,,646.654042,647.3514414,646.654042,647.3514414,59.18367347,1583442839,1583442841,2.583374023,1583442836,1583442839,,,ES,1,20,female,undergrad,2020_Mar_05_1304,AdjustEyeTrack,3.1.5,59.98762743
75,Stimuli/Morph75.JPG,Stimuli/Morph75.png,Stimuli/BlurLevel5/BlurEditedMorph75,Stimuli/BlurLevel5/BlurEditedMorph75.png,Stimuli/BlurLevel5/NumberedMorphs/BlurEditedMorph75.png,Stimuli/BlurLevel5/OriginalBlur/BlurEditedMorph75.png,Stimuli/BlurMorphTrio/EditedMorph75.png,020233right.gif,Stimuli/normal_thumbnails/75right.gif,,,,,0,0,0,0,0,48,48,74,,,,,,,,,,,,,,,,,,,,,,,44,49,1,31,2.142918252,1.287595187,75,Experiment,,,,,,,,,102,49,26,26,,,,,,,,,,,,,,,652.6378442,653.3499793,652.6378442,653.3499793,64.62585034,1583442845,1583442848,3.583229065,1583442842,1583442845,,,ES,1,20,female,undergrad,2020_Mar_05_1304,AdjustEyeTrack,3.1.5,59.98762743
132,Stimuli/Morph132.JPG,Stimuli/Morph132.png,Stimuli/BlurLevel5/BlurEditedMorph132,Stimuli/BlurLevel5/BlurEditedMorph132.png,Stimuli/BlurLevel5/NumberedMorphs/BlurEditedMorph132.png,Stimuli/BlurLevel5/OriginalBlur/BlurEditedMorph132.png,Stimuli/BlurMorphTrio/EditedMorph132.png,None,None,,,,,0,0,0,0,0,49,49,131,,,,,,,,,,,,,,,,,,,,,,,11,50,1,79,0.477022488,2.454067959,132,Experiment,,,,,,,,,140,106,26,26,,,,,,,,,,,,,,,659.9263441,660.6585455,659.9263441,660.6585455,64.62585034,1583442852,1583442859,6.548632145,1583442849,1583442852,,,ES,1,20,female,undergrad,2020_Mar_05_1304,AdjustEyeTrack,3.1.5,59.98762743
29,Stimuli/Morph29.JPG,Stimuli/Morph29.png,Stimuli/BlurLevel5/BlurEditedMorph29,Stimuli/BlurLevel5/BlurEditedMorph29.png,Stimuli/BlurLevel5/NumberedMorphs/BlurEditedMorph29.png,Stimuli/BlurLevel5/OriginalBlur/BlurEditedMorph29.png,Stimuli/BlurMorphTrio/EditedMorph29.png,010074right.gif,Stimuli/normal_thumbnails/29right.gif,,,,,0,0,0,0,0,50,50,28,,,,,,,,,,,,,,,,,,,,,,,32,51,1,352,2.475670172,-0.347932752,29,Experiment,,,,,,,,,34,19,10,10,,,,,,,,,,,,,,,670.0052018,670.7050992,670.0052018,670.7050992,86.39455782,1583442862,1583442864,1.511759043,1583442859,1583442862,,,ES,1,20,female,undergrad,2020_Mar_05_1304,AdjustEyeTrack,3.1.5,59.98762743
136,Stimuli/Morph136.JPG,Stimuli/Morph136.png,Stimuli/BlurLevel5/BlurEditedMorph136,Stimuli/BlurLevel5/BlurEditedMorph136.png,Stimuli/BlurLevel5/NumberedMorphs/BlurEditedMorph136.png,Stimuli/BlurLevel5/OriginalBlur/BlurEditedMorph136.png,Stimuli/BlurMorphTrio/EditedMorph136.png,None,None,,,,,0,0,0,0,0,51,51,135,,,,,,,,,,,,,,,,,,,,,,,96,52,1,128,-1.539153688,1.970026884,136,Experiment,,,,,,,,,33,94,42,42,,,,,,,,,,,,,,,675.593825,676.3251531,675.593825,676.3251531,42.85714286,1583442868,1583442871,2.866562843,1583442864,1583442868,,,ES,1,20,female,undergrad,2020_Mar_05_1304,AdjustEyeTrack,3.1.5,59.98762743
54,Stimuli/Morph54.JPG,Stimuli/Morph54.png,Stimuli/BlurLevel5/BlurEditedMorph54,Stimuli/BlurLevel5/BlurEditedMorph54.png,Stimuli/BlurLevel5/NumberedMorphs/BlurEditedMorph54.png,Stimuli/BlurLevel5/OriginalBlur/BlurEditedMorph54.png,Stimuli/BlurMorphTrio/EditedMorph54.png,010150right.gif,Stimuli/normal_thumbnails/54right.gif,,,,,0,0,0,0,0,52,52,53,,,,,,,,,,,,,,,,,,,,,,,20,53,1,333,2.22751631,-1.134976249,54,Experiment,,,,,,,,,138,52,2,2,,,,,,,,,,,,,,,681.9274517,682.6520123,681.9274517,682.6520123,97.27891156,1583442874,1583442877,2.696891785,1583442871,1583442874,,,ES,1,20,female,undergrad,2020_Mar_05_1304,AdjustEyeTrack,3.1.5,59.98762743
88,Stimuli/Morph88.JPG,Stimuli/Morph88.png,Stimuli/BlurLevel5/BlurEditedMorph88,Stimuli/BlurLevel5/BlurEditedMorph88.png,Stimuli/BlurLevel5/NumberedMorphs/BlurEditedMorph88.png,Stimuli/BlurLevel5/OriginalBlur/BlurEditedMorph88.png,Stimuli/BlurMorphTrio/EditedMorph88.png,020271right.gif,Stimuli/normal_thumbnails/88right.gif,,,,,0,0,0,0,0,53,53,87,,,,,,,,,,,,,,,,,,,,,,,71,54,1,278,0.347932752,-2.475670172,88,Experiment,,,,,,,,,61,76,12,12,,,,,,,,,,,,,,,687.9265762,688.6330422,687.9265762,688.6330422,83.67346939,1583442880,1583442883,3.117847919,1583442877,1583442880,,,ES,1,20,female,undergrad,2020_Mar_05_1304,AdjustEyeTrack,3.1.5,59.98762743
70,Stimuli/Morph70.JPG,Stimuli/Morph70.png,Stimuli/BlurLevel5/BlurEditedMorph70,Stimuli/BlurLevel5/BlurEditedMorph70.png,Stimuli/BlurLevel5/NumberedMorphs/BlurEditedMorph70.png,Stimuli/BlurLevel5/OriginalBlur/BlurEditedMorph70.png,Stimuli/BlurMorphTrio/EditedMorph70.png,020221right.gif,Stimuli/normal_thumbnails/70right.gif,,,,,0,0,0,0,0,54,54,69,,,,,,,,,,,,,,,,,,,,,,,55,55,1,0,2.5,0,70,Experiment,,,,,,,,,143,40,30,30,,,,,,,,,,,,,,,694.4048701,695.1039066,694.4048701,695.1039066,59.18367347,1583442887,1583442889,2.731642246,1583442884,1583442887,,,ES,1,20,female,undergrad,2020_Mar_05_1304,AdjustEyeTrack,3.1.5,59.98762743
99,Stimuli/Morph99.JPG,Stimuli/Morph99.png,Stimuli/BlurLevel5/BlurEditedMorph99,Stimuli/BlurLevel5/BlurEditedMorph99.png,Stimuli/BlurLevel5/NumberedMorphs/BlurEditedMorph99.png,Stimuli/BlurLevel5/OriginalBlur/BlurEditedMorph99.png,Stimuli/BlurMorphTrio/EditedMorph99.png,020299right.gif,Stimuli/normal_thumbnails/99right.gif,,,,,0,0,0,0,0,55,55,98,,,,,,,,,,,,,,,,,,,,,,,89,56,1,160,-2.349231552,0.855050358,99,Experiment,,,,,,,,,29,106,-7,-7,,,,,,,,,,,,,,,700.5155378,701.2159506,700.5155378,701.2159506,90.47619048,1583442893,1583442895,2.067094088,1583442890,1583442893,,,ES,1,20,female,undergrad,2020_Mar_05_1304,AdjustEyeTrack,3.1.5,59.98762743
134,Stimuli/Morph134.JPG,Stimuli/Morph134.png,Stimuli/BlurLevel5/BlurEditedMorph134,Stimuli/BlurLevel5/BlurEditedMorph134.png,Stimuli/BlurLevel5/NumberedMorphs/BlurEditedMorph134.png,Stimuli/BlurLevel5/OriginalBlur/BlurEditedMorph134.png,Stimuli/BlurMorphTrio/EditedMorph134.png,None,None,,,,,0,0,0,0,0,56,56,133,,,,,,,,,,,,,,,,,,,,,,,78,57,1,90,1.53E-16,2.5,134,Experiment,,,,,,,,,100,94,40,40,,,,,,,,,,,,,,,705.7919242,706.4828573,705.7919242,706.4828573,45.57823129,1583442898,1583442902,3.716368914,1583442895,1583442898,,,ES,1,20,female,undergrad,2020_Mar_05_1304,AdjustEyeTrack,3.1.5,59.98762743
73,Stimuli/Morph73.JPG,Stimuli/Morph73.png,Stimuli/BlurLevel5/BlurEditedMorph73,Stimuli/BlurLevel5/BlurEditedMorph73.png,Stimuli/BlurLevel5/NumberedMorphs/BlurEditedMorph73.png,Stimuli/BlurLevel5/OriginalBlur/BlurEditedMorph73.png,Stimuli/BlurMorphTrio/EditedMorph73.png,020230right.gif,Stimuli/normal_thumbnails/73right.gif,,,,,0,0,0,0,0,57,57,72,,,,,,,,,,,,,,,,,,,,,,,97,58,1,200,-2.349231552,-0.855050358,73,Experiment,,,,,,,,,57,78,-5,-5,,,,,,,,,,,,,,,712.994145,713.6990502,712.994145,713.6990502,93.19727891,1583442905,1583442908,2.499243021,1583442902,1583442905,,,ES,1,20,female,undergrad,2020_Mar_05_1304,AdjustEyeTrack,3.1.5,59.98762743
111,Stimuli/Morph111.JPG,Stimuli/Morph111.png,Stimuli/BlurLevel5/BlurEditedMorph111,Stimuli/BlurLevel5/BlurEditedMorph111.png,Stimuli/BlurLevel5/NumberedMorphs/BlurEditedMorph111.png,Stimuli/BlurLevel5/OriginalBlur/BlurEditedMorph111.png,Stimuli/BlurMorphTrio/EditedMorph111.png,None,None,,,,,0,0,0,0,0,58,58,110,,,,,,,,,,,,,,,,,,,,,,,4,59,1,181,-2.499619238,-0.043631016,111,Experiment,,,,,,,,,101,107,4,4,,,,,,,,,,,,,,,719.1029155,719.8409305,719.1029155,719.8409305,94.55782313,1583442911,1583442913,2.068316221,1583442908,1583442911,,,ES,1,20,female,undergrad,2020_Mar_05_1304,AdjustEyeTrack,3.1.5,59.98762743
140,Stimuli/Morph140.JPG,Stimuli/Morph140.png,Stimuli/BlurLevel5/BlurEditedMorph140,Stimuli/BlurLevel5/BlurEditedMorph140.png,Stimuli/BlurLevel5/NumberedMorphs/BlurEditedMorph140.png,Stimuli/BlurLevel5/OriginalBlur/BlurEditedMorph140.png,Stimuli/BlurMorphTrio/EditedMorph140.png,None,None,,,,,0,0,0,0,0,59,59,139,,,,,,,,,,,,,,,,,,,,,,,84,60,1,56,1.397982259,2.072593931,140,Experiment,,,,,,,,,144,101,39,39,,,,,,,,,,,,,,,724.5021397,725.1932964,724.5021397,725.1932964,46.93877551,1583442917,1583442923,6.718863964,1583442914,1583442917,,,ES,1,20,female,undergrad,2020_Mar_05_1304,AdjustEyeTrack,3.1.5,59.98762743
96,Stimuli/Morph96.JPG,Stimuli/Morph96.png,Stimuli/BlurLevel5/BlurEditedMorph96,Stimuli/BlurLevel5/BlurEditedMorph96.png,Stimuli/BlurLevel5/NumberedMorphs/BlurEditedMorph96.png,Stimuli/BlurLevel5/OriginalBlur/BlurEditedMorph96.png,Stimuli/BlurMorphTrio/EditedMorph96.png,020292right.gif,Stimuli/normal_thumbnails/96right.gif,,,,,0,0,0,0,0,60,60,95,,,,,,,,,,,,,,,,,,,,,,,41,61,1,336,2.283863644,-1.016841608,96,Experiment,,,,,,,,,96,95,1,1,,,,,,,,,,,,,,,734.5883345,735.3159041,734.5883345,735.3159041,98.63945578,1583442927,1583442929,2.531152964,1583442924,1583442927,,,ES,1,20,female,undergrad,2020_Mar_05_1304,AdjustEyeTrack,3.1.5,59.98762743
6,Stimuli/Morph6.JPG,Stimuli/Morph6.png,Stimuli/BlurLevel5/BlurEditedMorph6,Stimuli/BlurLevel5/BlurEditedMorph6.png,Stimuli/BlurLevel5/NumberedMorphs/BlurEditedMorph6.png,Stimuli/BlurLevel5/OriginalBlur/BlurEditedMorph6.png,Stimuli/BlurMorphTrio/EditedMorph6.png,010012right.gif,Stimuli/normal_thumbnails/6right.gif,,,,,0,0,0,0,0,61,61,5,,,,,,,,,,,,,,,,,,,,,,,66,62,1,310,1.606969024,-1.915111108,6,Experiment,,,,,,,,,85,21,-15,-15,,,,,,,,,,,,,,,740.4715666,741.1763106,740.4715666,741.1763106,79.59183673,1583442933,1583442936,3.234736204,1583442930,1583442933,,,ES,1,20,female,undergrad,2020_Mar_05_1304,AdjustEyeTrack,3.1.5,59.98762743
106,Stimuli/Morph106.JPG,Stimuli/Morph106.png,Stimuli/BlurLevel5/BlurEditedMorph106,Stimuli/BlurLevel5/BlurEditedMorph106.png,Stimuli/BlurLevel5/NumberedMorphs/BlurEditedMorph106.png,Stimuli/BlurLevel5/OriginalBlur/BlurEditedMorph106.png,Stimuli/BlurMorphTrio/EditedMorph106.png,None,None,,,,,0,0,0,0,0,62,62,105,,,,,,,,,,,,,,,,,,,,,,,44,63,1,319,1.886773951,-1.640147572,106,Experiment,,,,,,,,,63,109,-3,-3,,,,,,,,,,,,,,,747.1445536,747.8658646,747.1445536,747.8658646,95.91836735,1583442939,1583442941,2.050230026,1583442936,1583442939,,,ES,1,20,female,undergrad,2020_Mar_05_1304,AdjustEyeTrack,3.1.5,59.98762743
31,Stimuli/Morph31.JPG,Stimuli/Morph31.png,Stimuli/BlurLevel5/BlurEditedMorph31,Stimuli/BlurLevel5/BlurEditedMorph31.png,Stimuli/BlurLevel5/NumberedMorphs/BlurEditedMorph31.png,Stimuli/BlurLevel5/OriginalBlur/BlurEditedMorph31.png,Stimuli/BlurMorphTrio/EditedMorph31.png,010079right.gif,Stimuli/normal_thumbnails/31right.gif,,,,,0,0,0,0,0,63,63,30,,,,,,,,,,,,,,,,,,,,,,,1,64,1,82,0.347932752,2.475670172,31,Experiment,,,,,,,,,121,24,7,7,,,,,,,,,,,,,,,752.0511659,752.7036755,752.0511659,752.7036755,90.47619048,1583442944,1583442947,2.531355143,1583442942,1583442944,,,ES,1,20,female,undergrad,2020_Mar_05_1304,AdjustEyeTrack,3.1.5,59.98762743
27,Stimuli/Morph27.JPG,Stimuli/Morph27.png,Stimuli/BlurLevel5/BlurEditedMorph27,Stimuli/BlurLevel5/BlurEditedMorph27.png,Stimuli/BlurLevel5/NumberedMorphs/BlurEditedMorph27.png,Stimuli/BlurLevel5/OriginalBlur/BlurEditedMorph27.png,Stimuli/BlurMorphTrio/EditedMorph27.png,010072right.gif,Stimuli/normal_thumbnails/27right.gif,,,,,0,0,0,0,0,64,64,26,,,,,,,,,,,,,,,,,,,,,,,44,65,1,167,-2.435925162,0.562377636,27,Experiment,,,,,,,,,140,16,11,11,,,,,,,,,,,,,,,757.8004439,758.5171508,757.8004439,758.5171508,85.03401361,1583442950,1583442954,3.930983067,1583442947,1583442950,,,ES,1,20,female,undergrad,2020_Mar_05_1304,AdjustEyeTrack,3.1.5,59.98762743
146,Stimuli/Morph146.JPG,Stimuli/Morph146.png,Stimuli/BlurLevel5/BlurEditedMorph146,Stimuli/BlurLevel5/BlurEditedMorph146.png,Stimuli/BlurLevel5/NumberedMorphs/BlurEditedMorph146.png,Stimuli/BlurLevel5/OriginalBlur/BlurEditedMorph146.png,Stimuli/BlurMorphTrio/EditedMorph146.png,None,None,,,,,0,0,0,0,0,65,65,145,,,,,,,,,,,,,,,,,,,,,,,49,66,1,352,2.475670172,-0.347932752,146,Experiment,,,,,,,,,125,3,143,-4,,,,,,,,,,,,,,,765.1790743,765.8854378,765.1790743,765.8854378,94.55782313,1583442957,1583442960,2.612188101,1583442955,1583442957,,,ES,1,20,female,undergrad,2020_Mar_05_1304,AdjustEyeTrack,3.1.5,59.98762743
23,Stimuli/Morph23.JPG,Stimuli/Morph23.png,Stimuli/BlurLevel5/BlurEditedMorph23,Stimuli/BlurLevel5/BlurEditedMorph23.png,Stimuli/BlurLevel5/NumberedMorphs/BlurEditedMorph23.png,Stimuli/BlurLevel5/OriginalBlur/BlurEditedMorph23.png,Stimuli/BlurMorphTrio/EditedMorph23.png,010063right.gif,Stimuli/normal_thumbnails/23right.gif,,,,,0,0,0,0,0,66,66,22,,,,,,,,,,,,,,,,,,,,,,,73,67,1,194,-2.425739316,-0.604804739,23,Experiment,,,,,,,,,45,11,12,12,,,,,,,,,,,,,,,771.1442873,771.8488725,771.1442873,771.8488725,83.67346939,1583442963,1583442967,3.581374884,1583442961,1583442963,,,ES,1,20,female,undergrad,2020_Mar_05_1304,AdjustEyeTrack,3.1.5,59.98762743
74,Stimuli/Morph74.JPG,Stimuli/Morph74.png,Stimuli/BlurLevel5/BlurEditedMorph74,Stimuli/BlurLevel5/BlurEditedMorph74.png,Stimuli/BlurLevel5/NumberedMorphs/BlurEditedMorph74.png,Stimuli/BlurLevel5/OriginalBlur/BlurEditedMorph74.png,Stimuli/BlurMorphTrio/EditedMorph74.png,020232right.gif,Stimuli/normal_thumbnails/74right.gif,,,,,0,0,0,0,0,67,67,73,,,,,,,,,,,,,,,,,,,,,,,51,68,1,186,-2.486304738,-0.261321158,74,Experiment,,,,,,,,,77,103,-29,-29,,,,,,,,,,,,,,,778.2497812,778.9584681,778.2497812,778.9584681,60.54421769,1583442971,1583442972,1.134427309,1583442967,1583442970,,,ES,1,20,female,undergrad,2020_Mar_05_1304,AdjustEyeTrack,3.1.5,59.98762743
41,Stimuli/Morph41.JPG,Stimuli/Morph41.png,Stimuli/BlurLevel5/BlurEditedMorph41,Stimuli/BlurLevel5/BlurEditedMorph41.png,Stimuli/BlurLevel5/NumberedMorphs/BlurEditedMorph41.png,Stimuli/BlurLevel5/OriginalBlur/BlurEditedMorph41.png,Stimuli/BlurMorphTrio/EditedMorph41.png,010112right.gif,Stimuli/normal_thumbnails/41right.gif,,,,,0,0,0,0,0,68,68,40,,,,,,,,,,,,,,,,,,,,,,,27,69,1,272,0.087248742,-2.498477068,41,Experiment,,,,,,,,,101,106,-65,-65,,,,,,,,,,,,,,,782.9100228,783.6673651,782.9100228,783.6673651,11.56462585,1583442975,1583442983,8.100087643,1583442972,1583442975,,,ES,1,20,female,undergrad,2020_Mar_05_1304,AdjustEyeTrack,3.1.5,59.98762743
13,Stimuli/Morph13.JPG,Stimuli/Morph13.png,Stimuli/BlurLevel5/BlurEditedMorph13,Stimuli/BlurLevel5/BlurEditedMorph13.png,Stimuli/BlurLevel5/NumberedMorphs/BlurEditedMorph13.png,Stimuli/BlurLevel5/OriginalBlur/BlurEditedMorph13.png,Stimuli/BlurMorphTrio/EditedMorph13.png,010027right.gif,Stimuli/normal_thumbnails/13right.gif,,,,,0,0,0,0,0,69,69,12,,,,,,,,,,,,,,,,,,,,,,,96,70,1,138,-1.857862064,1.672826516,13,Experiment,,,,,,,,,82,14,-1,-1,,,,,,,,,,,,,,,794.9288575,795.6605209,794.9288575,795.6605209,98.63945578,1583442987,1583442991,3.500123739,1583442984,1583442987,,,ES,1,20,female,undergrad,2020_Mar_05_1304,AdjustEyeTrack,3.1.5,59.98762743
139,Stimuli/Morph139.JPG,Stimuli/Morph139.png,Stimuli/BlurLevel5/BlurEditedMorph139,Stimuli/BlurLevel5/BlurEditedMorph139.png,Stimuli/BlurLevel5/NumberedMorphs/BlurEditedMorph139.png,Stimuli/BlurLevel5/OriginalBlur/BlurEditedMorph139.png,Stimuli/BlurMorphTrio/EditedMorph139.png,None,None,,,,,0,0,0,0,0,70,70,138,,,,,,,,,,,,,,,,,,,,,,,47,71,1,39,1.942864904,1.573300978,139,Experiment,,,,,,,,,131,21,118,-29,,,,,,,,,,,,,,,802.1574189,802.8908476,802.1574189,802.8908476,60.54421769,1583442994,1583442996,1.880703926,1583442991,1583442994,,,ES,1,20,female,undergrad,2020_Mar_05_1304,AdjustEyeTrack,3.1.5,59.98762743
89,Stimuli/Morph89.JPG,Stimuli/Morph89.png,Stimuli/BlurLevel5/BlurEditedMorph89,Stimuli/BlurLevel5/BlurEditedMorph89.png,Stimuli/BlurLevel5/NumberedMorphs/BlurEditedMorph89.png,Stimuli/BlurLevel5/OriginalBlur/BlurEditedMorph89.png,Stimuli/BlurMorphTrio/EditedMorph89.png,020273right.gif,Stimuli/normal_thumbnails/89right.gif,,,,,0,0,0,0,0,71,71,88,,,,,,,,,,,,,,,,,,,,,,,27,72,1,346,2.425739316,-0.604804739,89,Experiment,,,,,,,,,14,101,-12,-12,,,,,,,,,,,,,,,807.6101095,808.3238538,807.6101095,808.3238538,83.67346939,1583443000,1583443003,3.101608038,1583442997,1583443000,,,ES,1,20,female,undergrad,2020_Mar_05_1304,AdjustEyeTrack,3.1.5,59.98762743
20,Stimuli/Morph20.JPG,Stimuli/Morph20.png,Stimuli/BlurLevel5/BlurEditedMorph20,Stimuli/BlurLevel5/BlurEditedMorph20.png,Stimuli/BlurLevel5/NumberedMorphs/BlurEditedMorph20.png,Stimuli/BlurLevel5/OriginalBlur/BlurEditedMorph20.png,Stimuli/BlurMorphTrio/EditedMorph20.png,010046right.gif,Stimuli/normal_thumbnails/20right.gif,,,,,0,0,0,0,0,72,72,19,,,,,,,,,,,,,,,,,,,,,,,24,73,1,53,1.504537558,1.996588775,20,Experiment,,,,,,,,,8,13,7,7,,,,,,,,,,,,,,,814.1386643,814.8534375,814.1386643,814.8534375,90.47619048,1583443006,1583443009,2.432600737,1583443004,1583443006,,,ES,1,20,female,undergrad,2020_Mar_05_1304,AdjustEyeTrack,3.1.5,59.98762743
19,Stimuli/Morph19.JPG,Stimuli/Morph19.png,Stimuli/BlurLevel5/BlurEditedMorph19,Stimuli/BlurLevel5/BlurEditedMorph19.png,Stimuli/BlurLevel5/NumberedMorphs/BlurEditedMorph19.png,Stimuli/BlurLevel5/OriginalBlur/BlurEditedMorph19.png,Stimuli/BlurMorphTrio/EditedMorph19.png,010045right.gif,Stimuli/normal_thumbnails/19right.gif,,,,,0,0,0,0,0,73,73,18,,,,,,,,,,,,,,,,,,,,,,,61,74,1,24,2.283863644,1.016841608,19,Experiment,,,,,,,,,125,144,-125,22,,,,,,,,,,,,,,,820.1955051,820.9251664,820.1955051,820.9251664,70.06802721,1583443012,1583443015,2.620133877,1583443009,1583443012,,,ES,1,20,female,undergrad,2020_Mar_05_1304,AdjustEyeTrack,3.1.5,59.98762743
76,Stimuli/Morph76.JPG,Stimuli/Morph76.png,Stimuli/BlurLevel5/BlurEditedMorph76,Stimuli/BlurLevel5/BlurEditedMorph76.png,Stimuli/BlurLevel5/NumberedMorphs/BlurEditedMorph76.png,Stimuli/BlurLevel5/OriginalBlur/BlurEditedMorph76.png,Stimuli/BlurMorphTrio/EditedMorph76.png,020234right.gif,Stimuli/normal_thumbnails/76right.gif,,,,,0,0,0,0,0,74,74,75,,,,,,,,,,,,,,,,,,,,,,,82,75,1,22,2.317959636,0.936516484,76,Experiment,,,,,,,,,146,98,-22,-22,,,,,,,,,,,,,,,826.2856181,826.9980985,826.2856181,826.9980985,70.06802721,1583443019,1583443021,2.902966976,1583443016,1583443019,,,ES,1,20,female,undergrad,2020_Mar_05_1304,AdjustEyeTrack,3.1.5,59.98762743
84,Stimuli/Morph84.JPG,Stimuli/Morph84.png,Stimuli/BlurLevel5/BlurEditedMorph84,Stimuli/BlurLevel5/BlurEditedMorph84.png,Stimuli/BlurLevel5/NumberedMorphs/BlurEditedMorph84.png,Stimuli/BlurLevel5/OriginalBlur/BlurEditedMorph84.png,Stimuli/BlurMorphTrio/EditedMorph84.png,020261right.gif,Stimuli/normal_thumbnails/84right.gif,,,,,0,0,0,0,0,75,75,83,,,,,,,,,,,,,,,,,,,,,,,31,76,1,172,-2.475670172,0.347932752,84,Experiment,,,,,,,,,59,92,-8,-8,,,,,,,,,,,,,,,832.6604328,833.3687793,832.6604328,833.3687793,89.11564626,1583443025,1583443028,2.634424925,1583443022,1583443025,,,ES,1,20,female,undergrad,2020_Mar_05_1304,AdjustEyeTrack,3.1.5,59.98762743
8,Stimuli/Morph8.JPG,Stimuli/Morph8.png,Stimuli/BlurLevel5/BlurEditedMorph8,Stimuli/BlurLevel5/BlurEditedMorph8.png,Stimuli/BlurLevel5/NumberedMorphs/BlurEditedMorph8.png,Stimuli/BlurLevel5/OriginalBlur/BlurEditedMorph8.png,Stimuli/BlurMorphTrio/EditedMorph8.png,010014right.gif,Stimuli/normal_thumbnails/8right.gif,,,,,0,0,0,0,0,76,76,7,,,,,,,,,,,,,,,,,,,,,,,78,77,1,271,0.043631016,-2.499619238,8,Experiment,,,,,,,,,83,21,-13,-13,,,,,,,,,,,,,,,838.5689028,839.2665735,838.5689028,839.2665735,82.31292517,1583443031,1583443034,2.984542847,1583443028,1583443031,,,ES,1,20,female,undergrad,2020_Mar_05_1304,AdjustEyeTrack,3.1.5,59.98762743
120,Stimuli/Morph120.JPG,Stimuli/Morph120.png,Stimuli/BlurLevel5/BlurEditedMorph120,Stimuli/BlurLevel5/BlurEditedMorph120.png,Stimuli/BlurLevel5/NumberedMorphs/BlurEditedMorph120.png,Stimuli/BlurLevel5/OriginalBlur/BlurEditedMorph120.png,Stimuli/BlurMorphTrio/EditedMorph120.png,None,None,,,,,0,0,0,0,0,77,77,119,,,,,,,,,,,,,,,,,,,,,,,8,78,1,189,-2.469220851,-0.391086163,120,Experiment,,,,,,,,,92,92,28,28,,,,,,,,,,,,,,,845.0311698,845.7530468,845.0311698,845.7530468,61.9047619,1583443037,1583443038,0.986760139,1583443034,1583443037,,,ES,1,20,female,undergrad,2020_Mar_05_1304,AdjustEyeTrack,3.1.5,59.98762743
57,Stimuli/Morph57.JPG,Stimuli/Morph57.png,Stimuli/BlurLevel5/BlurEditedMorph57,Stimuli/BlurLevel5/BlurEditedMorph57.png,Stimuli/BlurLevel5/NumberedMorphs/BlurEditedMorph57.png,Stimuli/BlurLevel5/OriginalBlur/BlurEditedMorph57.png,Stimuli/BlurMorphTrio/EditedMorph57.png,010158right.gif,Stimuli/normal_thumbnails/57right.gif,,,,,0,0,0,0,0,78,78,56,,,,,,,,,,,,,,,,,,,,,,,39,79,1,323,1.996588775,-1.504537558,57,Experiment,,,,,,,,,110,55,2,2,,,,,,,,,,,,,,,849.5216368,850.2344812,849.5216368,850.2344812,97.27891156,1583443042,1583443044,2.582757711,1583443039,1583443042,,,ES,1,20,female,undergrad,2020_Mar_05_1304,AdjustEyeTrack,3.1.5,59.98762743
103,Stimuli/Morph103.JPG,Stimuli/Morph103.png,Stimuli/BlurLevel5/BlurEditedMorph103,Stimuli/BlurLevel5/BlurEditedMorph103.png,Stimuli/BlurLevel5/NumberedMorphs/BlurEditedMorph103.png,Stimuli/BlurLevel5/OriginalBlur/BlurEditedMorph103.png,Stimuli/BlurMorphTrio/EditedMorph103.png,None,None,,,,,0,0,0,0,0,79,79,102,,,,,,,,,,,,,,,,,,,,,,,87,80,1,150,-2.165063509,1.25,103,Experiment,,,,,,,,,81,102,1,1,,,,,,,,,,,,,,,855.523053,856.2248693,855.523053,856.2248693,98.63945578,1583443048,1583443050,1.901334047,1583443045,1583443048,,,ES,1,20,female,undergrad,2020_Mar_05_1304,AdjustEyeTrack,3.1.5,59.98762743
30,Stimuli/Morph30.JPG,Stimuli/Morph30.png,Stimuli/BlurLevel5/BlurEditedMorph30,Stimuli/BlurLevel5/BlurEditedMorph30.png,Stimuli/BlurLevel5/NumberedMorphs/BlurEditedMorph30.png,Stimuli/BlurLevel5/OriginalBlur/BlurEditedMorph30.png,Stimuli/BlurMorphTrio/EditedMorph30.png,010076right.gif,Stimuli/normal_thumbnails/30right.gif,,,,,0,0,0,0,0,80,80,29,,,,,,,,,,,,,,,,,,,,,,,74,81,1,139,-1.886773951,1.640147572,30,Experiment,,,,,,,,,99,29,1,1,,,,,,,,,,,,,,,860.911987,861.6154733,860.911987,861.6154733,98.63945578,1583443053,1583443056,3.147105217,1583443050,1583443053,,,ES,1,20,female,undergrad,2020_Mar_05_1304,AdjustEyeTrack,3.1.5,59.98762743
125,Stimuli/Morph125.JPG,Stimuli/Morph125.png,Stimuli/BlurLevel5/BlurEditedMorph125,Stimuli/BlurLevel5/BlurEditedMorph125.png,Stimuli/BlurLevel5/NumberedMorphs/BlurEditedMorph125.png,Stimuli/BlurLevel5/OriginalBlur/BlurEditedMorph125.png,Stimuli/BlurMorphTrio/EditedMorph125.png,None,None,,,,,0,0,0,0,0,81,81,124,,,,,,,,,,,,,,,,,,,,,,,84,82,1,88,0.087248742,2.498477068,125,Experiment,,,,,,,,,95,106,19,19,,,,,,,,,,,,,,,867.3794846,868.074981,867.3794846,868.074981,74.14965986,1583443060,1583443063,3.300367117,1583443057,1583443060,,,ES,1,20,female,undergrad,2020_Mar_05_1304,AdjustEyeTrack,3.1.5,59.98762743
107,Stimuli/Morph107.JPG,Stimuli/Morph107.png,Stimuli/BlurLevel5/BlurEditedMorph107,Stimuli/BlurLevel5/BlurEditedMorph107.png,Stimuli/BlurLevel5/NumberedMorphs/BlurEditedMorph107.png,Stimuli/BlurLevel5/OriginalBlur/BlurEditedMorph107.png,Stimuli/BlurMorphTrio/EditedMorph107.png,None,None,,,,,0,0,0,0,0,82,82,106,,,,,,,,,,,,,,,,,,,,,,,62,83,1,320,1.915111108,-1.606969024,107,Experiment,,,,,,,,,56,104,3,3,,,,,,,,,,,,,,,874.1530337,874.8803194,874.1530337,874.8803194,95.91836735,1583443066,1583443068,1.984071732,1583443063,1583443066,,,ES,1,20,female,undergrad,2020_Mar_05_1304,AdjustEyeTrack,3.1.5,59.98762743
52,Stimuli/Morph52.JPG,Stimuli/Morph52.png,Stimuli/BlurLevel5/BlurEditedMorph52,Stimuli/BlurLevel5/BlurEditedMorph52.png,Stimuli/BlurLevel5/NumberedMorphs/BlurEditedMorph52.png,Stimuli/BlurLevel5/OriginalBlur/BlurEditedMorph52.png,Stimuli/BlurMorphTrio/EditedMorph52.png,010148right.gif,Stimuli/normal_thumbnails/52right.gif,,,,,0,0,0,0,0,83,83,51,,,,,,,,,,,,,,,,,,,,,,,41,84,1,265,-0.217889357,-2.490486745,52,Experiment,,,,,,,,,38,52,0,0,,,,,,,,,,,,,,,879.5796189,880.3022629,879.5796189,880.3022629,100,1583443072,1583443074,1.93482995,1583443069,1583443072,,,ES,1,20,female,undergrad,2020_Mar_05_1304,AdjustEyeTrack,3.1.5,59.98762743
55,Stimuli/Morph55.JPG,Stimuli/Morph55.png,Stimuli/BlurLevel5/BlurEditedMorph55,Stimuli/BlurLevel5/BlurEditedMorph55.png,Stimuli/BlurLevel5/NumberedMorphs/BlurEditedMorph55.png,Stimuli/BlurLevel5/OriginalBlur/BlurEditedMorph55.png,Stimuli/BlurMorphTrio/EditedMorph55.png,010151right.gif,Stimuli/normal_thumbnails/55right.gif,,,,,0,0,0,0,0,84,84,54,,,,,,,,,,,,,,,,,,,,,,,58,85,1,79,0.477022488,2.454067959,55,Experiment,,,,,,,,,134,53,2,2,,,,,,,,,,,,,,,884.8969051,885.6143918,884.8969051,885.6143918,97.27891156,1583443077,1583443081,3.371288061,1583443074,1583443077,,,ES,1,20,female,undergrad,2020_Mar_05_1304,AdjustEyeTrack,3.1.5,59.98762743
146,Stimuli/Morph146.JPG,Stimuli/Morph146.png,Stimuli/BlurLevel5/BlurEditedMorph146,Stimuli/BlurLevel5/BlurEditedMorph146.png,Stimuli/BlurLevel5/NumberedMorphs/BlurEditedMorph146.png,Stimuli/BlurLevel5/OriginalBlur/BlurEditedMorph146.png,Stimuli/BlurMorphTrio/EditedMorph146.png,None,None,,,,,1,0,1,0,0,0,0,145,,,,,,,,,,,,,,,,,,,,,,,28,1,2,303,1.361597588,-2.09667642,146,Experiment,,,,,,,,,13,146,0,0,,,,,,,,,,,,,,,996.8921166,997.6140623,996.8921166,997.6140623,100,1583443189,1583443193,3.736771822,1583443186,1583443189,space,104.4178248,ES,1,20,female,undergrad,2020_Mar_05_1304,AdjustEyeTrack,3.1.5,59.98762743
121,Stimuli/Morph121.JPG,Stimuli/Morph121.png,Stimuli/BlurLevel5/BlurEditedMorph121,Stimuli/BlurLevel5/BlurEditedMorph121.png,Stimuli/BlurLevel5/NumberedMorphs/BlurEditedMorph121.png,Stimuli/BlurLevel5/OriginalBlur/BlurEditedMorph121.png,Stimuli/BlurMorphTrio/EditedMorph121.png,None,None,,,,,1,0,1,0,0,1,1,120,,,,,,,,,,,,,,,,,,,,,,,26,2,2,302,1.324798161,-2.12012024,121,Experiment,,,,,,,,,43,103,18,18,,,,,,,,,,,,,,,1003.989985,1004.681357,1003.989985,1004.681357,75.51020408,1583443196,1583443200,3.820362806,1583443193,1583443196,,,ES,1,20,female,undergrad,2020_Mar_05_1304,AdjustEyeTrack,3.1.5,59.98762743
115,Stimuli/Morph115.JPG,Stimuli/Morph115.png,Stimuli/BlurLevel5/BlurEditedMorph115,Stimuli/BlurLevel5/BlurEditedMorph115.png,Stimuli/BlurLevel5/NumberedMorphs/BlurEditedMorph115.png,Stimuli/BlurLevel5/OriginalBlur/BlurEditedMorph115.png,Stimuli/BlurMorphTrio/EditedMorph115.png,None,None,,,,,1,0,1,0,0,2,2,114,,,,,,,,,,,,,,,,,,,,,,,80,3,2,132,-1.672826516,1.857862064,115,Experiment,,,,,,,,,104,100,15,15,,,,,,,,,,,,,,,1011.07734,1011.764371,1011.07734,1011.764371,79.59183673,1583443203,1583443205,1.566883087,1583443201,1583443203,,,ES,1,20,female,undergrad,2020_Mar_05_1304,AdjustEyeTrack,3.1.5,59.98762743
47,Stimuli/Morph47.JPG,Stimuli/Morph47.png,Stimuli/BlurLevel5/BlurEditedMorph47,Stimuli/BlurLevel5/BlurEditedMorph47.png,Stimuli/BlurLevel5/NumberedMorphs/BlurEditedMorph47.png,Stimuli/BlurLevel5/OriginalBlur/BlurEditedMorph47.png,Stimuli/BlurMorphTrio/EditedMorph47.png,010130right.gif,Stimuli/normal_thumbnails/47right.gif,,,,,1,0,1,0,0,3,3,46,,,,,,,,,,,,,,,,,,,,,,,9,4,2,262,-0.347932752,-2.475670172,47,Experiment,,,,,,,,,36,52,-5,-5,,,,,,,,,,,,,,,1015.750668,1016.445403,1015.750668,1016.445403,93.19727891,1583443208,1583443210,2.380088091,1583443205,1583443208,,,ES,1,20,female,undergrad,2020_Mar_05_1304,AdjustEyeTrack,3.1.5,59.98762743
147,Stimuli/Morph147.JPG,Stimuli/Morph147.png,Stimuli/BlurLevel5/BlurEditedMorph147,Stimuli/BlurLevel5/BlurEditedMorph147.png,Stimuli/BlurLevel5/NumberedMorphs/BlurEditedMorph147.png,Stimuli/BlurLevel5/OriginalBlur/BlurEditedMorph147.png,Stimuli/BlurMorphTrio/EditedMorph147.png,None,None,,,,,1,0,1,0,0,4,4,146,,,,,,,,,,,,,,,,,,,,,,,43,5,2,227,-1.7049959,-1.828384254,147,Experiment,,,,,,,,,53,103,44,44,,,,,,,,,,,,,,,1021.528905,1022.229452,1021.528905,1022.229452,40.13605442,1583443214,1583443218,4.234316111,1583443211,1583443214,,,ES,1,20,female,undergrad,2020_Mar_05_1304,AdjustEyeTrack,3.1.5,59.98762743
102,Stimuli/Morph102.JPG,Stimuli/Morph102.png,Stimuli/BlurLevel5/BlurEditedMorph102,Stimuli/BlurLevel5/BlurEditedMorph102.png,Stimuli/BlurLevel5/NumberedMorphs/BlurEditedMorph102.png,Stimuli/BlurLevel5/OriginalBlur/BlurEditedMorph102.png,Stimuli/BlurMorphTrio/EditedMorph102.png,None,None,,,,,1,0,1,0,0,5,5,101,,,,,,,,,,,,,,,,,,,,,,,27,6,2,43,1.828384254,1.7049959,102,Experiment,,,,,,,,,130,107,-5,-5,,,,,,,,,,,,,,,1029.2478,1029.956549,1029.2478,1029.956549,93.19727891,1583443222,1583443223,1.719813108,1583443219,1583443221,,,ES,1,20,female,undergrad,2020_Mar_05_1304,AdjustEyeTrack,3.1.5,59.98762743
60,Stimuli/Morph60.JPG,Stimuli/Morph60.png,Stimuli/BlurLevel5/BlurEditedMorph60,Stimuli/BlurLevel5/BlurEditedMorph60.png,Stimuli/BlurLevel5/NumberedMorphs/BlurEditedMorph60.png,Stimuli/BlurLevel5/OriginalBlur/BlurEditedMorph60.png,Stimuli/BlurMorphTrio/EditedMorph60.png,020200right.gif,Stimuli/normal_thumbnails/60right.gif,,,,,1,0,1,0,0,6,6,59,,,,,,,,,,,,,,,,,,,,,,,33,7,2,80,0.434120444,2.462019383,60,Experiment,,,,,,,,,43,50,10,10,,,,,,,,,,,,,,,1034.373865,1035.062447,1034.373865,1035.062447,86.39455782,1583443227,1583443229,2.05475688,1583443224,1583443227,,,ES,1,20,female,undergrad,2020_Mar_05_1304,AdjustEyeTrack,3.1.5,59.98762743
27,Stimuli/Morph27.JPG,Stimuli/Morph27.png,Stimuli/BlurLevel5/BlurEditedMorph27,Stimuli/BlurLevel5/BlurEditedMorph27.png,Stimuli/BlurLevel5/NumberedMorphs/BlurEditedMorph27.png,Stimuli/BlurLevel5/OriginalBlur/BlurEditedMorph27.png,Stimuli/BlurMorphTrio/EditedMorph27.png,010072right.gif,Stimuli/normal_thumbnails/27right.gif,,,,,1,0,1,0,0,7,7,26,,,,,,,,,,,,,,,,,,,,,,,71,8,2,74,0.68909339,2.40315424,27,Experiment,,,,,,,,,128,24,3,3,,,,,,,,,,,,,,,1039.733446,1040.423235,1039.733446,1040.423235,95.91836735,1583443232,1583443235,3.137436152,1583443229,1583443232,,,ES,1,20,female,undergrad,2020_Mar_05_1304,AdjustEyeTrack,3.1.5,59.98762743
95,Stimuli/Morph95.JPG,Stimuli/Morph95.png,Stimuli/BlurLevel5/BlurEditedMorph95,Stimuli/BlurLevel5/BlurEditedMorph95.png,Stimuli/BlurLevel5/NumberedMorphs/BlurEditedMorph95.png,Stimuli/BlurLevel5/OriginalBlur/BlurEditedMorph95.png,Stimuli/BlurMorphTrio/EditedMorph95.png,020287right.gif,Stimuli/normal_thumbnails/95right.gif,,,,,1,0,1,0,0,8,8,94,,,,,,,,,,,,,,,,,,,,,,,25,9,2,27,2.22751631,1.134976249,95,Experiment,,,,,,,,,53,104,-9,-9,,,,,,,,,,,,,,,1046.127596,1046.828176,1046.127596,1046.828176,87.75510204,1583443238,1583443241,2.784985065,1583443236,1583443238,,,ES,1,20,female,undergrad,2020_Mar_05_1304,AdjustEyeTrack,3.1.5,59.98762743
130,Stimuli/Morph130.JPG,Stimuli/Morph130.png,Stimuli/BlurLevel5/BlurEditedMorph130,Stimuli/BlurLevel5/BlurEditedMorph130.png,Stimuli/BlurLevel5/NumberedMorphs/BlurEditedMorph130.png,Stimuli/BlurLevel5/OriginalBlur/BlurEditedMorph130.png,Stimuli/BlurMorphTrio/EditedMorph130.png,None,None,,,,,1,0,1,0,0,9,9,129,,,,,,,,,,,,,,,,,,,,,,,81,10,2,47,1.7049959,1.828384254,130,Experiment,,,,,,,,,78,114,16,16,,,,,,,,,,,,,,,1052.169954,1052.86399,1052.169954,1052.86399,78.23129252,1583443244,1583443246,1.648781776,1583443242,1583443244,,,ES,1,20,female,undergrad,2020_Mar_05_1304,AdjustEyeTrack,3.1.5,59.98762743
13,Stimuli/Morph13.JPG,Stimuli/Morph13.png,Stimuli/BlurLevel5/BlurEditedMorph13,Stimuli/BlurLevel5/BlurEditedMorph13.png,Stimuli/BlurLevel5/NumberedMorphs/BlurEditedMorph13.png,Stimuli/BlurLevel5/OriginalBlur/BlurEditedMorph13.png,Stimuli/BlurMorphTrio/EditedMorph13.png,010027right.gif,Stimuli/normal_thumbnails/13right.gif,,,,,1,0,1,0,0,10,10,12,,,,,,,,,,,,,,,,,,,,,,,82,11,2,192,-2.445369002,-0.519779227,13,Experiment,,,,,,,,,47,14,-1,-1,,,,,,,,,,,,,,,1057.200854,1057.897602,1057.200854,1057.897602,98.63945578,1583443249,1583443253,3.952740908,1583443247,1583443249,,,ES,1,20,female,undergrad,2020_Mar_05_1304,AdjustEyeTrack,3.1.5,59.98762743
145,Stimuli/Morph145.JPG,Stimuli/Morph145.png,Stimuli/BlurLevel5/BlurEditedMorph145,Stimuli/BlurLevel5/BlurEditedMorph145.png,Stimuli/BlurLevel5/NumberedMorphs/BlurEditedMorph145.png,Stimuli/BlurLevel5/OriginalBlur/BlurEditedMorph145.png,Stimuli/BlurMorphTrio/EditedMorph145.png,None,None,,,,,1,0,1,0,0,11,11,144,,,,,,,,,,,,,,,,,,,,,,,100,12,2,183,-2.496573837,-0.130839891,145,Experiment,,,,,,,,,113,117,28,28,,,,,,,,,,,,,,,1064.570009,1065.268539,1064.570009,1065.268539,61.9047619,1583443257,1583443261,4.569732904,1583443254,1583443257,,,ES,1,20,female,undergrad,2020_Mar_05_1304,AdjustEyeTrack,3.1.5,59.98762743
86,Stimuli/Morph86.JPG,Stimuli/Morph86.png,Stimuli/BlurLevel5/BlurEditedMorph86,Stimuli/BlurLevel5/BlurEditedMorph86.png,Stimuli/BlurLevel5/NumberedMorphs/BlurEditedMorph86.png,Stimuli/BlurLevel5/OriginalBlur/BlurEditedMorph86.png,Stimuli/BlurMorphTrio/EditedMorph86.png,020266right.gif,Stimuli/normal_thumbnails/86right.gif,,,,,1,0,1,0,0,12,12,85,,,,,,,,,,,,,,,,,,,,,,,77,13,2,51,1.573300978,1.942864904,86,Experiment,,,,,,,,,140,101,-15,-15,,,,,,,,,,,,,,,1072.507076,1073.195421,1072.507076,1073.195421,79.59183673,1583443265,1583443268,3.585125208,1583443262,1583443265,,,ES,1,20,female,undergrad,2020_Mar_05_1304,AdjustEyeTrack,3.1.5,59.98762743
104,Stimuli/Morph104.JPG,Stimuli/Morph104.png,Stimuli/BlurLevel5/BlurEditedMorph104,Stimuli/BlurLevel5/BlurEditedMorph104.png,Stimuli/BlurLevel5/NumberedMorphs/BlurEditedMorph104.png,Stimuli/BlurLevel5/OriginalBlur/BlurEditedMorph104.png,Stimuli/BlurMorphTrio/EditedMorph104.png,None,None,,,,,1,0,1,0,0,13,13,103,,,,,,,,,,,,,,,,,,,,,,,99,14,2,80,0.434120444,2.462019383,104,Experiment,,,,,,,,,122,107,-3,-3,,,,,,,,,,,,,,,1079.283025,1079.960916,1079.283025,1079.960916,95.91836735,1583443272,1583443275,3.80211091,1583443269,1583443272,,,ES,1,20,female,undergrad,2020_Mar_05_1304,AdjustEyeTrack,3.1.5,59.98762743
55,Stimuli/Morph55.JPG,Stimuli/Morph55.png,Stimuli/BlurLevel5/BlurEditedMorph55,Stimuli/BlurLevel5/BlurEditedMorph55.png,Stimuli/BlurLevel5/NumberedMorphs/BlurEditedMorph55.png,Stimuli/BlurLevel5/OriginalBlur/BlurEditedMorph55.png,Stimuli/BlurMorphTrio/EditedMorph55.png,010151right.gif,Stimuli/normal_thumbnails/55right.gif,,,,,1,0,1,0,0,14,14,54,,,,,,,,,,,,,,,,,,,,,,,20,15,2,245,-1.056545654,-2.265769468,55,Experiment,,,,,,,,,82,51,4,4,,,,,,,,,,,,,,,1086.45446,1087.160648,1086.45446,1087.160648,94.55782313,1583443279,1583443282,3.333674908,1583443276,1583443279,,,ES,1,20,female,undergrad,2020_Mar_05_1304,AdjustEyeTrack,3.1.5,59.98762743
26,Stimuli/Morph26.JPG,Stimuli/Morph26.png,Stimuli/BlurLevel5/BlurEditedMorph26,Stimuli/BlurLevel5/BlurEditedMorph26.png,Stimuli/BlurLevel5/NumberedMorphs/BlurEditedMorph26.png,Stimuli/BlurLevel5/OriginalBlur/BlurEditedMorph26.png,Stimuli/BlurMorphTrio/EditedMorph26.png,010070right.gif,Stimuli/normal_thumbnails/26right.gif,,,,,1,0,1,0,0,15,15,25,,,,,,,,,,,,,,,,,,,,,,,45,16,2,298,1.173678907,-2.207368982,26,Experiment,,,,,,,,,1,25,1,1,,,,,,,,,,,,,,,1092.99557,1093.681148,1092.99557,1093.681148,98.63945578,1583443285,1583443287,1.937674046,1583443283,1583443285,,,ES,1,20,female,undergrad,2020_Mar_05_1304,AdjustEyeTrack,3.1.5,59.98762743
144,Stimuli/Morph144.JPG,Stimuli/Morph144.png,Stimuli/BlurLevel5/BlurEditedMorph144,Stimuli/BlurLevel5/BlurEditedMorph144.png,Stimuli/BlurLevel5/NumberedMorphs/BlurEditedMorph144.png,Stimuli/BlurLevel5/OriginalBlur/BlurEditedMorph144.png,Stimuli/BlurMorphTrio/EditedMorph144.png,None,None,,,,,1,0,1,0,0,16,16,143,,,,,,,,,,,,,,,,,,,,,,,58,17,2,307,1.504537558,-1.996588775,144,Experiment,,,,,,,,,11,146,-2,-2,,,,,,,,,,,,,,,1098.271085,1098.973656,1098.271085,1098.973656,97.27891156,1583443291,1583443292,1.916366816,1583443288,1583443291,,,ES,1,20,female,undergrad,2020_Mar_05_1304,AdjustEyeTrack,3.1.5,59.98762743
117,Stimuli/Morph117.JPG,Stimuli/Morph117.png,Stimuli/BlurLevel5/BlurEditedMorph117,Stimuli/BlurLevel5/BlurEditedMorph117.png,Stimuli/BlurLevel5/NumberedMorphs/BlurEditedMorph117.png,Stimuli/BlurLevel5/OriginalBlur/BlurEditedMorph117.png,Stimuli/BlurMorphTrio/EditedMorph117.png,None,None,,,,,1,0,1,0,0,17,17,116,,,,,,,,,,,,,,,,,,,,,,,69,18,2,309,1.573300978,-1.942864904,117,Experiment,,,,,,,,,33,105,12,12,,,,,,,,,,,,,,,1103.854827,1104.566951,1103.854827,1104.566951,83.67346939,1583443296,1583443299,2.619160891,1583443293,1583443296,,,ES,1,20,female,undergrad,2020_Mar_05_1304,AdjustEyeTrack,3.1.5,59.98762743
70,Stimuli/Morph70.JPG,Stimuli/Morph70.png,Stimuli/BlurLevel5/BlurEditedMorph70,Stimuli/BlurLevel5/BlurEditedMorph70.png,Stimuli/BlurLevel5/NumberedMorphs/BlurEditedMorph70.png,Stimuli/BlurLevel5/OriginalBlur/BlurEditedMorph70.png,Stimuli/BlurMorphTrio/EditedMorph70.png,020221right.gif,Stimuli/normal_thumbnails/70right.gif,,,,,1,0,1,0,0,18,18,69,,,,,,,,,,,,,,,,,,,,,,,55,19,2,33,2.09667642,1.361597588,70,Experiment,,,,,,,,,57,48,22,22,,,,,,,,,,,,,,,1109.908761,1110.603207,1109.908761,1110.603207,70.06802721,1583443302,1583443305,3.202297926,1583443299,1583443302,,,ES,1,20,female,undergrad,2020_Mar_05_1304,AdjustEyeTrack,3.1.5,59.98762743
22,Stimuli/Morph22.JPG,Stimuli/Morph22.png,Stimuli/BlurLevel5/BlurEditedMorph22,Stimuli/BlurLevel5/BlurEditedMorph22.png,Stimuli/BlurLevel5/NumberedMorphs/BlurEditedMorph22.png,Stimuli/BlurLevel5/OriginalBlur/BlurEditedMorph22.png,Stimuli/BlurMorphTrio/EditedMorph22.png,010055right.gif,Stimuli/normal_thumbnails/22right.gif,,,,,1,0,1,0,0,19,19,21,,,,,,,,,,,,,,,,,,,,,,,64,20,2,263,-0.304673359,-2.481365379,22,Experiment,,,,,,,,,143,21,1,1,,,,,,,,,,,,,,,1116.445682,1117.137945,1116.445682,1117.137945,98.63945578,1583443309,1583443312,3.735046864,1583443306,1583443309,,,ES,1,20,female,undergrad,2020_Mar_05_1304,AdjustEyeTrack,3.1.5,59.98762743
56,Stimuli/Morph56.JPG,Stimuli/Morph56.png,Stimuli/BlurLevel5/BlurEditedMorph56,Stimuli/BlurLevel5/BlurEditedMorph56.png,Stimuli/BlurLevel5/NumberedMorphs/BlurEditedMorph56.png,Stimuli/BlurLevel5/OriginalBlur/BlurEditedMorph56.png,Stimuli/BlurMorphTrio/EditedMorph56.png,010157right.gif,Stimuli/normal_thumbnails/56right.gif,,,,,1,0,1,0,0,20,20,55,,,,,,,,,,,,,,,,,,,,,,,37,21,2,147,-2.09667642,1.361597588,56,Experiment,,,,,,,,,47,49,7,7,,,,,,,,,,,,,,,1123.657259,1124.354198,1123.657259,1124.354198,90.47619048,1583443316,1583443317,1.566440105,1583443313,1583443316,,,ES,1,20,female,undergrad,2020_Mar_05_1304,AdjustEyeTrack,3.1.5,59.98762743
24,Stimuli/Morph24.JPG,Stimuli/Morph24.png,Stimuli/BlurLevel5/BlurEditedMorph24,Stimuli/BlurLevel5/BlurEditedMorph24.png,Stimuli/BlurLevel5/NumberedMorphs/BlurEditedMorph24.png,Stimuli/BlurLevel5/OriginalBlur/BlurEditedMorph24.png,Stimuli/BlurMorphTrio/EditedMorph24.png,010068right.gif,Stimuli/normal_thumbnails/24right.gif,,,,,1,0,1,0,0,21,21,23,,,,,,,,,,,,,,,,,,,,,,,36,22,2,195,-2.414814566,-0.647047613,24,Experiment,,,,,,,,,141,144,-120,27,,,,,,,,,,,,,,,1128.840186,1129.549862,1128.840186,1129.549862,63.26530612,1583443321,1583443324,3.003991127,1583443318,1583443321,,,ES,1,20,female,undergrad,2020_Mar_05_1304,AdjustEyeTrack,3.1.5,59.98762743
84,Stimuli/Morph84.JPG,Stimuli/Morph84.png,Stimuli/BlurLevel5/BlurEditedMorph84,Stimuli/BlurLevel5/BlurEditedMorph84.png,Stimuli/BlurLevel5/NumberedMorphs/BlurEditedMorph84.png,Stimuli/BlurLevel5/OriginalBlur/BlurEditedMorph84.png,Stimuli/BlurMorphTrio/EditedMorph84.png,020261right.gif,Stimuli/normal_thumbnails/84right.gif,,,,,1,0,1,0,0,22,22,83,,,,,,,,,,,,,,,,,,,,,,,82,23,2,18,2.377641291,0.772542486,84,Experiment,,,,,,,,,62,103,-19,-19,,,,,,,,,,,,,,,1135.31853,1136.027981,1135.31853,1136.027981,74.14965986,1583443328,1583443329,1.669700146,1583443325,1583443327,,,ES,1,20,female,undergrad,2020_Mar_05_1304,AdjustEyeTrack,3.1.5,59.98762743
93,Stimuli/Morph93.JPG,Stimuli/Morph93.png,Stimuli/BlurLevel5/BlurEditedMorph93,Stimuli/BlurLevel5/BlurEditedMorph93.png,Stimuli/BlurLevel5/NumberedMorphs/BlurEditedMorph93.png,Stimuli/BlurLevel5/OriginalBlur/BlurEditedMorph93.png,Stimuli/BlurMorphTrio/EditedMorph93.png,020280right.gif,Stimuli/normal_thumbnails/93right.gif,,,,,1,0,1,0,0,23,23,92,,,,,,,,,,,,,,,,,,,,,,,75,24,2,206,-2.246985116,-1.095927867,93,Experiment,,,,,,,,,61,107,-14,-14,,,,,,,,,,,,,,,1140.222336,1140.909969,1140.222336,1140.909969,80.95238095,1583443332,1583443335,2.133535147,1583443330,1583443332,,,ES,1,20,female,undergrad,2020_Mar_05_1304,AdjustEyeTrack,3.1.5,59.98762743
46,Stimuli/Morph46.JPG,Stimuli/Morph46.png,Stimuli/BlurLevel5/BlurEditedMorph46,Stimuli/BlurLevel5/BlurEditedMorph46.png,Stimuli/BlurLevel5/NumberedMorphs/BlurEditedMorph46.png,Stimuli/BlurLevel5/OriginalBlur/BlurEditedMorph46.png,Stimuli/BlurMorphTrio/EditedMorph46.png,010128right.gif,Stimuli/normal_thumbnails/46right.gif,,,,,1,0,1,0,0,24,24,45,,,,,,,,,,,,,,,,,,,,,,,49,25,2,10,2.462019383,0.434120444,46,Experiment,,,,,,,,,48,48,-2,-2,,,,,,,,,,,,,,,1145.800738,1146.510294,1145.800738,1146.510294,97.27891156,1583443338,1583443340,2.466084957,1583443335,1583443338,,,ES,1,20,female,undergrad,2020_Mar_05_1304,AdjustEyeTrack,3.1.5,59.98762743
79,Stimuli/Morph79.JPG,Stimuli/Morph79.png,Stimuli/BlurLevel5/BlurEditedMorph79,Stimuli/BlurLevel5/BlurEditedMorph79.png,Stimuli/BlurLevel5/NumberedMorphs/BlurEditedMorph79.png,Stimuli/BlurLevel5/OriginalBlur/BlurEditedMorph79.png,Stimuli/BlurMorphTrio/EditedMorph79.png,020239right.gif,Stimuli/normal_thumbnails/79right.gif,,,,,1,0,1,0,0,25,25,78,,,,,,,,,,,,,,,,,,,,,,,67,26,2,304,1.397982259,-2.072593931,79,Experiment,,,,,,,,,109,105,-26,-26,,,,,,,,,,,,,,,1151.729872,1152.534476,1151.729872,1152.534476,64.62585034,1583443344,1583443346,1.882951021,1583443341,1583443344,,,ES,1,20,female,undergrad,2020_Mar_05_1304,AdjustEyeTrack,3.1.5,59.98762743
72,Stimuli/Morph72.JPG,Stimuli/Morph72.png,Stimuli/BlurLevel5/BlurEditedMorph72,Stimuli/BlurLevel5/BlurEditedMorph72.png,Stimuli/BlurLevel5/NumberedMorphs/BlurEditedMorph72.png,Stimuli/BlurLevel5/OriginalBlur/BlurEditedMorph72.png,Stimuli/BlurMorphTrio/EditedMorph72.png,020227right.gif,Stimuli/normal_thumbnails/72right.gif,,,,,1,0,1,0,0,26,26,71,,,,,,,,,,,,,,,,,,,,,,,33,27,2,337,2.301262134,-0.976827821,72,Experiment,,,,,,,,,117,53,19,19,,,,,,,,,,,,,,,1157.199636,1157.952155,1157.199636,1157.952155,74.14965986,1583443350,1583443352,2.466323853,1583443347,1583443350,,,ES,1,20,female,undergrad,2020_Mar_05_1304,AdjustEyeTrack,3.1.5,59.98762743
114,Stimuli/Morph114.JPG,Stimuli/Morph114.png,Stimuli/BlurLevel5/BlurEditedMorph114,Stimuli/BlurLevel5/BlurEditedMorph114.png,Stimuli/BlurLevel5/NumberedMorphs/BlurEditedMorph114.png,Stimuli/BlurLevel5/OriginalBlur/BlurEditedMorph114.png,Stimuli/BlurMorphTrio/EditedMorph114.png,None,None,,,,,1,0,1,0,0,27,27,113,,,,,,,,,,,,,,,,,,,,,,,2,28,2,223,-1.828384254,-1.7049959,114,Experiment,,,,,,,,,130,105,9,9,,,,,,,,,,,,,,,1163.157355,1164.027076,1163.157355,1164.027076,87.75510204,1583443356,1583443359,2.919535875,1583443353,1583443356,,,ES,1,20,female,undergrad,2020_Mar_05_1304,AdjustEyeTrack,3.1.5,59.98762743
103,Stimuli/Morph103.JPG,Stimuli/Morph103.png,Stimuli/BlurLevel5/BlurEditedMorph103,Stimuli/BlurLevel5/BlurEditedMorph103.png,Stimuli/BlurLevel5/NumberedMorphs/BlurEditedMorph103.png,Stimuli/BlurLevel5/OriginalBlur/BlurEditedMorph103.png,Stimuli/BlurMorphTrio/EditedMorph103.png,None,None,,,,,1,0,1,0,0,28,28,102,,,,,,,,,,,,,,,,,,,,,,,30,29,2,132,-1.672826516,1.857862064,103,Experiment,,,,,,,,,90,110,-7,-7,,,,,,,,,,,,,,,1169.827453,1170.564922,1169.827453,1170.564922,90.47619048,1583443362,1583443364,1.900039196,1583443359,1583443362,,,ES,1,20,female,undergrad,2020_Mar_05_1304,AdjustEyeTrack,3.1.5,59.98762743
19,Stimuli/Morph19.JPG,Stimuli/Morph19.png,Stimuli/BlurLevel5/BlurEditedMorph19,Stimuli/BlurLevel5/BlurEditedMorph19.png,Stimuli/BlurLevel5/NumberedMorphs/BlurEditedMorph19.png,Stimuli/BlurLevel5/OriginalBlur/BlurEditedMorph19.png,Stimuli/BlurMorphTrio/EditedMorph19.png,010045right.gif,Stimuli/normal_thumbnails/19right.gif,,,,,1,0,1,0,0,29,29,18,,,,,,,,,,,,,,,,,,,,,,,44,30,2,297,1.134976249,-2.22751631,19,Experiment,,,,,,,,,106,16,3,3,,,,,,,,,,,,,,,1175.332384,1176.11298,1175.332384,1176.11298,95.91836735,1583443368,1583443371,3.048877954,1583443365,1583443368,,,ES,1,20,female,undergrad,2020_Mar_05_1304,AdjustEyeTrack,3.1.5,59.98762743
2,Stimuli/Morph2.JPG,Stimuli/Morph2.png,Stimuli/BlurLevel5/BlurEditedMorph2,Stimuli/BlurLevel5/BlurEditedMorph2.png,Stimuli/BlurLevel5/NumberedMorphs/BlurEditedMorph2.png,Stimuli/BlurLevel5/OriginalBlur/BlurEditedMorph2.png,Stimuli/BlurMorphTrio/EditedMorph2.png,010006right.gif,Stimuli/normal_thumbnails/2right.gif,,,,,1,0,1,0,0,30,30,1,,,,,,,,,,,,,,,,,,,,,,,56,31,2,120,-1.25,2.165063509,2,Experiment,,,,,,,,,3,6,-4,-4,,,,,,,,,,,,,,,1182.16035,1182.876302,1182.16035,1182.876302,94.55782313,1583443374,1583443377,2.349980831,1583443371,1583443374,,,ES,1,20,female,undergrad,2020_Mar_05_1304,AdjustEyeTrack,3.1.5,59.98762743
54,Stimuli/Morph54.JPG,Stimuli/Morph54.png,Stimuli/BlurLevel5/BlurEditedMorph54,Stimuli/BlurLevel5/BlurEditedMorph54.png,Stimuli/BlurLevel5/NumberedMorphs/BlurEditedMorph54.png,Stimuli/BlurLevel5/OriginalBlur/BlurEditedMorph54.png,Stimuli/BlurMorphTrio/EditedMorph54.png,010150right.gif,Stimuli/normal_thumbnails/54right.gif,,,,,1,0,1,0,0,31,31,53,,,,,,,,,,,,,,,,,,,,,,,14,32,2,69,0.895919874,2.333951066,54,Experiment,,,,,,,,,36,49,5,5,,,,,,,,,,,,,,,1188.086655,1188.804482,1188.086655,1188.804482,93.19727891,1583443380,1583443382,1.836133242,1583443377,1583443380,,,ES,1,20,female,undergrad,2020_Mar_05_1304,AdjustEyeTrack,3.1.5,59.98762743
89,Stimuli/Morph89.JPG,Stimuli/Morph89.png,Stimuli/BlurLevel5/BlurEditedMorph89,Stimuli/BlurLevel5/BlurEditedMorph89.png,Stimuli/BlurLevel5/NumberedMorphs/BlurEditedMorph89.png,Stimuli/BlurLevel5/OriginalBlur/BlurEditedMorph89.png,Stimuli/BlurMorphTrio/EditedMorph89.png,020273right.gif,Stimuli/normal_thumbnails/89right.gif,,,,,1,0,1,0,0,32,32,88,,,,,,,,,,,,,,,,,,,,,,,3,33,2,297,1.134976249,-2.22751631,89,Experiment,,,,,,,,,141,117,-28,-28,,,,,,,,,,,,,,,1193.491187,1194.219286,1193.491187,1194.219286,61.9047619,1583443386,1583443389,3.350274086,1583443383,1583443386,,,ES,1,20,female,undergrad,2020_Mar_05_1304,AdjustEyeTrack,3.1.5,59.98762743
37,Stimuli/Morph37.JPG,Stimuli/Morph37.png,Stimuli/BlurLevel5/BlurEditedMorph37,Stimuli/BlurLevel5/BlurEditedMorph37.png,Stimuli/BlurLevel5/NumberedMorphs/BlurEditedMorph37.png,Stimuli/BlurLevel5/OriginalBlur/BlurEditedMorph37.png,Stimuli/BlurMorphTrio/EditedMorph37.png,010097right.gif,Stimuli/normal_thumbnails/37right.gif,,,,,1,0,1,0,0,33,33,36,,,,,,,,,,,,,,,,,,,,,,,75,34,2,25,2.265769468,1.056545654,37,Experiment,,,,,,,,,73,49,-12,-12,,,,,,,,,,,,,,,1200.154859,1200.886395,1200.154859,1200.886395,83.67346939,1583443392,1583443396,3.733456135,1583443390,1583443392,,,ES,1,20,female,undergrad,2020_Mar_05_1304,AdjustEyeTrack,3.1.5,59.98762743
92,Stimuli/Morph92.JPG,Stimuli/Morph92.png,Stimuli/BlurLevel5/BlurEditedMorph92,Stimuli/BlurLevel5/BlurEditedMorph92.png,Stimuli/BlurLevel5/NumberedMorphs/BlurEditedMorph92.png,Stimuli/BlurLevel5/OriginalBlur/BlurEditedMorph92.png,Stimuli/BlurMorphTrio/EditedMorph92.png,020277right.gif,Stimuli/normal_thumbnails/92right.gif,,,,,1,0,1,0,0,34,34,91,,,,,,,,,,,,,,,,,,,,,,,32,35,2,5,2.490486745,0.217889357,92,Experiment,,,,,,,,,77,115,-23,-23,,,,,,,,,,,,,,,1207.42737,1208.133304,1207.42737,1208.133304,68.70748299,1583443400,1583443402,2.316196918,1583443397,1583443400,,,ES,1,20,female,undergrad,2020_Mar_05_1304,AdjustEyeTrack,3.1.5,59.98762743
67,Stimuli/Morph67.JPG,Stimuli/Morph67.png,Stimuli/BlurLevel5/BlurEditedMorph67,Stimuli/BlurLevel5/BlurEditedMorph67.png,Stimuli/BlurLevel5/NumberedMorphs/BlurEditedMorph67.png,Stimuli/BlurLevel5/OriginalBlur/BlurEditedMorph67.png,Stimuli/BlurMorphTrio/EditedMorph67.png,020217right.gif,Stimuli/normal_thumbnails/67right.gif,,,,,1,0,1,0,0,35,35,66,,,,,,,,,,,,,,,,,,,,,,,56,36,2,57,1.361597588,2.09667642,67,Experiment,,,,,,,,,71,52,15,15,,,,,,,,,,,,,,,1213.348701,1214.059634,1213.348701,1214.059634,79.59183673,1583443406,1583443407,1.850230932,1583443403,1583443406,,,ES,1,20,female,undergrad,2020_Mar_05_1304,AdjustEyeTrack,3.1.5,59.98762743
80,Stimuli/Morph80.JPG,Stimuli/Morph80.png,Stimuli/BlurLevel5/BlurEditedMorph80,Stimuli/BlurLevel5/BlurEditedMorph80.png,Stimuli/BlurLevel5/NumberedMorphs/BlurEditedMorph80.png,Stimuli/BlurLevel5/OriginalBlur/BlurEditedMorph80.png,Stimuli/BlurMorphTrio/EditedMorph80.png,020240right.gif,Stimuli/normal_thumbnails/80right.gif,,,,,1,0,1,0,0,36,36,79,,,,,,,,,,,,,,,,,,,,,,,65,37,2,350,2.462019383,-0.434120444,80,Experiment,,,,,,,,,55,117,-37,-37,,,,,,,,,,,,,,,1218.702401,1219.4261,1218.702401,1219.4261,49.65986395,1583443411,1583443413,2.365413904,1583443408,1583443411,,,ES,1,20,female,undergrad,2020_Mar_05_1304,AdjustEyeTrack,3.1.5,59.98762743
141,Stimuli/Morph141.JPG,Stimuli/Morph141.png,Stimuli/BlurLevel5/BlurEditedMorph141,Stimuli/BlurLevel5/BlurEditedMorph141.png,Stimuli/BlurLevel5/NumberedMorphs/BlurEditedMorph141.png,Stimuli/BlurLevel5/OriginalBlur/BlurEditedMorph141.png,Stimuli/BlurMorphTrio/EditedMorph141.png,None,None,,,,,1,0,1,0,0,37,37,140,,,,,,,,,,,,,,,,,,,,,,,51,38,2,301,1.287595187,-2.142918252,141,Experiment,,,,,,,,,125,1,140,-7,,,,,,,,,,,,,,,1224.628846,1225.353455,1224.628846,1225.353455,90.47619048,1583443417,1583443421,4.449295044,1583443414,1583443417,,,ES,1,20,female,undergrad,2020_Mar_05_1304,AdjustEyeTrack,3.1.5,59.98762743
125,Stimuli/Morph125.JPG,Stimuli/Morph125.png,Stimuli/BlurLevel5/BlurEditedMorph125,Stimuli/BlurLevel5/BlurEditedMorph125.png,Stimuli/BlurLevel5/NumberedMorphs/BlurEditedMorph125.png,Stimuli/BlurLevel5/OriginalBlur/BlurEditedMorph125.png,Stimuli/BlurMorphTrio/EditedMorph125.png,None,None,,,,,1,0,1,0,0,38,38,124,,,,,,,,,,,,,,,,,,,,,,,85,39,2,282,0.519779227,-2.445369002,125,Experiment,,,,,,,,,16,110,15,15,,,,,,,,,,,,,,,1232.42202,1233.115512,1232.42202,1233.115512,79.59183673,1583443425,1583443427,2.251000166,1583443422,1583443425,,,ES,1,20,female,undergrad,2020_Mar_05_1304,AdjustEyeTrack,3.1.5,59.98762743
91,Stimuli/Morph91.JPG,Stimuli/Morph91.png,Stimuli/BlurLevel5/BlurEditedMorph91,Stimuli/BlurLevel5/BlurEditedMorph91.png,Stimuli/BlurLevel5/NumberedMorphs/BlurEditedMorph91.png,Stimuli/BlurLevel5/OriginalBlur/BlurEditedMorph91.png,Stimuli/BlurMorphTrio/EditedMorph91.png,020276right.gif,Stimuli/normal_thumbnails/91right.gif,,,,,1,0,1,0,0,39,39,90,,,,,,,,,,,,,,,,,,,,,,,94,40,2,299,1.212024051,-2.186549268,91,Experiment,,,,,,,,,38,120,-29,-29,,,,,,,,,,,,,,,1238.316317,1239.036808,1238.316317,1239.036808,60.54421769,1583443431,1583443433,2.433078051,1583443427,1583443431,,,ES,1,20,female,undergrad,2020_Mar_05_1304,AdjustEyeTrack,3.1.5,59.98762743
18,Stimuli/Morph18.JPG,Stimuli/Morph18.png,Stimuli/BlurLevel5/BlurEditedMorph18,Stimuli/BlurLevel5/BlurEditedMorph18.png,Stimuli/BlurLevel5/NumberedMorphs/BlurEditedMorph18.png,Stimuli/BlurLevel5/OriginalBlur/BlurEditedMorph18.png,Stimuli/BlurMorphTrio/EditedMorph18.png,010039right.gif,Stimuli/normal_thumbnails/18right.gif,,,,,1,0,1,0,0,40,40,17,,,,,,,,,,,,,,,,,,,,,,,83,41,2,332,2.207368982,-1.173678907,18,Experiment,,,,,,,,,119,22,-4,-4,,,,,,,,,,,,,,,1244.25439,1245.001092,1244.25439,1245.001092,94.55782313,1583443437,1583443440,3.033440113,1583443433,1583443437,,,ES,1,20,female,undergrad,2020_Mar_05_1304,AdjustEyeTrack,3.1.5,59.98762743
138,Stimuli/Morph138.JPG,Stimuli/Morph138.png,Stimuli/BlurLevel5/BlurEditedMorph138,Stimuli/BlurLevel5/BlurEditedMorph138.png,Stimuli/BlurLevel5/NumberedMorphs/BlurEditedMorph138.png,Stimuli/BlurLevel5/OriginalBlur/BlurEditedMorph138.png,Stimuli/BlurMorphTrio/EditedMorph138.png,None,None,,,,,1,0,1,0,0,41,41,137,,,,,,,,,,,,,,,,,,,,,,,55,42,2,276,0.261321158,-2.486304738,138,Experiment,,,,,,,,,1,102,36,36,,,,,,,,,,,,,,,1250.725958,1251.427476,1250.725958,1251.427476,51.02040816,1583443443,1583443446,3.550368071,1583443440,1583443443,,,ES,1,20,female,undergrad,2020_Mar_05_1304,AdjustEyeTrack,3.1.5,59.98762743
43,Stimuli/Morph43.JPG,Stimuli/Morph43.png,Stimuli/BlurLevel5/BlurEditedMorph43,Stimuli/BlurLevel5/BlurEditedMorph43.png,Stimuli/BlurLevel5/NumberedMorphs/BlurEditedMorph43.png,Stimuli/BlurLevel5/OriginalBlur/BlurEditedMorph43.png,Stimuli/BlurMorphTrio/EditedMorph43.png,010124right.gif,Stimuli/normal_thumbnails/43right.gif,,,,,1,0,1,0,0,42,42,42,,,,,,,,,,,,,,,,,,,,,,,32,43,2,42,1.857862064,1.672826516,43,Experiment,,,,,,,,,14,41,2,2,,,,,,,,,,,,,,,1257.736143,1258.444891,1257.736143,1258.444891,97.27891156,1583443450,1583443452,1.58314395,1583443447,1583443450,,,ES,1,20,female,undergrad,2020_Mar_05_1304,AdjustEyeTrack,3.1.5,59.98762743
31,Stimuli/Morph31.JPG,Stimuli/Morph31.png,Stimuli/BlurLevel5/BlurEditedMorph31,Stimuli/BlurLevel5/BlurEditedMorph31.png,Stimuli/BlurLevel5/NumberedMorphs/BlurEditedMorph31.png,Stimuli/BlurLevel5/OriginalBlur/BlurEditedMorph31.png,Stimuli/BlurMorphTrio/EditedMorph31.png,010079right.gif,Stimuli/normal_thumbnails/31right.gif,,,,,1,0,1,0,0,43,43,30,,,,,,,,,,,,,,,,,,,,,,,19,44,2,336,2.283863644,-1.016841608,31,Experiment,,,,,,,,,89,35,-4,-4,,,,,,,,,,,,,,,1262.991386,1263.708212,1262.991386,1263.708212,94.55782313,1583443455,1583443458,3.018702984,1583443452,1583443455,,,ES,1,20,female,undergrad,2020_Mar_05_1304,AdjustEyeTrack,3.1.5,59.98762743
68,Stimuli/Morph68.JPG,Stimuli/Morph68.png,Stimuli/BlurLevel5/BlurEditedMorph68,Stimuli/BlurLevel5/BlurEditedMorph68.png,Stimuli/BlurLevel5/NumberedMorphs/BlurEditedMorph68.png,Stimuli/BlurLevel5/OriginalBlur/BlurEditedMorph68.png,Stimuli/BlurMorphTrio/EditedMorph68.png,020218right.gif,Stimuli/normal_thumbnails/68right.gif,,,,,1,0,1,0,0,44,44,67,,,,,,,,,,,,,,,,,,,,,,,11,45,2,359,2.499619238,-0.043631016,68,Experiment,,,,,,,,,55,98,-30,-30,,,,,,,,,,,,,,,1269.939763,1270.699983,1269.939763,1270.699983,59.18367347,1583443462,1583443465,3.04769516,1583443459,1583443462,,,ES,1,20,female,undergrad,2020_Mar_05_1304,AdjustEyeTrack,3.1.5,59.98762743
109,Stimuli/Morph109.JPG,Stimuli/Morph109.png,Stimuli/BlurLevel5/BlurEditedMorph109,Stimuli/BlurLevel5/BlurEditedMorph109.png,Stimuli/BlurLevel5/NumberedMorphs/BlurEditedMorph109.png,Stimuli/BlurLevel5/OriginalBlur/BlurEditedMorph109.png,Stimuli/BlurMorphTrio/EditedMorph109.png,None,None,,,,,1,0,1,0,0,45,45,108,,,,,,,,,,,,,,,,,,,,,,,27,46,2,263,-0.304673359,-2.481365379,109,Experiment,,,,,,,,,68,101,8,8,,,,,,,,,,,,,,,1276.583654,1277.302226,1276.583654,1277.302226,89.11564626,1583443469,1583443471,2.582926035,1583443466,1583443469,,,ES,1,20,female,undergrad,2020_Mar_05_1304,AdjustEyeTrack,3.1.5,59.98762743
28,Stimuli/Morph28.JPG,Stimuli/Morph28.png,Stimuli/BlurLevel5/BlurEditedMorph28,Stimuli/BlurLevel5/BlurEditedMorph28.png,Stimuli/BlurLevel5/NumberedMorphs/BlurEditedMorph28.png,Stimuli/BlurLevel5/OriginalBlur/BlurEditedMorph28.png,Stimuli/BlurMorphTrio/EditedMorph28.png,010073right.gif,Stimuli/normal_thumbnails/28right.gif,,,,,1,0,1,0,0,46,46,27,,,,,,,,,,,,,,,,,,,,,,,5,47,2,351,2.469220851,-0.391086163,28,Experiment,,,,,,,,,8,30,-2,-2,,,,,,,,,,,,,,,1282.519555,1283.224979,1282.519555,1283.224979,97.27891156,1583443475,1583443477,2.434609175,1583443472,1583443475,,,ES,1,20,female,undergrad,2020_Mar_05_1304,AdjustEyeTrack,3.1.5,59.98762743
20,Stimuli/Morph20.JPG,Stimuli/Morph20.png,Stimuli/BlurLevel5/BlurEditedMorph20,Stimuli/BlurLevel5/BlurEditedMorph20.png,Stimuli/BlurLevel5/NumberedMorphs/BlurEditedMorph20.png,Stimuli/BlurLevel5/OriginalBlur/BlurEditedMorph20.png,Stimuli/BlurMorphTrio/EditedMorph20.png,010046right.gif,Stimuli/normal_thumbnails/20right.gif,,,,,1,0,1,0,0,47,47,19,,,,,,,,,,,,,,,,,,,,,,,56,48,2,66,1.016841608,2.283863644,20,Experiment,,,,,,,,,38,14,6,6,,,,,,,,,,,,,,,1288.553454,1289.274997,1288.553454,1289.274997,91.83673469,1583443481,1583443484,3.315912962,1583443478,1583443481,,,ES,1,20,female,undergrad,2020_Mar_05_1304,AdjustEyeTrack,3.1.5,59.98762743
73,Stimuli/Morph73.JPG,Stimuli/Morph73.png,Stimuli/BlurLevel5/BlurEditedMorph73,Stimuli/BlurLevel5/BlurEditedMorph73.png,Stimuli/BlurLevel5/NumberedMorphs/BlurEditedMorph73.png,Stimuli/BlurLevel5/OriginalBlur/BlurEditedMorph73.png,Stimuli/BlurMorphTrio/EditedMorph73.png,020230right.gif,Stimuli/normal_thumbnails/73right.gif,,,,,1,0,1,0,0,48,48,72,,,,,,,,,,,,,,,,,,,,,,,18,49,2,205,-2.265769468,-1.056545654,73,Experiment,,,,,,,,,105,99,-26,-26,,,,,,,,,,,,,,,1295.137256,1295.833864,1295.137256,1295.833864,64.62585034,1583443487,1583443490,2.30014205,1583443485,1583443487,,,ES,1,20,female,undergrad,2020_Mar_05_1304,AdjustEyeTrack,3.1.5,59.98762743
38,Stimuli/Morph38.JPG,Stimuli/Morph38.png,Stimuli/BlurLevel5/BlurEditedMorph38,Stimuli/BlurLevel5/BlurEditedMorph38.png,Stimuli/BlurLevel5/NumberedMorphs/BlurEditedMorph38.png,Stimuli/BlurLevel5/OriginalBlur/BlurEditedMorph38.png,Stimuli/BlurMorphTrio/EditedMorph38.png,010108right.gif,Stimuli/normal_thumbnails/38right.gif,,,,,1,0,1,0,0,49,49,37,,,,,,,,,,,,,,,,,,,,,,,26,50,2,158,-2.317959636,0.936516484,38,Experiment,,,,,,,,,96,45,-7,-7,,,,,,,,,,,,,,,1300.83661,1301.530355,1300.83661,1301.530355,90.47619048,1583443493,1583443495,2.062229633,1583443490,1583443493,,,ES,1,20,female,undergrad,2020_Mar_05_1304,AdjustEyeTrack,3.1.5,59.98762743
35,Stimuli/Morph35.JPG,Stimuli/Morph35.png,Stimuli/BlurLevel5/BlurEditedMorph35,Stimuli/BlurLevel5/BlurEditedMorph35.png,Stimuli/BlurLevel5/NumberedMorphs/BlurEditedMorph35.png,Stimuli/BlurLevel5/OriginalBlur/BlurEditedMorph35.png,Stimuli/BlurMorphTrio/EditedMorph35.png,010094right.gif,Stimuli/normal_thumbnails/35right.gif,,,,,1,0,1,0,0,50,50,34,,,,,,,,,,,,,,,,,,,,,,,62,51,2,251,-0.813920386,-2.363796439,35,Experiment,,,,,,,,,103,50,-15,-15,,,,,,,,,,,,,,,1306.378094,1307.069821,1306.378094,1307.069821,79.59183673,1583443499,1583443501,2.499662638,1583443496,1583443499,,,ES,1,20,female,undergrad,2020_Mar_05_1304,AdjustEyeTrack,3.1.5,59.98762743
23,Stimuli/Morph23.JPG,Stimuli/Morph23.png,Stimuli/BlurLevel5/BlurEditedMorph23,Stimuli/BlurLevel5/BlurEditedMorph23.png,Stimuli/BlurLevel5/NumberedMorphs/BlurEditedMorph23.png,Stimuli/BlurLevel5/OriginalBlur/BlurEditedMorph23.png,Stimuli/BlurMorphTrio/EditedMorph23.png,010063right.gif,Stimuli/normal_thumbnails/23right.gif,,,,,1,0,1,0,0,51,51,22,,,,,,,,,,,,,,,,,,,,,,,49,52,2,101,-0.477022488,2.454067959,23,Experiment,,,,,,,,,42,7,16,16,,,,,,,,,,,,,,,1312.357332,1313.059526,1312.357332,1313.059526,78.23129252,1583443505,1583443508,3.149508238,1583443502,1583443505,,,ES,1,20,female,undergrad,2020_Mar_05_1304,AdjustEyeTrack,3.1.5,59.98762743
143,Stimuli/Morph143.JPG,Stimuli/Morph143.png,Stimuli/BlurLevel5/BlurEditedMorph143,Stimuli/BlurLevel5/BlurEditedMorph143.png,Stimuli/BlurLevel5/NumberedMorphs/BlurEditedMorph143.png,Stimuli/BlurLevel5/OriginalBlur/BlurEditedMorph143.png,Stimuli/BlurMorphTrio/EditedMorph143.png,None,None,,,,,1,0,1,0,0,52,52,142,,,,,,,,,,,,,,,,,,,,,,,80,53,2,182,-2.498477068,-0.087248742,143,Experiment,,,,,,,,,60,107,36,36,,,,,,,,,,,,,,,1318.837064,1319.54168,1318.837064,1319.54168,51.02040816,1583443511,1583443513,2.132951975,1583443508,1583443511,,,ES,1,20,female,undergrad,2020_Mar_05_1304,AdjustEyeTrack,3.1.5,59.98762743
74,Stimuli/Morph74.JPG,Stimuli/Morph74.png,Stimuli/BlurLevel5/BlurEditedMorph74,Stimuli/BlurLevel5/BlurEditedMorph74.png,Stimuli/BlurLevel5/NumberedMorphs/BlurEditedMorph74.png,Stimuli/BlurLevel5/OriginalBlur/BlurEditedMorph74.png,Stimuli/BlurMorphTrio/EditedMorph74.png,020232right.gif,Stimuli/normal_thumbnails/74right.gif,,,,,1,0,1,0,0,53,53,73,,,,,,,,,,,,,,,,,,,,,,,7,54,2,94,-0.174391184,2.493910126,74,Experiment,,,,,,,,,76,100,-26,-26,,,,,,,,,,,,,,,1324.335509,1325.03328,1324.335509,1325.03328,64.62585034,1583443517,1583443518,1.03431201,1583443514,1583443517,,,ES,1,20,female,undergrad,2020_Mar_05_1304,AdjustEyeTrack,3.1.5,59.98762743
106,Stimuli/Morph106.JPG,Stimuli/Morph106.png,Stimuli/BlurLevel5/BlurEditedMorph106,Stimuli/BlurLevel5/BlurEditedMorph106.png,Stimuli/BlurLevel5/NumberedMorphs/BlurEditedMorph106.png,Stimuli/BlurLevel5/OriginalBlur/BlurEditedMorph106.png,Stimuli/BlurMorphTrio/EditedMorph106.png,None,None,,,,,1,0,1,0,0,54,54,105,,,,,,,,,,,,,,,,,,,,,,,40,55,2,203,-2.301262134,-0.976827821,106,Experiment,,,,,,,,,13,107,-1,-1,,,,,,,,,,,,,,,1328.991719,1329.691924,1328.991719,1329.691924,98.63945578,1583443521,1583443523,1.748716116,1583443518,1583443521,,,ES,1,20,female,undergrad,2020_Mar_05_1304,AdjustEyeTrack,3.1.5,59.98762743
140,Stimuli/Morph140.JPG,Stimuli/Morph140.png,Stimuli/BlurLevel5/BlurEditedMorph140,Stimuli/BlurLevel5/BlurEditedMorph140.png,Stimuli/BlurLevel5/NumberedMorphs/BlurEditedMorph140.png,Stimuli/BlurLevel5/OriginalBlur/BlurEditedMorph140.png,Stimuli/BlurMorphTrio/EditedMorph140.png,None,None,,,,,1,0,1,0,0,55,55,139,,,,,,,,,,,,,,,,,,,,,,,74,56,2,337,2.301262134,-0.976827821,140,Experiment,,,,,,,,,141,103,37,37,,,,,,,,,,,,,,,1334.126069,1334.840975,1334.126069,1334.840975,49.65986395,1583443526,1583443529,3.014154196,1583443523,1583443526,,,ES,1,20,female,undergrad,2020_Mar_05_1304,AdjustEyeTrack,3.1.5,59.98762743
11,Stimuli/Morph11.JPG,Stimuli/Morph11.png,Stimuli/BlurLevel5/BlurEditedMorph11,Stimuli/BlurLevel5/BlurEditedMorph11.png,Stimuli/BlurLevel5/NumberedMorphs/BlurEditedMorph11.png,Stimuli/BlurLevel5/OriginalBlur/BlurEditedMorph11.png,Stimuli/BlurMorphTrio/EditedMorph11.png,010024right.gif,Stimuli/normal_thumbnails/11right.gif,,,,,1,0,1,0,0,56,56,10,,,,,,,,,,,,,,,,,,,,,,,15,57,2,194,-2.425739316,-0.604804739,11,Experiment,,,,,,,,,93,21,-10,-10,,,,,,,,,,,,,,,1340.540397,1341.232426,1340.540397,1341.232426,86.39455782,1583443533,1583443536,3.100023031,1583443530,1583443533,,,ES,1,20,female,undergrad,2020_Mar_05_1304,AdjustEyeTrack,3.1.5,59.98762743
107,Stimuli/Morph107.JPG,Stimuli/Morph107.png,Stimuli/BlurLevel5/BlurEditedMorph107,Stimuli/BlurLevel5/BlurEditedMorph107.png,Stimuli/BlurLevel5/NumberedMorphs/BlurEditedMorph107.png,Stimuli/BlurLevel5/OriginalBlur/BlurEditedMorph107.png,Stimuli/BlurMorphTrio/EditedMorph107.png,None,None,,,,,1,0,1,0,0,57,57,106,,,,,,,,,,,,,,,,,,,,,,,71,58,2,52,1.539153688,1.970026884,107,Experiment,,,,,,,,,139,101,6,6,,,,,,,,,,,,,,,1346.879466,1347.582491,1346.879466,1347.582491,91.83673469,1583443539,1583443542,2.966248989,1583443536,1583443539,,,ES,1,20,female,undergrad,2020_Mar_05_1304,AdjustEyeTrack,3.1.5,59.98762743
49,Stimuli/Morph49.JPG,Stimuli/Morph49.png,Stimuli/BlurLevel5/BlurEditedMorph49,Stimuli/BlurLevel5/BlurEditedMorph49.png,Stimuli/BlurLevel5/NumberedMorphs/BlurEditedMorph49.png,Stimuli/BlurLevel5/OriginalBlur/BlurEditedMorph49.png,Stimuli/BlurMorphTrio/EditedMorph49.png,010135right.gif,Stimuli/normal_thumbnails/49right.gif,,,,,1,0,1,0,0,58,58,48,,,,,,,,,,,,,,,,,,,,,,,95,59,2,297,1.134976249,-2.22751631,49,Experiment,,,,,,,,,106,49,0,0,,,,,,,,,,,,,,,1353.514826,1354.240642,1353.514826,1354.240642,100,1583443546,1583443548,1.714607954,1583443543,1583443546,,,ES,1,20,female,undergrad,2020_Mar_05_1304,AdjustEyeTrack,3.1.5,59.98762743
