stimulusID,stimulus_JPG,stimulusPath,stimulusPath2,stimulusPath3,stimulusPath4,stimulusPath5,stimulusPath6,xRayOriginal,xRayPath,Blocks.thisRepN,Blocks.thisTrialN,Blocks.thisN,Blocks.thisIndex,Trials.thisRepN,Trials.thisTrialN,Trials.thisN,Trials.thisIndex,text_2.started,text_2.stopped,xrayID,blockNumber,trialNumber,stimLocationDeg,stimXCoord,stimYCoord,stimulusID,xray1.started,xray1.stopped,tumors.started,tumors.stopped,trialCorrect%,startRespTime,endRespTime,RT,morphTrack,morphID,errorRaw,errorCorrected,startStimTime,endStimTime,key_resp.keys,key_resp.rt,participant,session,age,gender,status,date,expName,psychopyVersion,frameRate,blockType
56,Stimuli/Morph56.JPG,Stimuli/Morph56.png,Stimuli/BlurLevel5/BlurEditedMorph56,Stimuli/BlurLevel5/BlurEditedMorph56.png,Stimuli/BlurLevel5/NumberedMorphs/BlurEditedMorph56.png,Stimuli/BlurLevel5/OriginalBlur/BlurEditedMorph56.png,Stimuli/BlurMorphTrio/EditedMorph56.png,010157right.gif,Stimuli/normal_thumbnails/56right.gif,0,0,0,0,0,0,0,55,15.13797971,None,88,1,1,56,1.397982259,2.072593931,56,34.93262788,35.42421194,34.93262788,35.42421194,87.75510204,1574190316,1574190319,3.083887815,9,47,9,9,1574190314,1574190316,,,EW,1,19,F,Undergrad,2019_Nov_19_1104,AdjustExp1,3.1.5,60.04298874,Experiment
116,Stimuli/Morph116.JPG,Stimuli/Morph116.png,Stimuli/BlurLevel5/BlurEditedMorph116,Stimuli/BlurLevel5/BlurEditedMorph116.png,Stimuli/BlurLevel5/NumberedMorphs/BlurEditedMorph116.png,Stimuli/BlurLevel5/OriginalBlur/BlurEditedMorph116.png,Stimuli/BlurMorphTrio/EditedMorph116.png,None,None,0,0,0,0,0,1,1,115,,,16,1,2,318,1.857862064,-1.672826516,116,40.34124586,40.84145093,40.34124586,40.84145093,67.34693878,1574190322,1574190329,7.466619968,100,140,-24,-24,1574190319,1574190322,,,EW,1,19,F,Undergrad,2019_Nov_19_1104,AdjustExp1,3.1.5,60.04298874,Experiment
87,Stimuli/Morph87.JPG,Stimuli/Morph87.png,Stimuli/BlurLevel5/BlurEditedMorph87,Stimuli/BlurLevel5/BlurEditedMorph87.png,Stimuli/BlurLevel5/NumberedMorphs/BlurEditedMorph87.png,Stimuli/BlurLevel5/OriginalBlur/BlurEditedMorph87.png,Stimuli/BlurMorphTrio/EditedMorph87.png,020270right.gif,Stimuli/normal_thumbnails/87right.gif,0,0,0,0,0,2,2,86,,,58,1,3,202,-2.317959636,-0.936516484,87,50.08000698,50.57432249,50.08000698,50.57432249,75.51020408,1574190331,1574190334,2.867080927,50,105,-18,-18,1574190329,1574190331,,,EW,1,19,F,Undergrad,2019_Nov_19_1104,AdjustExp1,3.1.5,60.04298874,Experiment
91,Stimuli/Morph91.JPG,Stimuli/Morph91.png,Stimuli/BlurLevel5/BlurEditedMorph91,Stimuli/BlurLevel5/BlurEditedMorph91.png,Stimuli/BlurLevel5/NumberedMorphs/BlurEditedMorph91.png,Stimuli/BlurLevel5/OriginalBlur/BlurEditedMorph91.png,Stimuli/BlurMorphTrio/EditedMorph91.png,020276right.gif,Stimuli/normal_thumbnails/91right.gif,0,0,0,0,0,3,3,90,,,77,1,4,339,2.333951066,-0.895919874,91,55.25767106,55.75764658,55.25767106,55.75764658,71.42857143,1574190336,1574190337,0.783325911,112,112,-21,-21,1574190334,1574190336,,,EW,1,19,F,Undergrad,2019_Nov_19_1104,AdjustExp1,3.1.5,60.04298874,Experiment
42,Stimuli/Morph42.JPG,Stimuli/Morph42.png,Stimuli/BlurLevel5/BlurEditedMorph42,Stimuli/BlurLevel5/BlurEditedMorph42.png,Stimuli/BlurLevel5/NumberedMorphs/BlurEditedMorph42.png,Stimuli/BlurLevel5/OriginalBlur/BlurEditedMorph42.png,Stimuli/BlurMorphTrio/EditedMorph42.png,010121right.gif,Stimuli/normal_thumbnails/42right.gif,0,0,0,0,0,4,4,41,,,87,1,5,194,-2.425739316,-0.604804739,42,58.34145258,58.84115355,58.34145258,58.84115355,98.63945578,1574190340,1574190342,2.566488266,110,43,-1,-1,1574190337,1574190340,,,EW,1,19,F,Undergrad,2019_Nov_19_1104,AdjustExp1,3.1.5,60.04298874,Experiment
101,Stimuli/Morph101.JPG,Stimuli/Morph101.png,Stimuli/BlurLevel5/BlurEditedMorph101,Stimuli/BlurLevel5/BlurEditedMorph101.png,Stimuli/BlurLevel5/NumberedMorphs/BlurEditedMorph101.png,Stimuli/BlurLevel5/OriginalBlur/BlurEditedMorph101.png,Stimuli/BlurMorphTrio/EditedMorph101.png,None,None,0,0,0,0,0,5,5,100,,,81,1,6,283,0.562377636,-2.435925162,101,63.12455935,63.62444461,63.12455935,63.62444461,91.83673469,1574190344,1574190346,1.700134754,146,107,-6,-6,1574190342,1574190344,,,EW,1,19,F,Undergrad,2019_Nov_19_1104,AdjustExp1,3.1.5,60.04298874,Experiment
10,Stimuli/Morph10.JPG,Stimuli/Morph10.png,Stimuli/BlurLevel5/BlurEditedMorph10,Stimuli/BlurLevel5/BlurEditedMorph10.png,Stimuli/BlurLevel5/NumberedMorphs/BlurEditedMorph10.png,Stimuli/BlurLevel5/OriginalBlur/BlurEditedMorph10.png,Stimuli/BlurMorphTrio/EditedMorph10.png,010016right.gif,Stimuli/normal_thumbnails/10right.gif,0,0,0,0,0,6,6,9,,,100,1,7,338,2.317959636,-0.936516484,10,67.25756408,67.75813462,67.25756408,67.75813462,90.47619048,1574190348,1574190351,2.666566849,129,17,-7,-7,1574190346,1574190348,,,EW,1,19,F,Undergrad,2019_Nov_19_1104,AdjustExp1,3.1.5,60.04298874,Experiment
104,Stimuli/Morph104.JPG,Stimuli/Morph104.png,Stimuli/BlurLevel5/BlurEditedMorph104,Stimuli/BlurLevel5/BlurEditedMorph104.png,Stimuli/BlurLevel5/NumberedMorphs/BlurEditedMorph104.png,Stimuli/BlurLevel5/OriginalBlur/BlurEditedMorph104.png,Stimuli/BlurMorphTrio/EditedMorph104.png,None,None,0,0,0,0,0,7,7,103,,,53,1,8,185,-2.490486745,-0.217889357,104,72.74079843,73.24094738,72.74079843,73.24094738,83.67346939,1574190354,1574190356,1.682703733,89,92,12,12,1574190351,1574190354,,,EW,1,19,F,Undergrad,2019_Nov_19_1104,AdjustExp1,3.1.5,60.04298874,Experiment
9,Stimuli/Morph9.JPG,Stimuli/Morph9.png,Stimuli/BlurLevel5/BlurEditedMorph9,Stimuli/BlurLevel5/BlurEditedMorph9.png,Stimuli/BlurLevel5/NumberedMorphs/BlurEditedMorph9.png,Stimuli/BlurLevel5/OriginalBlur/BlurEditedMorph9.png,Stimuli/BlurMorphTrio/EditedMorph9.png,010015right.gif,Stimuli/normal_thumbnails/9right.gif,0,0,0,0,0,8,8,8,,,99,1,9,174,-2.486304738,0.261321158,9,76.80885805,77.30720243,76.80885805,77.30720243,90.47619048,1574190358,1574190361,2.700660944,146,16,-7,-7,1574190356,1574190358,,,EW,1,19,F,Undergrad,2019_Nov_19_1104,AdjustExp1,3.1.5,60.04298874,Experiment
14,Stimuli/Morph14.JPG,Stimuli/Morph14.png,Stimuli/BlurLevel5/BlurEditedMorph14,Stimuli/BlurLevel5/BlurEditedMorph14.png,Stimuli/BlurLevel5/NumberedMorphs/BlurEditedMorph14.png,Stimuli/BlurLevel5/OriginalBlur/BlurEditedMorph14.png,Stimuli/BlurMorphTrio/EditedMorph14.png,010030right.gif,Stimuli/normal_thumbnails/14right.gif,0,0,0,0,0,9,9,13,,,52,1,10,219,-1.942864904,-1.573300978,14,81.76501527,82.25727446,81.76501527,82.25727446,100,1574190363,1574190366,3.533488989,89,14,0,0,1574190361,1574190363,,,EW,1,19,F,Undergrad,2019_Nov_19_1104,AdjustExp1,3.1.5,60.04298874,Experiment
34,Stimuli/Morph34.JPG,Stimuli/Morph34.png,Stimuli/BlurLevel5/BlurEditedMorph34,Stimuli/BlurLevel5/BlurEditedMorph34.png,Stimuli/BlurLevel5/NumberedMorphs/BlurEditedMorph34.png,Stimuli/BlurLevel5/OriginalBlur/BlurEditedMorph34.png,Stimuli/BlurMorphTrio/EditedMorph34.png,010090right.gif,Stimuli/normal_thumbnails/34right.gif,0,0,0,0,0,10,10,33,,,85,1,11,1,2.499619238,0.043631016,34,87.54074192,88.04092032,87.54074192,88.04092032,94.55782313,1574190369,1574190372,2.950073957,76,30,4,4,1574190367,1574190369,,,EW,1,19,F,Undergrad,2019_Nov_19_1104,AdjustExp1,3.1.5,60.04298874,Experiment
131,Stimuli/Morph131.JPG,Stimuli/Morph131.png,Stimuli/BlurLevel5/BlurEditedMorph131,Stimuli/BlurLevel5/BlurEditedMorph131.png,Stimuli/BlurLevel5/NumberedMorphs/BlurEditedMorph131.png,Stimuli/BlurLevel5/OriginalBlur/BlurEditedMorph131.png,Stimuli/BlurMorphTrio/EditedMorph131.png,None,None,0,0,0,0,0,11,11,130,,,24,1,12,186,-2.486304738,-0.261321158,131,92.8404928,93.34091363,92.8404928,93.34091363,79.59183673,1574190374,1574190376,1.616785765,146,146,-15,-15,1574190372,1574190374,,,EW,1,19,F,Undergrad,2019_Nov_19_1104,AdjustExp1,3.1.5,60.04298874,Experiment
106,Stimuli/Morph106.JPG,Stimuli/Morph106.png,Stimuli/BlurLevel5/BlurEditedMorph106,Stimuli/BlurLevel5/BlurEditedMorph106.png,Stimuli/BlurLevel5/NumberedMorphs/BlurEditedMorph106.png,Stimuli/BlurLevel5/OriginalBlur/BlurEditedMorph106.png,Stimuli/BlurMorphTrio/EditedMorph106.png,None,None,0,0,0,0,0,12,12,105,,,6,1,13,236,-1.397982259,-2.072593931,106,97.44021156,97.9405615,97.44021156,97.9405615,100,1574190379,1574190380,1.333808899,140,106,0,0,1574190376,1574190379,,,EW,1,19,F,Undergrad,2019_Nov_19_1104,AdjustExp1,3.1.5,60.04298874,Experiment
55,Stimuli/Morph55.JPG,Stimuli/Morph55.png,Stimuli/BlurLevel5/BlurEditedMorph55,Stimuli/BlurLevel5/BlurEditedMorph55.png,Stimuli/BlurLevel5/NumberedMorphs/BlurEditedMorph55.png,Stimuli/BlurLevel5/OriginalBlur/BlurEditedMorph55.png,Stimuli/BlurMorphTrio/EditedMorph55.png,010151right.gif,Stimuli/normal_thumbnails/55right.gif,0,0,0,0,0,13,13,54,,,7,1,14,58,1.324798161,2.12012024,55,101.2933548,101.7908928,101.2933548,101.7908928,100,1574190382,1574190385,2.433428288,8,55,0,0,1574190380,1574190382,,,EW,1,19,F,Undergrad,2019_Nov_19_1104,AdjustExp1,3.1.5,60.04298874,Experiment
92,Stimuli/Morph92.JPG,Stimuli/Morph92.png,Stimuli/BlurLevel5/BlurEditedMorph92,Stimuli/BlurLevel5/BlurEditedMorph92.png,Stimuli/BlurLevel5/NumberedMorphs/BlurEditedMorph92.png,Stimuli/BlurLevel5/OriginalBlur/BlurEditedMorph92.png,Stimuli/BlurMorphTrio/EditedMorph92.png,020277right.gif,Stimuli/normal_thumbnails/92right.gif,0,0,0,0,0,14,14,91,,,34,1,15,112,-0.936516484,2.317959636,92,106.2574628,106.7576894,106.2574628,106.7576894,86.39455782,1574190387,1574190389,1.683900833,91,102,-10,-10,1574190385,1574190387,,,EW,1,19,F,Undergrad,2019_Nov_19_1104,AdjustExp1,3.1.5,60.04298874,Experiment
25,Stimuli/Morph25.JPG,Stimuli/Morph25.png,Stimuli/BlurLevel5/BlurEditedMorph25,Stimuli/BlurLevel5/BlurEditedMorph25.png,Stimuli/BlurLevel5/NumberedMorphs/BlurEditedMorph25.png,Stimuli/BlurLevel5/OriginalBlur/BlurEditedMorph25.png,Stimuli/BlurMorphTrio/EditedMorph25.png,010069right.gif,Stimuli/normal_thumbnails/25right.gif,0,0,0,0,0,15,15,24,,,58,1,16,45,1.767766953,1.767766953,25,110.5066356,111.0075221,110.5066356,111.0075221,70.06802721,1574190392,1574190393,1.467358112,3,3,22,22,1574190389,1574190392,,,EW,1,19,F,Undergrad,2019_Nov_19_1104,AdjustExp1,3.1.5,60.04298874,Experiment
29,Stimuli/Morph29.JPG,Stimuli/Morph29.png,Stimuli/BlurLevel5/BlurEditedMorph29,Stimuli/BlurLevel5/BlurEditedMorph29.png,Stimuli/BlurLevel5/NumberedMorphs/BlurEditedMorph29.png,Stimuli/BlurLevel5/OriginalBlur/BlurEditedMorph29.png,Stimuli/BlurMorphTrio/EditedMorph29.png,010074right.gif,Stimuli/normal_thumbnails/29right.gif,0,0,0,0,0,16,16,28,,,43,1,17,76,0.604804739,2.425739316,29,114.6571497,115.1573393,114.6571497,115.1573393,87.75510204,1574190396,1574190398,2.150301933,10,20,9,9,1574190393,1574190396,,,EW,1,19,F,Undergrad,2019_Nov_19_1104,AdjustExp1,3.1.5,60.04298874,Experiment
2,Stimuli/Morph2.JPG,Stimuli/Morph2.png,Stimuli/BlurLevel5/BlurEditedMorph2,Stimuli/BlurLevel5/BlurEditedMorph2.png,Stimuli/BlurLevel5/NumberedMorphs/BlurEditedMorph2.png,Stimuli/BlurLevel5/OriginalBlur/BlurEditedMorph2.png,Stimuli/BlurMorphTrio/EditedMorph2.png,010006right.gif,Stimuli/normal_thumbnails/2right.gif,0,0,0,0,0,17,17,1,,,32,1,18,197,-2.39076189,-0.730929262,2,119.2792592,119.7738922,119.2792592,119.7738922,89.11564626,1574190400,1574190403,2.700128078,13,141,-139,8,1574190398,1574190400,,,EW,1,19,F,Undergrad,2019_Nov_19_1104,AdjustExp1,3.1.5,60.04298874,Experiment
105,Stimuli/Morph105.JPG,Stimuli/Morph105.png,Stimuli/BlurLevel5/BlurEditedMorph105,Stimuli/BlurLevel5/BlurEditedMorph105.png,Stimuli/BlurLevel5/NumberedMorphs/BlurEditedMorph105.png,Stimuli/BlurLevel5/OriginalBlur/BlurEditedMorph105.png,Stimuli/BlurMorphTrio/EditedMorph105.png,None,None,0,0,0,0,0,18,18,104,,,72,1,19,271,0.043631016,-2.499619238,105,124.5567264,125.0570493,124.5567264,125.0570493,85.03401361,1574190406,1574190408,2.266756296,123,116,-11,-11,1574190403,1574190406,,,EW,1,19,F,Undergrad,2019_Nov_19_1104,AdjustExp1,3.1.5,60.04298874,Experiment
124,Stimuli/Morph124.JPG,Stimuli/Morph124.png,Stimuli/BlurLevel5/BlurEditedMorph124,Stimuli/BlurLevel5/BlurEditedMorph124.png,Stimuli/BlurLevel5/NumberedMorphs/BlurEditedMorph124.png,Stimuli/BlurLevel5/OriginalBlur/BlurEditedMorph124.png,Stimuli/BlurMorphTrio/EditedMorph124.png,None,None,0,0,0,0,0,19,19,123,,,81,1,20,114,-1.016841608,2.283863644,124,129.2727925,129.7735641,129.2727925,129.7735641,56.46258503,1574190410,1574190413,2.116964817,14,9,115,-32,1574190408,1574190410,,,EW,1,19,F,Undergrad,2019_Nov_19_1104,AdjustExp1,3.1.5,60.04298874,Experiment
48,Stimuli/Morph48.JPG,Stimuli/Morph48.png,Stimuli/BlurLevel5/BlurEditedMorph48,Stimuli/BlurLevel5/BlurEditedMorph48.png,Stimuli/BlurLevel5/NumberedMorphs/BlurEditedMorph48.png,Stimuli/BlurLevel5/OriginalBlur/BlurEditedMorph48.png,Stimuli/BlurMorphTrio/EditedMorph48.png,010131right.gif,Stimuli/normal_thumbnails/48right.gif,0,0,0,0,0,20,20,47,,,56,1,21,339,2.333951066,-0.895919874,48,134.2790673,134.7736626,134.2790673,134.7736626,80.95238095,1574190415,1574190419,3.416653156,61,62,-14,-14,1574190413,1574190415,,,EW,1,19,F,Undergrad,2019_Nov_19_1104,AdjustExp1,3.1.5,60.04298874,Experiment
82,Stimuli/Morph82.JPG,Stimuli/Morph82.png,Stimuli/BlurLevel5/BlurEditedMorph82,Stimuli/BlurLevel5/BlurEditedMorph82.png,Stimuli/BlurLevel5/NumberedMorphs/BlurEditedMorph82.png,Stimuli/BlurLevel5/OriginalBlur/BlurEditedMorph82.png,Stimuli/BlurMorphTrio/EditedMorph82.png,020247right.gif,Stimuli/normal_thumbnails/82right.gif,0,0,0,0,0,21,21,81,,,88,1,22,313,1.7049959,-1.828384254,82,140.0442805,140.5400718,140.0442805,140.5400718,100,1574190421,1574190422,0.933588028,82,82,0,0,1574190419,1574190421,,,EW,1,19,F,Undergrad,2019_Nov_19_1104,AdjustExp1,3.1.5,60.04298874,Experiment
115,Stimuli/Morph115.JPG,Stimuli/Morph115.png,Stimuli/BlurLevel5/BlurEditedMorph115,Stimuli/BlurLevel5/BlurEditedMorph115.png,Stimuli/BlurLevel5/NumberedMorphs/BlurEditedMorph115.png,Stimuli/BlurLevel5/OriginalBlur/BlurEditedMorph115.png,Stimuli/BlurMorphTrio/EditedMorph115.png,None,None,0,0,0,0,0,22,22,114,,,28,1,23,286,0.68909339,-2.40315424,115,143.3902379,143.8904152,143.3902379,143.8904152,67.34693878,1574190425,1574190427,2.234039068,82,91,24,24,1574190422,1574190425,,,EW,1,19,F,Undergrad,2019_Nov_19_1104,AdjustExp1,3.1.5,60.04298874,Experiment
147,Stimuli/Morph147.JPG,Stimuli/Morph147.png,Stimuli/BlurLevel5/BlurEditedMorph147,Stimuli/BlurLevel5/BlurEditedMorph147.png,Stimuli/BlurLevel5/NumberedMorphs/BlurEditedMorph147.png,Stimuli/BlurLevel5/OriginalBlur/BlurEditedMorph147.png,Stimuli/BlurMorphTrio/EditedMorph147.png,None,None,0,0,0,0,0,23,23,146,,,70,1,24,20,2.349231552,0.855050358,147,147.8751387,148.373004,147.8751387,148.373004,94.55782313,1574190429,1574190431,2.216843128,55,143,4,4,1574190427,1574190429,,,EW,1,19,F,Undergrad,2019_Nov_19_1104,AdjustExp1,3.1.5,60.04298874,Experiment
94,Stimuli/Morph94.JPG,Stimuli/Morph94.png,Stimuli/BlurLevel5/BlurEditedMorph94,Stimuli/BlurLevel5/BlurEditedMorph94.png,Stimuli/BlurLevel5/NumberedMorphs/BlurEditedMorph94.png,Stimuli/BlurLevel5/OriginalBlur/BlurEditedMorph94.png,Stimuli/BlurMorphTrio/EditedMorph94.png,020286right.gif,Stimuli/normal_thumbnails/94right.gif,0,0,0,0,0,24,24,93,,,72,1,25,343,2.39076189,-0.730929262,94,152.4085764,152.9070351,152.4085764,152.9070351,76.8707483,1574190434,1574190436,2.616993904,3,111,-17,-17,1574190432,1574190434,,,EW,1,19,F,Undergrad,2019_Nov_19_1104,AdjustExp1,3.1.5,60.04298874,Experiment
88,Stimuli/Morph88.JPG,Stimuli/Morph88.png,Stimuli/BlurLevel5/BlurEditedMorph88,Stimuli/BlurLevel5/BlurEditedMorph88.png,Stimuli/BlurLevel5/NumberedMorphs/BlurEditedMorph88.png,Stimuli/BlurLevel5/OriginalBlur/BlurEditedMorph88.png,Stimuli/BlurMorphTrio/EditedMorph88.png,020271right.gif,Stimuli/normal_thumbnails/88right.gif,0,0,0,0,0,25,25,87,,,52,1,26,67,0.976827821,2.301262134,88,157.5398331,158.039663,157.5398331,158.039663,82.31292517,1574190439,1574190441,1.81683898,102,101,-13,-13,1574190436,1574190439,,,EW,1,19,F,Undergrad,2019_Nov_19_1104,AdjustExp1,3.1.5,60.04298874,Experiment
21,Stimuli/Morph21.JPG,Stimuli/Morph21.png,Stimuli/BlurLevel5/BlurEditedMorph21,Stimuli/BlurLevel5/BlurEditedMorph21.png,Stimuli/BlurLevel5/NumberedMorphs/BlurEditedMorph21.png,Stimuli/BlurLevel5/OriginalBlur/BlurEditedMorph21.png,Stimuli/BlurMorphTrio/EditedMorph21.png,010049right.gif,Stimuli/normal_thumbnails/21right.gif,0,0,0,0,0,26,26,20,,,81,1,27,346,2.425739316,-0.604804739,21,161.5896423,162.0898531,161.5896423,162.0898531,91.83673469,1574190443,1574190445,2.350467205,20,15,6,6,1574190441,1574190443,,,EW,1,19,F,Undergrad,2019_Nov_19_1104,AdjustExp1,3.1.5,60.04298874,Experiment
30,Stimuli/Morph30.JPG,Stimuli/Morph30.png,Stimuli/BlurLevel5/BlurEditedMorph30,Stimuli/BlurLevel5/BlurEditedMorph30.png,Stimuli/BlurLevel5/NumberedMorphs/BlurEditedMorph30.png,Stimuli/BlurLevel5/OriginalBlur/BlurEditedMorph30.png,Stimuli/BlurMorphTrio/EditedMorph30.png,010076right.gif,Stimuli/normal_thumbnails/30right.gif,0,0,0,0,0,27,27,29,,,43,1,28,50,1.606969024,1.915111108,30,166.4748914,166.9733899,166.4748914,166.9733899,90.47619048,1574190448,1574190454,5.950285912,90,23,7,7,1574190445,1574190448,,,EW,1,19,F,Undergrad,2019_Nov_19_1104,AdjustExp1,3.1.5,60.04298874,Experiment
110,Stimuli/Morph110.JPG,Stimuli/Morph110.png,Stimuli/BlurLevel5/BlurEditedMorph110,Stimuli/BlurLevel5/BlurEditedMorph110.png,Stimuli/BlurLevel5/NumberedMorphs/BlurEditedMorph110.png,Stimuli/BlurLevel5/OriginalBlur/BlurEditedMorph110.png,Stimuli/BlurMorphTrio/EditedMorph110.png,None,None,0,0,0,0,0,28,28,109,,,12,1,29,159,-2.333951066,0.895919874,110,175.4065154,175.9062797,175.4065154,175.9062797,85.03401361,1574190457,1574190458,0.950514793,99,99,11,11,1574190454,1574190457,,,EW,1,19,F,Undergrad,2019_Nov_19_1104,AdjustExp1,3.1.5,60.04298874,Experiment
31,Stimuli/Morph31.JPG,Stimuli/Morph31.png,Stimuli/BlurLevel5/BlurEditedMorph31,Stimuli/BlurLevel5/BlurEditedMorph31.png,Stimuli/BlurLevel5/NumberedMorphs/BlurEditedMorph31.png,Stimuli/BlurLevel5/OriginalBlur/BlurEditedMorph31.png,Stimuli/BlurMorphTrio/EditedMorph31.png,010079right.gif,Stimuli/normal_thumbnails/31right.gif,0,0,0,0,0,29,29,30,,,36,1,30,251,-0.813920386,-2.363796439,31,179.0888954,179.5899054,179.0888954,179.5899054,53.7414966,1574190460,1574190463,3.117012978,79,144,-113,34,1574190458,1574190460,,,EW,1,19,F,Undergrad,2019_Nov_19_1104,AdjustExp1,3.1.5,60.04298874,Experiment
109,Stimuli/Morph109.JPG,Stimuli/Morph109.png,Stimuli/BlurLevel5/BlurEditedMorph109,Stimuli/BlurLevel5/BlurEditedMorph109.png,Stimuli/BlurLevel5/NumberedMorphs/BlurEditedMorph109.png,Stimuli/BlurLevel5/OriginalBlur/BlurEditedMorph109.png,Stimuli/BlurMorphTrio/EditedMorph109.png,None,None,0,0,0,0,0,30,30,108,,,72,1,31,56,1.397982259,2.072593931,109,184.7058192,185.2066068,184.7058192,185.2066068,78.23129252,1574190466,1574190469,2.93295002,98,93,16,16,1574190464,1574190466,,,EW,1,19,F,Undergrad,2019_Nov_19_1104,AdjustExp1,3.1.5,60.04298874,Experiment
136,Stimuli/Morph136.JPG,Stimuli/Morph136.png,Stimuli/BlurLevel5/BlurEditedMorph136,Stimuli/BlurLevel5/BlurEditedMorph136.png,Stimuli/BlurLevel5/NumberedMorphs/BlurEditedMorph136.png,Stimuli/BlurLevel5/OriginalBlur/BlurEditedMorph136.png,Stimuli/BlurMorphTrio/EditedMorph136.png,None,None,0,0,0,0,0,31,31,135,,,7,1,32,219,-1.942864904,-1.573300978,136,190.1066996,190.606489,190.1066996,190.606489,82.31292517,1574190471,1574190473,2.184278011,30,2,134,-13,1574190469,1574190471,,,EW,1,19,F,Undergrad,2019_Nov_19_1104,AdjustExp1,3.1.5,60.04298874,Experiment
53,Stimuli/Morph53.JPG,Stimuli/Morph53.png,Stimuli/BlurLevel5/BlurEditedMorph53,Stimuli/BlurLevel5/BlurEditedMorph53.png,Stimuli/BlurLevel5/NumberedMorphs/BlurEditedMorph53.png,Stimuli/BlurLevel5/OriginalBlur/BlurEditedMorph53.png,Stimuli/BlurMorphTrio/EditedMorph53.png,010149right.gif,Stimuli/normal_thumbnails/53right.gif,0,0,0,0,0,32,32,52,,,42,1,33,123,-1.361597588,2.09667642,53,195.2131607,195.705399,195.2131607,195.705399,95.91836735,1574190476,1574190479,2.849826097,18,50,3,3,1574190474,1574190476,,,EW,1,19,F,Undergrad,2019_Nov_19_1104,AdjustExp1,3.1.5,60.04298874,Experiment
114,Stimuli/Morph114.JPG,Stimuli/Morph114.png,Stimuli/BlurLevel5/BlurEditedMorph114,Stimuli/BlurLevel5/BlurEditedMorph114.png,Stimuli/BlurLevel5/NumberedMorphs/BlurEditedMorph114.png,Stimuli/BlurLevel5/OriginalBlur/BlurEditedMorph114.png,Stimuli/BlurMorphTrio/EditedMorph114.png,None,None,0,0,0,0,0,33,33,113,,,52,1,34,168,-2.445369002,0.519779227,114,200.3624874,200.8563347,200.3624874,200.8563347,70.06802721,1574190482,1574190483,1.150641203,92,92,22,22,1574190480,1574190482,,,EW,1,19,F,Undergrad,2019_Nov_19_1104,AdjustExp1,3.1.5,60.04298874,Experiment
112,Stimuli/Morph112.JPG,Stimuli/Morph112.png,Stimuli/BlurLevel5/BlurEditedMorph112,Stimuli/BlurLevel5/BlurEditedMorph112.png,Stimuli/BlurLevel5/NumberedMorphs/BlurEditedMorph112.png,Stimuli/BlurLevel5/OriginalBlur/BlurEditedMorph112.png,Stimuli/BlurMorphTrio/EditedMorph112.png,None,None,0,0,0,0,0,34,34,111,,,40,1,35,109,-0.813920386,2.363796439,112,203.8925645,204.3884724,203.8925645,204.3884724,85.03401361,1574190485,1574190487,2.233498096,130,123,-11,-11,1574190483,1574190485,,,EW,1,19,F,Undergrad,2019_Nov_19_1104,AdjustExp1,3.1.5,60.04298874,Experiment
73,Stimuli/Morph73.JPG,Stimuli/Morph73.png,Stimuli/BlurLevel5/BlurEditedMorph73,Stimuli/BlurLevel5/BlurEditedMorph73.png,Stimuli/BlurLevel5/NumberedMorphs/BlurEditedMorph73.png,Stimuli/BlurLevel5/OriginalBlur/BlurEditedMorph73.png,Stimuli/BlurMorphTrio/EditedMorph73.png,020230right.gif,Stimuli/normal_thumbnails/73right.gif,0,0,0,0,0,35,35,72,,,40,1,36,282,0.519779227,-2.445369002,73,208.3265104,208.8216296,208.3265104,208.8216296,76.8707483,1574190490,1574190492,2.066920042,36,56,17,17,1574190488,1574190489,,,EW,1,19,F,Undergrad,2019_Nov_19_1104,AdjustExp1,3.1.5,60.04298874,Experiment
27,Stimuli/Morph27.JPG,Stimuli/Morph27.png,Stimuli/BlurLevel5/BlurEditedMorph27,Stimuli/BlurLevel5/BlurEditedMorph27.png,Stimuli/BlurLevel5/NumberedMorphs/BlurEditedMorph27.png,Stimuli/BlurLevel5/OriginalBlur/BlurEditedMorph27.png,Stimuli/BlurMorphTrio/EditedMorph27.png,010072right.gif,Stimuli/normal_thumbnails/27right.gif,0,0,0,0,0,36,36,26,,,27,1,37,226,-1.736645926,-1.798349501,27,212.9258203,213.4226707,212.9258203,213.4226707,80.95238095,1574190494,1574190499,4.583411932,82,13,14,14,1574190492,1574190494,,,EW,1,19,F,Undergrad,2019_Nov_19_1104,AdjustExp1,3.1.5,60.04298874,Experiment
119,Stimuli/Morph119.JPG,Stimuli/Morph119.png,Stimuli/BlurLevel5/BlurEditedMorph119,Stimuli/BlurLevel5/BlurEditedMorph119.png,Stimuli/BlurLevel5/NumberedMorphs/BlurEditedMorph119.png,Stimuli/BlurLevel5/OriginalBlur/BlurEditedMorph119.png,Stimuli/BlurMorphTrio/EditedMorph119.png,None,None,0,0,0,0,0,37,37,118,,,37,1,38,188,-2.475670172,-0.347932752,119,220.1558964,220.6558551,220.1558964,220.6558551,93.19727891,1574190501,1574190505,3.200647116,15,114,5,5,1574190499,1574190501,,,EW,1,19,F,Undergrad,2019_Nov_19_1104,AdjustExp1,3.1.5,60.04298874,Experiment
78,Stimuli/Morph78.JPG,Stimuli/Morph78.png,Stimuli/BlurLevel5/BlurEditedMorph78,Stimuli/BlurLevel5/BlurEditedMorph78.png,Stimuli/BlurLevel5/NumberedMorphs/BlurEditedMorph78.png,Stimuli/BlurLevel5/OriginalBlur/BlurEditedMorph78.png,Stimuli/BlurMorphTrio/EditedMorph78.png,020238right.gif,Stimuli/normal_thumbnails/78right.gif,0,0,0,0,0,38,38,77,,,63,1,39,329,2.142918252,-1.287595187,78,226.0242064,226.5221503,226.0242064,226.5221503,46.93877551,1574190507,1574190513,5.783298969,133,117,-39,-39,1574190505,1574190507,,,EW,1,19,F,Undergrad,2019_Nov_19_1104,AdjustExp1,3.1.5,60.04298874,Experiment
121,Stimuli/Morph121.JPG,Stimuli/Morph121.png,Stimuli/BlurLevel5/BlurEditedMorph121,Stimuli/BlurLevel5/BlurEditedMorph121.png,Stimuli/BlurLevel5/NumberedMorphs/BlurEditedMorph121.png,Stimuli/BlurLevel5/OriginalBlur/BlurEditedMorph121.png,Stimuli/BlurMorphTrio/EditedMorph121.png,None,None,0,0,0,0,0,39,39,120,,,100,1,40,219,-1.942864904,-1.573300978,121,234.2228501,234.7221404,234.2228501,234.7221404,93.19727891,1574190515,1574190520,4.833957911,48,116,5,5,1574190513,1574190515,,,EW,1,19,F,Undergrad,2019_Nov_19_1104,AdjustExp1,3.1.5,60.04298874,Experiment
49,Stimuli/Morph49.JPG,Stimuli/Morph49.png,Stimuli/BlurLevel5/BlurEditedMorph49,Stimuli/BlurLevel5/BlurEditedMorph49.png,Stimuli/BlurLevel5/NumberedMorphs/BlurEditedMorph49.png,Stimuli/BlurLevel5/OriginalBlur/BlurEditedMorph49.png,Stimuli/BlurMorphTrio/EditedMorph49.png,010135right.gif,Stimuli/normal_thumbnails/49right.gif,0,0,0,0,0,40,40,48,,,94,1,41,72,0.772542486,2.377641291,49,242.0732936,242.5716188,242.0732936,242.5716188,86.39455782,1574190523,1574190525,2.033569813,38,39,10,10,1574190521,1574190523,,,EW,1,19,F,Undergrad,2019_Nov_19_1104,AdjustExp1,3.1.5,60.04298874,Experiment
62,Stimuli/Morph62.JPG,Stimuli/Morph62.png,Stimuli/BlurLevel5/BlurEditedMorph62,Stimuli/BlurLevel5/BlurEditedMorph62.png,Stimuli/BlurLevel5/NumberedMorphs/BlurEditedMorph62.png,Stimuli/BlurLevel5/OriginalBlur/BlurEditedMorph62.png,Stimuli/BlurMorphTrio/EditedMorph62.png,020205right.gif,Stimuli/normal_thumbnails/62right.gif,0,0,0,0,0,41,41,61,,,17,1,42,138,-1.857862064,1.672826516,62,246.9216575,247.4220355,246.9216575,247.4220355,83.67346939,1574190528,1574190530,2.00023675,18,50,12,12,1574190526,1574190528,,,EW,1,19,F,Undergrad,2019_Nov_19_1104,AdjustExp1,3.1.5,60.04298874,Experiment
137,Stimuli/Morph137.JPG,Stimuli/Morph137.png,Stimuli/BlurLevel5/BlurEditedMorph137,Stimuli/BlurLevel5/BlurEditedMorph137.png,Stimuli/BlurLevel5/NumberedMorphs/BlurEditedMorph137.png,Stimuli/BlurLevel5/OriginalBlur/BlurEditedMorph137.png,Stimuli/BlurMorphTrio/EditedMorph137.png,None,None,0,0,0,0,0,42,42,136,,,3,1,43,180,-2.5,3.06E-16,137,251.6947489,252.1889676,251.6947489,252.1889676,87.75510204,1574190533,1574190540,6.683195829,54,128,9,9,1574190530,1574190533,,,EW,1,19,F,Undergrad,2019_Nov_19_1104,AdjustExp1,3.1.5,60.04298874,Experiment
118,Stimuli/Morph118.JPG,Stimuli/Morph118.png,Stimuli/BlurLevel5/BlurEditedMorph118,Stimuli/BlurLevel5/BlurEditedMorph118.png,Stimuli/BlurLevel5/NumberedMorphs/BlurEditedMorph118.png,Stimuli/BlurLevel5/OriginalBlur/BlurEditedMorph118.png,Stimuli/BlurMorphTrio/EditedMorph118.png,None,None,0,0,0,0,0,43,43,117,,,80,1,44,325,2.047880111,-1.433941091,118,260.590074,261.0883602,260.590074,261.0883602,97.27891156,1574190542,1574190545,3.699928045,132,120,-2,-2,1574190540,1574190542,,,EW,1,19,F,Undergrad,2019_Nov_19_1104,AdjustExp1,3.1.5,60.04298874,Experiment
59,Stimuli/Morph59.JPG,Stimuli/Morph59.png,Stimuli/BlurLevel5/BlurEditedMorph59,Stimuli/BlurLevel5/BlurEditedMorph59.png,Stimuli/BlurLevel5/NumberedMorphs/BlurEditedMorph59.png,Stimuli/BlurLevel5/OriginalBlur/BlurEditedMorph59.png,Stimuli/BlurMorphTrio/EditedMorph59.png,010160right.gif,Stimuli/normal_thumbnails/59right.gif,0,0,0,0,0,44,44,58,,,45,1,45,80,0.434120444,2.462019383,59,266.4784937,266.9719079,266.4784937,266.9719079,90.47619048,1574190548,1574190550,2.450367928,65,66,-7,-7,1574190546,1574190548,,,EW,1,19,F,Undergrad,2019_Nov_19_1104,AdjustExp1,3.1.5,60.04298874,Experiment
15,Stimuli/Morph15.JPG,Stimuli/Morph15.png,Stimuli/BlurLevel5/BlurEditedMorph15,Stimuli/BlurLevel5/BlurEditedMorph15.png,Stimuli/BlurLevel5/NumberedMorphs/BlurEditedMorph15.png,Stimuli/BlurLevel5/OriginalBlur/BlurEditedMorph15.png,Stimuli/BlurMorphTrio/EditedMorph15.png,010031right.gif,Stimuli/normal_thumbnails/15right.gif,0,0,0,0,0,45,45,14,,,77,1,46,219,-1.942864904,-1.573300978,15,271.2570856,271.7551012,271.2570856,271.7551012,91.83673469,1574190552,1574190556,3.600068092,105,21,-6,-6,1574190550,1574190552,,,EW,1,19,F,Undergrad,2019_Nov_19_1104,AdjustExp1,3.1.5,60.04298874,Experiment
1,Stimuli/Morph1.JPG,Stimuli/Morph1.png,Stimuli/BlurLevel5/BlurEditedMorph1,Stimuli/BlurLevel5/BlurEditedMorph1.png,Stimuli/BlurLevel5/NumberedMorphs/BlurEditedMorph1.png,Stimuli/BlurLevel5/OriginalBlur/BlurEditedMorph1.png,Stimuli/BlurMorphTrio/EditedMorph1.png,010003right.gif,Stimuli/normal_thumbnails/1right.gif,0,0,0,0,0,46,46,0,,,88,1,47,237,-1.361597588,-2.09667642,1,277.4723849,277.971886,277.4723849,277.971886,89.11564626,1574190559,1574190564,4.950548172,98,9,-8,-8,1574190556,1574190559,,,EW,1,19,F,Undergrad,2019_Nov_19_1104,AdjustExp1,3.1.5,60.04298874,Experiment
71,Stimuli/Morph71.JPG,Stimuli/Morph71.png,Stimuli/BlurLevel5/BlurEditedMorph71,Stimuli/BlurLevel5/BlurEditedMorph71.png,Stimuli/BlurLevel5/NumberedMorphs/BlurEditedMorph71.png,Stimuli/BlurLevel5/OriginalBlur/BlurEditedMorph71.png,Stimuli/BlurMorphTrio/EditedMorph71.png,020225right.gif,Stimuli/normal_thumbnails/71right.gif,0,0,0,0,0,47,47,70,,,24,1,48,253,-0.730929262,-2.39076189,71,285.1217905,285.6214924,285.1217905,285.6214924,70.06802721,1574190566,1574190571,4.666903019,9,93,-22,-22,1574190564,1574190566,,,EW,1,19,F,Undergrad,2019_Nov_19_1104,AdjustExp1,3.1.5,60.04298874,Experiment
75,Stimuli/Morph75.JPG,Stimuli/Morph75.png,Stimuli/BlurLevel5/BlurEditedMorph75,Stimuli/BlurLevel5/BlurEditedMorph75.png,Stimuli/BlurLevel5/NumberedMorphs/BlurEditedMorph75.png,Stimuli/BlurLevel5/OriginalBlur/BlurEditedMorph75.png,Stimuli/BlurMorphTrio/EditedMorph75.png,020233right.gif,Stimuli/normal_thumbnails/75right.gif,0,0,0,0,0,48,48,74,,,24,1,49,343,2.39076189,-0.730929262,75,291.9877271,292.4883569,291.9877271,292.4883569,85.03401361,1574190573,1574190576,3.201160908,67,86,-11,-11,1574190571,1574190573,,,EW,1,19,F,Undergrad,2019_Nov_19_1104,AdjustExp1,3.1.5,60.04298874,Experiment
84,Stimuli/Morph84.JPG,Stimuli/Morph84.png,Stimuli/BlurLevel5/BlurEditedMorph84,Stimuli/BlurLevel5/BlurEditedMorph84.png,Stimuli/BlurLevel5/NumberedMorphs/BlurEditedMorph84.png,Stimuli/BlurLevel5/OriginalBlur/BlurEditedMorph84.png,Stimuli/BlurMorphTrio/EditedMorph84.png,020261right.gif,Stimuli/normal_thumbnails/84right.gif,0,0,0,0,0,49,49,83,,,80,1,50,143,-1.996588775,1.504537558,84,297.4145532,297.9046717,297.4145532,297.9046717,22.44897959,1574190579,1574190586,7.366341829,6,141,-57,-57,1574190577,1574190579,,,EW,1,19,F,Undergrad,2019_Nov_19_1104,AdjustExp1,3.1.5,60.04298874,Experiment
120,Stimuli/Morph120.JPG,Stimuli/Morph120.png,Stimuli/BlurLevel5/BlurEditedMorph120,Stimuli/BlurLevel5/BlurEditedMorph120.png,Stimuli/BlurLevel5/NumberedMorphs/BlurEditedMorph120.png,Stimuli/BlurLevel5/OriginalBlur/BlurEditedMorph120.png,Stimuli/BlurMorphTrio/EditedMorph120.png,None,None,0,0,0,0,0,50,50,119,,,74,1,51,296,1.095927867,-2.246985116,120,307.4204653,307.9210988,307.4204653,307.9210988,95.91836735,1574190589,1574190591,2.850217104,48,123,-3,-3,1574190586,1574190589,,,EW,1,19,F,Undergrad,2019_Nov_19_1104,AdjustExp1,3.1.5,60.04298874,Experiment
51,Stimuli/Morph51.JPG,Stimuli/Morph51.png,Stimuli/BlurLevel5/BlurEditedMorph51,Stimuli/BlurLevel5/BlurEditedMorph51.png,Stimuli/BlurLevel5/NumberedMorphs/BlurEditedMorph51.png,Stimuli/BlurLevel5/OriginalBlur/BlurEditedMorph51.png,Stimuli/BlurMorphTrio/EditedMorph51.png,010146right.gif,Stimuli/normal_thumbnails/51right.gif,0,0,0,0,0,51,51,50,,,85,1,52,8,2.475670172,0.347932752,51,312.837222,313.3380627,312.837222,313.3380627,82.31292517,1574190594,1574190597,2.517221928,108,64,-13,-13,1574190592,1574190594,,,EW,1,19,F,Undergrad,2019_Nov_19_1104,AdjustExp1,3.1.5,60.04298874,Experiment
11,Stimuli/Morph11.JPG,Stimuli/Morph11.png,Stimuli/BlurLevel5/BlurEditedMorph11,Stimuli/BlurLevel5/BlurEditedMorph11.png,Stimuli/BlurLevel5/NumberedMorphs/BlurEditedMorph11.png,Stimuli/BlurLevel5/OriginalBlur/BlurEditedMorph11.png,Stimuli/BlurMorphTrio/EditedMorph11.png,010024right.gif,Stimuli/normal_thumbnails/11right.gif,0,0,0,0,0,52,52,10,,,7,1,53,250,-0.855050358,-2.349231552,11,317.9381496,318.4376265,317.9381496,318.4376265,94.55782313,1574190599,1574190601,1.566289186,55,15,-4,-4,1574190597,1574190599,,,EW,1,19,F,Undergrad,2019_Nov_19_1104,AdjustExp1,3.1.5,60.04298874,Experiment
89,Stimuli/Morph89.JPG,Stimuli/Morph89.png,Stimuli/BlurLevel5/BlurEditedMorph89,Stimuli/BlurLevel5/BlurEditedMorph89.png,Stimuli/BlurLevel5/NumberedMorphs/BlurEditedMorph89.png,Stimuli/BlurLevel5/OriginalBlur/BlurEditedMorph89.png,Stimuli/BlurMorphTrio/EditedMorph89.png,020273right.gif,Stimuli/normal_thumbnails/89right.gif,0,0,0,0,0,53,53,88,,,21,1,54,208,-2.207368982,-1.173678907,89,321.988733,322.4878761,321.988733,322.4878761,94.55782313,1574190603,1574190604,1.183395147,93,93,-4,-4,1574190601,1574190603,,,EW,1,19,F,Undergrad,2019_Nov_19_1104,AdjustExp1,3.1.5,60.04298874,Experiment
127,Stimuli/Morph127.JPG,Stimuli/Morph127.png,Stimuli/BlurLevel5/BlurEditedMorph127,Stimuli/BlurLevel5/BlurEditedMorph127.png,Stimuli/BlurLevel5/NumberedMorphs/BlurEditedMorph127.png,Stimuli/BlurLevel5/OriginalBlur/BlurEditedMorph127.png,Stimuli/BlurMorphTrio/EditedMorph127.png,None,None,0,0,0,0,0,54,54,126,,,85,1,55,128,-1.539153688,1.970026884,127,325.3544368,325.8543735,325.3544368,325.8543735,78.23129252,1574190607,1574190609,2.299996138,47,111,16,16,1574190605,1574190607,,,EW,1,19,F,Undergrad,2019_Nov_19_1104,AdjustExp1,3.1.5,60.04298874,Experiment
142,Stimuli/Morph142.JPG,Stimuli/Morph142.png,Stimuli/BlurLevel5/BlurEditedMorph142,Stimuli/BlurLevel5/BlurEditedMorph142.png,Stimuli/BlurLevel5/NumberedMorphs/BlurEditedMorph142.png,Stimuli/BlurLevel5/OriginalBlur/BlurEditedMorph142.png,Stimuli/BlurMorphTrio/EditedMorph142.png,None,None,0,0,0,0,0,55,55,141,,,3,1,56,321,1.942864904,-1.573300978,142,330.0436752,330.537583,330.0436752,330.537583,76.8707483,1574190611,1574190613,1.784130096,51,12,130,-17,1574190609,1574190611,,,EW,1,19,F,Undergrad,2019_Nov_19_1104,AdjustExp1,3.1.5,60.04298874,Experiment
102,Stimuli/Morph102.JPG,Stimuli/Morph102.png,Stimuli/BlurLevel5/BlurEditedMorph102,Stimuli/BlurLevel5/BlurEditedMorph102.png,Stimuli/BlurLevel5/NumberedMorphs/BlurEditedMorph102.png,Stimuli/BlurLevel5/OriginalBlur/BlurEditedMorph102.png,Stimuli/BlurMorphTrio/EditedMorph102.png,None,None,0,0,0,0,0,56,56,101,,,88,1,57,304,1.397982259,-2.072593931,102,334.2737307,334.7706013,334.2737307,334.7706013,98.63945578,1574190615,1574190617,1.949379206,77,101,1,1,1574190613,1574190615,,,EW,1,19,F,Undergrad,2019_Nov_19_1104,AdjustExp1,3.1.5,60.04298874,Experiment
54,Stimuli/Morph54.JPG,Stimuli/Morph54.png,Stimuli/BlurLevel5/BlurEditedMorph54,Stimuli/BlurLevel5/BlurEditedMorph54.png,Stimuli/BlurLevel5/NumberedMorphs/BlurEditedMorph54.png,Stimuli/BlurLevel5/OriginalBlur/BlurEditedMorph54.png,Stimuli/BlurMorphTrio/EditedMorph54.png,010150right.gif,Stimuli/normal_thumbnails/54right.gif,0,0,0,0,0,57,57,53,,,38,1,58,351,2.469220851,-0.391086163,54,338.8703208,339.370368,338.8703208,339.370368,91.83673469,1574190620,1574190622,2.049628973,110,48,6,6,1574190618,1574190620,,,EW,1,19,F,Undergrad,2019_Nov_19_1104,AdjustExp1,3.1.5,60.04298874,Experiment
16,Stimuli/Morph16.JPG,Stimuli/Morph16.png,Stimuli/BlurLevel5/BlurEditedMorph16,Stimuli/BlurLevel5/BlurEditedMorph16.png,Stimuli/BlurLevel5/NumberedMorphs/BlurEditedMorph16.png,Stimuli/BlurLevel5/OriginalBlur/BlurEditedMorph16.png,Stimuli/BlurMorphTrio/EditedMorph16.png,010034right.gif,Stimuli/normal_thumbnails/16right.gif,0,0,0,0,0,58,58,15,,,6,1,59,72,0.772542486,2.377641291,16,343.687168,344.1871811,343.687168,344.1871811,98.63945578,1574190625,1574190628,2.649579048,109,17,-1,-1,1574190622,1574190625,,,EW,1,19,F,Undergrad,2019_Nov_19_1104,AdjustExp1,3.1.5,60.04298874,Experiment
96,Stimuli/Morph96.JPG,Stimuli/Morph96.png,Stimuli/BlurLevel5/BlurEditedMorph96,Stimuli/BlurLevel5/BlurEditedMorph96.png,Stimuli/BlurLevel5/NumberedMorphs/BlurEditedMorph96.png,Stimuli/BlurLevel5/OriginalBlur/BlurEditedMorph96.png,Stimuli/BlurMorphTrio/EditedMorph96.png,020292right.gif,Stimuli/normal_thumbnails/96right.gif,0,0,0,0,0,59,59,95,,,94,1,60,91,-0.043631016,2.499619238,96,349.336838,349.8371119,349.336838,349.8371119,68.70748299,1574190631,1574190631,0.767313004,119,119,-23,-23,1574190628,1574190631,,,EW,1,19,F,Undergrad,2019_Nov_19_1104,AdjustExp1,3.1.5,60.04298874,Experiment
37,Stimuli/Morph37.JPG,Stimuli/Morph37.png,Stimuli/BlurLevel5/BlurEditedMorph37,Stimuli/BlurLevel5/BlurEditedMorph37.png,Stimuli/BlurLevel5/NumberedMorphs/BlurEditedMorph37.png,Stimuli/BlurLevel5/OriginalBlur/BlurEditedMorph37.png,Stimuli/BlurMorphTrio/EditedMorph37.png,010097right.gif,Stimuli/normal_thumbnails/37right.gif,0,0,0,0,0,60,60,36,,,25,1,61,31,2.142918252,1.287595187,37,352.6218115,353.1208613,352.6218115,353.1208613,97.27891156,1574190634,1574190636,2.233781099,127,39,-2,-2,1574190632,1574190634,,,EW,1,19,F,Undergrad,2019_Nov_19_1104,AdjustExp1,3.1.5,60.04298874,Experiment
99,Stimuli/Morph99.JPG,Stimuli/Morph99.png,Stimuli/BlurLevel5/BlurEditedMorph99,Stimuli/BlurLevel5/BlurEditedMorph99.png,Stimuli/BlurLevel5/NumberedMorphs/BlurEditedMorph99.png,Stimuli/BlurLevel5/OriginalBlur/BlurEditedMorph99.png,Stimuli/BlurMorphTrio/EditedMorph99.png,020299right.gif,Stimuli/normal_thumbnails/99right.gif,0,0,0,0,0,61,61,98,,,30,1,62,83,0.304673359,2.481365379,99,357.3548573,357.8534863,357.3548573,357.8534863,76.8707483,1574190639,1574190641,2.249844313,44,116,-17,-17,1574190636,1574190639,,,EW,1,19,F,Undergrad,2019_Nov_19_1104,AdjustExp1,3.1.5,60.04298874,Experiment
40,Stimuli/Morph40.JPG,Stimuli/Morph40.png,Stimuli/BlurLevel5/BlurEditedMorph40,Stimuli/BlurLevel5/BlurEditedMorph40.png,Stimuli/BlurLevel5/NumberedMorphs/BlurEditedMorph40.png,Stimuli/BlurLevel5/OriginalBlur/BlurEditedMorph40.png,Stimuli/BlurMorphTrio/EditedMorph40.png,010110right.gif,Stimuli/normal_thumbnails/40right.gif,0,0,0,0,0,62,62,39,,,23,1,63,294,1.016841608,-2.283863644,40,362.3370377,362.8373834,362.3370377,362.8373834,86.39455782,1574190644,1574190650,6.299531937,79,30,10,10,1574190641,1574190644,,,EW,1,19,F,Undergrad,2019_Nov_19_1104,AdjustExp1,3.1.5,60.04298874,Experiment
97,Stimuli/Morph97.JPG,Stimuli/Morph97.png,Stimuli/BlurLevel5/BlurEditedMorph97,Stimuli/BlurLevel5/BlurEditedMorph97.png,Stimuli/BlurLevel5/NumberedMorphs/BlurEditedMorph97.png,Stimuli/BlurLevel5/OriginalBlur/BlurEditedMorph97.png,Stimuli/BlurMorphTrio/EditedMorph97.png,020294right.gif,Stimuli/normal_thumbnails/97right.gif,0,0,0,0,0,63,63,96,,,53,1,64,312,1.672826516,-1.857862064,97,371.1361535,371.6363398,371.1361535,371.6363398,90.47619048,1574190652,1574190653,0.949809313,90,90,7,7,1574190650,1574190652,,,EW,1,19,F,Undergrad,2019_Nov_19_1104,AdjustExp1,3.1.5,60.04298874,Experiment
90,Stimuli/Morph90.JPG,Stimuli/Morph90.png,Stimuli/BlurLevel5/BlurEditedMorph90,Stimuli/BlurLevel5/BlurEditedMorph90.png,Stimuli/BlurLevel5/NumberedMorphs/BlurEditedMorph90.png,Stimuli/BlurLevel5/OriginalBlur/BlurEditedMorph90.png,Stimuli/BlurMorphTrio/EditedMorph90.png,020275right.gif,Stimuli/normal_thumbnails/90right.gif,0,0,0,0,0,64,64,89,,,98,1,65,247,-0.976827821,-2.301262134,90,374.9546729,375.4537249,374.9546729,375.4537249,93.19727891,1574190656,1574190659,2.433759928,143,95,-5,-5,1574190654,1574190656,,,EW,1,19,F,Undergrad,2019_Nov_19_1104,AdjustExp1,3.1.5,60.04298874,Experiment
113,Stimuli/Morph113.JPG,Stimuli/Morph113.png,Stimuli/BlurLevel5/BlurEditedMorph113,Stimuli/BlurLevel5/BlurEditedMorph113.png,Stimuli/BlurLevel5/NumberedMorphs/BlurEditedMorph113.png,Stimuli/BlurLevel5/OriginalBlur/BlurEditedMorph113.png,Stimuli/BlurMorphTrio/EditedMorph113.png,None,None,0,0,0,0,0,65,65,112,,,85,1,66,271,0.043631016,-2.499619238,113,379.8696663,380.3704319,379.8696663,380.3704319,72.78911565,1574190661,1574190663,2.433300972,4,93,20,20,1574190659,1574190661,,,EW,1,19,F,Undergrad,2019_Nov_19_1104,AdjustExp1,3.1.5,60.04298874,Experiment
130,Stimuli/Morph130.JPG,Stimuli/Morph130.png,Stimuli/BlurLevel5/BlurEditedMorph130,Stimuli/BlurLevel5/BlurEditedMorph130.png,Stimuli/BlurLevel5/NumberedMorphs/BlurEditedMorph130.png,Stimuli/BlurLevel5/OriginalBlur/BlurEditedMorph130.png,Stimuli/BlurMorphTrio/EditedMorph130.png,None,None,0,0,0,0,0,66,66,129,,,96,1,67,188,-2.475670172,-0.347932752,130,384.9726258,385.4703735,384.9726258,385.4703735,89.11564626,1574190666,1574190669,2.882666111,33,122,8,8,1574190664,1574190666,,,EW,1,19,F,Undergrad,2019_Nov_19_1104,AdjustExp1,3.1.5,60.04298874,Experiment
52,Stimuli/Morph52.JPG,Stimuli/Morph52.png,Stimuli/BlurLevel5/BlurEditedMorph52,Stimuli/BlurLevel5/BlurEditedMorph52.png,Stimuli/BlurLevel5/NumberedMorphs/BlurEditedMorph52.png,Stimuli/BlurLevel5/OriginalBlur/BlurEditedMorph52.png,Stimuli/BlurMorphTrio/EditedMorph52.png,010148right.gif,Stimuli/normal_thumbnails/52right.gif,0,0,0,0,0,67,67,51,,,12,1,68,223,-1.828384254,-1.7049959,52,390.703094,391.2035379,390.703094,391.2035379,90.47619048,1574190672,1574190675,3.483118057,62,59,-7,-7,1574190669,1574190672,,,EW,1,19,F,Undergrad,2019_Nov_19_1104,AdjustExp1,3.1.5,60.04298874,Experiment
44,Stimuli/Morph44.JPG,Stimuli/Morph44.png,Stimuli/BlurLevel5/BlurEditedMorph44,Stimuli/BlurLevel5/BlurEditedMorph44.png,Stimuli/BlurLevel5/NumberedMorphs/BlurEditedMorph44.png,Stimuli/BlurLevel5/OriginalBlur/BlurEditedMorph44.png,Stimuli/BlurMorphTrio/EditedMorph44.png,010126right.gif,Stimuli/normal_thumbnails/44right.gif,0,0,0,0,0,68,68,43,,,39,1,69,111,-0.895919874,2.333951066,44,396.855566,397.353547,396.855566,397.353547,87.75510204,1574190678,1574190680,2.416818857,92,35,9,9,1574190676,1574190678,,,EW,1,19,F,Undergrad,2019_Nov_19_1104,AdjustExp1,3.1.5,60.04298874,Experiment
123,Stimuli/Morph123.JPG,Stimuli/Morph123.png,Stimuli/BlurLevel5/BlurEditedMorph123,Stimuli/BlurLevel5/BlurEditedMorph123.png,Stimuli/BlurLevel5/NumberedMorphs/BlurEditedMorph123.png,Stimuli/BlurLevel5/OriginalBlur/BlurEditedMorph123.png,Stimuli/BlurMorphTrio/EditedMorph123.png,None,None,0,0,0,0,0,69,69,122,,,88,1,70,57,1.361597588,2.09667642,123,402.002986,402.5034351,402.002986,402.5034351,67.34693878,1574190683,1574190685,1.499480009,68,99,24,24,1574190681,1574190683,,,EW,1,19,F,Undergrad,2019_Nov_19_1104,AdjustExp1,3.1.5,60.04298874,Experiment
86,Stimuli/Morph86.JPG,Stimuli/Morph86.png,Stimuli/BlurLevel5/BlurEditedMorph86,Stimuli/BlurLevel5/BlurEditedMorph86.png,Stimuli/BlurLevel5/NumberedMorphs/BlurEditedMorph86.png,Stimuli/BlurLevel5/OriginalBlur/BlurEditedMorph86.png,Stimuli/BlurMorphTrio/EditedMorph86.png,020266right.gif,Stimuli/normal_thumbnails/86right.gif,0,0,0,0,0,70,70,85,,,80,1,71,192,-2.445369002,-0.519779227,86,406.1197349,406.6366876,406.1197349,406.6366876,67.34693878,1574190687,1574190689,2.050362825,126,110,-24,-24,1574190685,1574190687,,,EW,1,19,F,Undergrad,2019_Nov_19_1104,AdjustExp1,3.1.5,60.04298874,Experiment
145,Stimuli/Morph145.JPG,Stimuli/Morph145.png,Stimuli/BlurLevel5/BlurEditedMorph145,Stimuli/BlurLevel5/BlurEditedMorph145.png,Stimuli/BlurLevel5/NumberedMorphs/BlurEditedMorph145.png,Stimuli/BlurLevel5/OriginalBlur/BlurEditedMorph145.png,Stimuli/BlurMorphTrio/EditedMorph145.png,None,None,0,0,0,0,0,71,71,144,,,6,1,72,315,1.767766953,-1.767766953,145,411.1795628,411.68636,411.1795628,411.68636,93.19727891,1574190692,1574190697,4.550549984,16,3,142,-5,1574190690,1574190692,,,EW,1,19,F,Undergrad,2019_Nov_19_1104,AdjustExp1,3.1.5,60.04298874,Experiment
117,Stimuli/Morph117.JPG,Stimuli/Morph117.png,Stimuli/BlurLevel5/BlurEditedMorph117,Stimuli/BlurLevel5/BlurEditedMorph117.png,Stimuli/BlurLevel5/NumberedMorphs/BlurEditedMorph117.png,Stimuli/BlurLevel5/OriginalBlur/BlurEditedMorph117.png,Stimuli/BlurMorphTrio/EditedMorph117.png,None,None,0,0,0,0,0,72,72,116,,,4,1,73,40,1.915111108,1.606969024,117,418.63665,419.1366551,418.63665,419.1366551,83.67346939,1574190700,1574190702,2.599772215,13,129,-12,-12,1574190697,1574190700,,,EW,1,19,F,Undergrad,2019_Nov_19_1104,AdjustExp1,3.1.5,60.04298874,Experiment
143,Stimuli/Morph143.JPG,Stimuli/Morph143.png,Stimuli/BlurLevel5/BlurEditedMorph143,Stimuli/BlurLevel5/BlurEditedMorph143.png,Stimuli/BlurLevel5/NumberedMorphs/BlurEditedMorph143.png,Stimuli/BlurLevel5/OriginalBlur/BlurEditedMorph143.png,Stimuli/BlurMorphTrio/EditedMorph143.png,None,None,0,0,0,0,0,73,73,142,,,68,1,74,53,1.504537558,1.996588775,143,423.8358804,424.3365433,423.8358804,424.3365433,90.47619048,1574190705,1574190709,4.283698082,70,136,7,7,1574190703,1574190705,,,EW,1,19,F,Undergrad,2019_Nov_19_1104,AdjustExp1,3.1.5,60.04298874,Experiment
76,Stimuli/Morph76.JPG,Stimuli/Morph76.png,Stimuli/BlurLevel5/BlurEditedMorph76,Stimuli/BlurLevel5/BlurEditedMorph76.png,Stimuli/BlurLevel5/NumberedMorphs/BlurEditedMorph76.png,Stimuli/BlurLevel5/OriginalBlur/BlurEditedMorph76.png,Stimuli/BlurMorphTrio/EditedMorph76.png,020234right.gif,Stimuli/normal_thumbnails/76right.gif,0,0,0,0,0,74,74,75,,,18,1,75,180,-2.5,3.06E-16,76,430.3366432,430.8364403,430.3366432,430.8364403,97.27891156,1574190712,1574190715,3.351244211,1,74,2,2,1574190710,1574190712,,,EW,1,19,F,Undergrad,2019_Nov_19_1104,AdjustExp1,3.1.5,60.04298874,Experiment
28,Stimuli/Morph28.JPG,Stimuli/Morph28.png,Stimuli/BlurLevel5/BlurEditedMorph28,Stimuli/BlurLevel5/BlurEditedMorph28.png,Stimuli/BlurLevel5/NumberedMorphs/BlurEditedMorph28.png,Stimuli/BlurLevel5/OriginalBlur/BlurEditedMorph28.png,Stimuli/BlurMorphTrio/EditedMorph28.png,010073right.gif,Stimuli/normal_thumbnails/28right.gif,0,0,0,0,0,75,75,27,,,16,1,76,89,0.043631016,2.499619238,28,436.4862722,436.9858039,436.4862722,436.9858039,95.91836735,1574190718,1574190720,2.716366053,109,25,3,3,1574190715,1574190718,,,EW,1,19,F,Undergrad,2019_Nov_19_1104,AdjustExp1,3.1.5,60.04298874,Experiment
93,Stimuli/Morph93.JPG,Stimuli/Morph93.png,Stimuli/BlurLevel5/BlurEditedMorph93,Stimuli/BlurLevel5/BlurEditedMorph93.png,Stimuli/BlurLevel5/NumberedMorphs/BlurEditedMorph93.png,Stimuli/BlurLevel5/OriginalBlur/BlurEditedMorph93.png,Stimuli/BlurMorphTrio/EditedMorph93.png,020280right.gif,Stimuli/normal_thumbnails/93right.gif,0,0,0,0,0,76,76,92,,,33,1,77,358,2.498477068,-0.087248742,93,441.5200121,442.0197066,441.5200121,442.0197066,61.9047619,1574190723,1574190724,0.949899912,121,121,-28,-28,1574190721,1574190723,,,EW,1,19,F,Undergrad,2019_Nov_19_1104,AdjustExp1,3.1.5,60.04298874,Experiment
134,Stimuli/Morph134.JPG,Stimuli/Morph134.png,Stimuli/BlurLevel5/BlurEditedMorph134,Stimuli/BlurLevel5/BlurEditedMorph134.png,Stimuli/BlurLevel5/NumberedMorphs/BlurEditedMorph134.png,Stimuli/BlurLevel5/OriginalBlur/BlurEditedMorph134.png,Stimuli/BlurMorphTrio/EditedMorph134.png,None,None,0,0,0,0,0,77,77,133,,,19,1,78,263,-0.304673359,-2.481365379,134,444.9696924,445.4693724,444.9696924,445.4693724,83.67346939,1574190726,1574190730,3.633355856,30,122,12,12,1574190724,1574190726,,,EW,1,19,F,Undergrad,2019_Nov_19_1104,AdjustExp1,3.1.5,60.04298874,Experiment
36,Stimuli/Morph36.JPG,Stimuli/Morph36.png,Stimuli/BlurLevel5/BlurEditedMorph36,Stimuli/BlurLevel5/BlurEditedMorph36.png,Stimuli/BlurLevel5/NumberedMorphs/BlurEditedMorph36.png,Stimuli/BlurLevel5/OriginalBlur/BlurEditedMorph36.png,Stimuli/BlurMorphTrio/EditedMorph36.png,010095right.gif,Stimuli/normal_thumbnails/36right.gif,0,0,0,0,0,78,78,35,,,83,1,79,1,2.499619238,0.043631016,36,451.1926358,451.6856511,451.1926358,451.6856511,83.67346939,1574190732,1574190737,4.466115952,71,24,12,12,1574190730,1574190732,,,EW,1,19,F,Undergrad,2019_Nov_19_1104,AdjustExp1,3.1.5,60.04298874,Experiment
60,Stimuli/Morph60.JPG,Stimuli/Morph60.png,Stimuli/BlurLevel5/BlurEditedMorph60,Stimuli/BlurLevel5/BlurEditedMorph60.png,Stimuli/BlurLevel5/NumberedMorphs/BlurEditedMorph60.png,Stimuli/BlurLevel5/OriginalBlur/BlurEditedMorph60.png,Stimuli/BlurMorphTrio/EditedMorph60.png,020200right.gif,Stimuli/normal_thumbnails/60right.gif,0,0,0,0,0,79,79,59,,,53,1,80,328,2.12012024,-1.324798161,60,458.5862428,459.085954,458.5862428,459.085954,80.95238095,1574190740,1574190747,6.949972868,49,46,14,14,1574190737,1574190740,,,EW,1,19,F,Undergrad,2019_Nov_19_1104,AdjustExp1,3.1.5,60.04298874,Experiment
107,Stimuli/Morph107.JPG,Stimuli/Morph107.png,Stimuli/BlurLevel5/BlurEditedMorph107,Stimuli/BlurLevel5/BlurEditedMorph107.png,Stimuli/BlurLevel5/NumberedMorphs/BlurEditedMorph107.png,Stimuli/BlurLevel5/OriginalBlur/BlurEditedMorph107.png,Stimuli/BlurMorphTrio/EditedMorph107.png,None,None,0,0,0,0,0,80,80,106,,,78,1,81,301,1.287595187,-2.142918252,107,467.9925448,468.485864,467.9925448,468.485864,86.39455782,1574190749,1574190750,0.666642189,97,97,10,10,1574190747,1574190749,,,EW,1,19,F,Undergrad,2019_Nov_19_1104,AdjustExp1,3.1.5,60.04298874,Experiment
20,Stimuli/Morph20.JPG,Stimuli/Morph20.png,Stimuli/BlurLevel5/BlurEditedMorph20,Stimuli/BlurLevel5/BlurEditedMorph20.png,Stimuli/BlurLevel5/NumberedMorphs/BlurEditedMorph20.png,Stimuli/BlurLevel5/OriginalBlur/BlurEditedMorph20.png,Stimuli/BlurMorphTrio/EditedMorph20.png,010046right.gif,Stimuli/normal_thumbnails/20right.gif,0,0,0,0,0,81,81,19,,,43,1,82,160,-2.349231552,0.855050358,20,471.2849126,471.7852906,471.2849126,471.7852906,95.91836735,1574190752,1574190754,1.466312885,56,17,3,3,1574190750,1574190752,,,EW,1,19,F,Undergrad,2019_Nov_19_1104,AdjustExp1,3.1.5,60.04298874,Experiment
67,Stimuli/Morph67.JPG,Stimuli/Morph67.png,Stimuli/BlurLevel5/BlurEditedMorph67,Stimuli/BlurLevel5/BlurEditedMorph67.png,Stimuli/BlurLevel5/NumberedMorphs/BlurEditedMorph67.png,Stimuli/BlurLevel5/OriginalBlur/BlurEditedMorph67.png,Stimuli/BlurMorphTrio/EditedMorph67.png,020217right.gif,Stimuli/normal_thumbnails/67right.gif,0,0,0,0,0,82,82,66,,,81,1,83,265,-0.217889357,-2.490486745,67,475.1883609,475.6854543,475.1883609,475.6854543,71.42857143,1574190756,1574190758,2.133486032,18,46,21,21,1574190754,1574190756,,,EW,1,19,F,Undergrad,2019_Nov_19_1104,AdjustExp1,3.1.5,60.04298874,Experiment
68,Stimuli/Morph68.JPG,Stimuli/Morph68.png,Stimuli/BlurLevel5/BlurEditedMorph68,Stimuli/BlurLevel5/BlurEditedMorph68.png,Stimuli/BlurLevel5/NumberedMorphs/BlurEditedMorph68.png,Stimuli/BlurLevel5/OriginalBlur/BlurEditedMorph68.png,Stimuli/BlurMorphTrio/EditedMorph68.png,020218right.gif,Stimuli/normal_thumbnails/68right.gif,0,0,0,0,0,83,83,67,,,97,1,84,323,1.996588775,-1.504537558,68,479.7753955,480.2691258,479.7753955,480.2691258,65.98639456,1574190761,1574190763,2.399845839,21,43,25,25,1574190759,1574190761,,,EW,1,19,F,Undergrad,2019_Nov_19_1104,AdjustExp1,3.1.5,60.04298874,Experiment
111,Stimuli/Morph111.JPG,Stimuli/Morph111.png,Stimuli/BlurLevel5/BlurEditedMorph111,Stimuli/BlurLevel5/BlurEditedMorph111.png,Stimuli/BlurLevel5/NumberedMorphs/BlurEditedMorph111.png,Stimuli/BlurLevel5/OriginalBlur/BlurEditedMorph111.png,Stimuli/BlurMorphTrio/EditedMorph111.png,None,None,0,0,0,0,0,84,84,110,,,94,1,85,263,-0.304673359,-2.481365379,111,485.1090026,485.60197,485.1090026,485.60197,76.8707483,1574190766,1574190768,1.466153145,53,94,17,17,1574190764,1574190766,,,EW,1,19,F,Undergrad,2019_Nov_19_1104,AdjustExp1,3.1.5,60.04298874,Experiment
57,Stimuli/Morph57.JPG,Stimuli/Morph57.png,Stimuli/BlurLevel5/BlurEditedMorph57,Stimuli/BlurLevel5/BlurEditedMorph57.png,Stimuli/BlurLevel5/NumberedMorphs/BlurEditedMorph57.png,Stimuli/BlurLevel5/OriginalBlur/BlurEditedMorph57.png,Stimuli/BlurMorphTrio/EditedMorph57.png,010158right.gif,Stimuli/normal_thumbnails/57right.gif,1,0,1,0,0,0,0,56,,,52,2,1,7,2.481365379,0.304673359,57,510.3687381,510.8683932,510.3687381,510.8683932,93.19727891,1574190792,1574190793,1.616374016,105,62,-5,-5,1574190790,1574190792,space,20.86577353,EW,1,19,F,Undergrad,2019_Nov_19_1104,AdjustExp1,3.1.5,60.04298874,Experiment
114,Stimuli/Morph114.JPG,Stimuli/Morph114.png,Stimuli/BlurLevel5/BlurEditedMorph114,Stimuli/BlurLevel5/BlurEditedMorph114.png,Stimuli/BlurLevel5/NumberedMorphs/BlurEditedMorph114.png,Stimuli/BlurLevel5/OriginalBlur/BlurEditedMorph114.png,Stimuli/BlurMorphTrio/EditedMorph114.png,None,None,1,0,1,0,0,1,1,113,,,94,2,2,59,1.287595187,2.142918252,114,514.3690797,514.8687778,514.3690797,514.8687778,60.54421769,1574190796,1574190796,0.883486986,85,85,29,29,1574190793,1574190796,,,EW,1,19,F,Undergrad,2019_Nov_19_1104,AdjustExp1,3.1.5,60.04298874,Experiment
14,Stimuli/Morph14.JPG,Stimuli/Morph14.png,Stimuli/BlurLevel5/BlurEditedMorph14,Stimuli/BlurLevel5/BlurEditedMorph14.png,Stimuli/BlurLevel5/NumberedMorphs/BlurEditedMorph14.png,Stimuli/BlurLevel5/OriginalBlur/BlurEditedMorph14.png,Stimuli/BlurMorphTrio/EditedMorph14.png,010030right.gif,Stimuli/normal_thumbnails/14right.gif,1,0,1,0,0,2,2,13,,,73,2,3,226,-1.736645926,-1.798349501,14,517.5043086,518.0019508,517.5043086,518.0019508,89.11564626,1574190799,1574190800,1.383298159,27,22,-8,-8,1574190797,1574190799,,,EW,1,19,F,Undergrad,2019_Nov_19_1104,AdjustExp1,3.1.5,60.04298874,Experiment
11,Stimuli/Morph11.JPG,Stimuli/Morph11.png,Stimuli/BlurLevel5/BlurEditedMorph11,Stimuli/BlurLevel5/BlurEditedMorph11.png,Stimuli/BlurLevel5/NumberedMorphs/BlurEditedMorph11.png,Stimuli/BlurLevel5/OriginalBlur/BlurEditedMorph11.png,Stimuli/BlurMorphTrio/EditedMorph11.png,010024right.gif,Stimuli/normal_thumbnails/11right.gif,1,0,1,0,0,3,3,10,,,27,2,4,232,-1.539153688,-1.970026884,11,521.2696759,521.7687589,521.2696759,521.7687589,89.11564626,1574190802,1574190807,4.799412012,92,19,-8,-8,1574190800,1574190802,,,EW,1,19,F,Undergrad,2019_Nov_19_1104,AdjustExp1,3.1.5,60.04298874,Experiment
139,Stimuli/Morph139.JPG,Stimuli/Morph139.png,Stimuli/BlurLevel5/BlurEditedMorph139,Stimuli/BlurLevel5/BlurEditedMorph139.png,Stimuli/BlurLevel5/NumberedMorphs/BlurEditedMorph139.png,Stimuli/BlurLevel5/OriginalBlur/BlurEditedMorph139.png,Stimuli/BlurMorphTrio/EditedMorph139.png,None,None,1,0,1,0,0,4,4,138,,,71,2,5,74,0.68909339,2.40315424,139,528.5517958,529.0517598,528.5517958,529.0517598,90.47619048,1574190810,1574190811,1.150058031,146,146,-7,-7,1574190808,1574190810,,,EW,1,19,F,Undergrad,2019_Nov_19_1104,AdjustExp1,3.1.5,60.04298874,Experiment
17,Stimuli/Morph17.JPG,Stimuli/Morph17.png,Stimuli/BlurLevel5/BlurEditedMorph17,Stimuli/BlurLevel5/BlurEditedMorph17.png,Stimuli/BlurLevel5/NumberedMorphs/BlurEditedMorph17.png,Stimuli/BlurLevel5/OriginalBlur/BlurEditedMorph17.png,Stimuli/BlurMorphTrio/EditedMorph17.png,010036right.gif,Stimuli/normal_thumbnails/17right.gif,1,0,1,0,0,5,5,16,,,87,2,6,138,-1.857862064,1.672826516,17,532.3353606,532.8351747,532.3353606,532.8351747,100,1574190814,1574190816,2.015985966,56,17,0,0,1574190811,1574190813,,,EW,1,19,F,Undergrad,2019_Nov_19_1104,AdjustExp1,3.1.5,60.04298874,Experiment
59,Stimuli/Morph59.JPG,Stimuli/Morph59.png,Stimuli/BlurLevel5/BlurEditedMorph59,Stimuli/BlurLevel5/BlurEditedMorph59.png,Stimuli/BlurLevel5/NumberedMorphs/BlurEditedMorph59.png,Stimuli/BlurLevel5/OriginalBlur/BlurEditedMorph59.png,Stimuli/BlurMorphTrio/EditedMorph59.png,010160right.gif,Stimuli/normal_thumbnails/59right.gif,1,0,1,0,0,6,6,58,,,32,2,7,257,-0.562377636,-2.435925162,59,536.9523126,537.4516019,536.9523126,537.4516019,91.83673469,1574190818,1574190820,2.364772081,127,53,6,6,1574190816,1574190818,,,EW,1,19,F,Undergrad,2019_Nov_19_1104,AdjustExp1,3.1.5,60.04298874,Experiment
121,Stimuli/Morph121.JPG,Stimuli/Morph121.png,Stimuli/BlurLevel5/BlurEditedMorph121,Stimuli/BlurLevel5/BlurEditedMorph121.png,Stimuli/BlurLevel5/NumberedMorphs/BlurEditedMorph121.png,Stimuli/BlurLevel5/OriginalBlur/BlurEditedMorph121.png,Stimuli/BlurMorphTrio/EditedMorph121.png,None,None,1,0,1,0,0,7,7,120,,,9,2,8,350,2.462019383,-0.434120444,121,541.6043471,542.1013367,541.6043471,542.1013367,85.03401361,1574190823,1574190824,0.93345809,132,132,-11,-11,1574190821,1574190823,,,EW,1,19,F,Undergrad,2019_Nov_19_1104,AdjustExp1,3.1.5,60.04298874,Experiment
16,Stimuli/Morph16.JPG,Stimuli/Morph16.png,Stimuli/BlurLevel5/BlurEditedMorph16,Stimuli/BlurLevel5/BlurEditedMorph16.png,Stimuli/BlurLevel5/NumberedMorphs/BlurEditedMorph16.png,Stimuli/BlurLevel5/OriginalBlur/BlurEditedMorph16.png,Stimuli/BlurMorphTrio/EditedMorph16.png,010034right.gif,Stimuli/normal_thumbnails/16right.gif,1,0,1,0,0,8,8,15,,,92,2,9,41,1.886773951,1.640147572,16,545.7511527,546.2514398,545.7511527,546.2514398,93.19727891,1574190827,1574190828,1.365858078,21,21,-5,-5,1574190824,1574190827,,,EW,1,19,F,Undergrad,2019_Nov_19_1104,AdjustExp1,3.1.5,60.04298874,Experiment
141,Stimuli/Morph141.JPG,Stimuli/Morph141.png,Stimuli/BlurLevel5/BlurEditedMorph141,Stimuli/BlurLevel5/BlurEditedMorph141.png,Stimuli/BlurLevel5/NumberedMorphs/BlurEditedMorph141.png,Stimuli/BlurLevel5/OriginalBlur/BlurEditedMorph141.png,Stimuli/BlurMorphTrio/EditedMorph141.png,None,None,1,0,1,0,0,9,9,140,,,79,2,10,261,-0.391086163,-2.469220851,141,549.4515603,549.9514755,549.4515603,549.9514755,82.31292517,1574190831,1574190833,2.183807135,58,7,134,-13,1574190829,1574190831,,,EW,1,19,F,Undergrad,2019_Nov_19_1104,AdjustExp1,3.1.5,60.04298874,Experiment
112,Stimuli/Morph112.JPG,Stimuli/Morph112.png,Stimuli/BlurLevel5/BlurEditedMorph112,Stimuli/BlurLevel5/BlurEditedMorph112.png,Stimuli/BlurLevel5/NumberedMorphs/BlurEditedMorph112.png,Stimuli/BlurLevel5/OriginalBlur/BlurEditedMorph112.png,Stimuli/BlurMorphTrio/EditedMorph112.png,None,None,1,0,1,0,0,10,10,111,,,45,2,11,324,2.022542486,-1.469463131,112,553.8864136,554.3849636,553.8864136,554.3849636,93.19727891,1574190835,1574190838,3.066112041,38,117,-5,-5,1574190833,1574190835,,,EW,1,19,F,Undergrad,2019_Nov_19_1104,AdjustExp1,3.1.5,60.04298874,Experiment
116,Stimuli/Morph116.JPG,Stimuli/Morph116.png,Stimuli/BlurLevel5/BlurEditedMorph116,Stimuli/BlurLevel5/BlurEditedMorph116.png,Stimuli/BlurLevel5/NumberedMorphs/BlurEditedMorph116.png,Stimuli/BlurLevel5/OriginalBlur/BlurEditedMorph116.png,Stimuli/BlurMorphTrio/EditedMorph116.png,None,None,1,0,1,0,0,11,11,115,,,49,2,12,122,-1.324798161,2.12012024,116,559.6364384,560.1348763,559.6364384,560.1348763,94.55782313,1574190841,1574190843,1.984033108,104,112,4,4,1574190838,1574190841,,,EW,1,19,F,Undergrad,2019_Nov_19_1104,AdjustExp1,3.1.5,60.04298874,Experiment
145,Stimuli/Morph145.JPG,Stimuli/Morph145.png,Stimuli/BlurLevel5/BlurEditedMorph145,Stimuli/BlurLevel5/BlurEditedMorph145.png,Stimuli/BlurLevel5/NumberedMorphs/BlurEditedMorph145.png,Stimuli/BlurLevel5/OriginalBlur/BlurEditedMorph145.png,Stimuli/BlurMorphTrio/EditedMorph145.png,None,None,1,0,1,0,0,12,12,144,,,54,2,13,214,-2.072593931,-1.397982259,145,564.1077392,564.6008583,564.1077392,564.6008583,95.91836735,1574190845,1574190849,3.567091942,110,1,144,-3,1574190843,1574190845,,,EW,1,19,F,Undergrad,2019_Nov_19_1104,AdjustExp1,3.1.5,60.04298874,Experiment
26,Stimuli/Morph26.JPG,Stimuli/Morph26.png,Stimuli/BlurLevel5/BlurEditedMorph26,Stimuli/BlurLevel5/BlurEditedMorph26.png,Stimuli/BlurLevel5/NumberedMorphs/BlurEditedMorph26.png,Stimuli/BlurLevel5/OriginalBlur/BlurEditedMorph26.png,Stimuli/BlurMorphTrio/EditedMorph26.png,010070right.gif,Stimuli/normal_thumbnails/26right.gif,1,0,1,0,0,13,13,25,,,28,2,14,260,-0.434120444,-2.462019383,26,570.0741772,570.5673467,570.0741772,570.5673467,93.19727891,1574190851,1574190855,3.816586018,91,31,-5,-5,1574190849,1574190851,,,EW,1,19,F,Undergrad,2019_Nov_19_1104,AdjustExp1,3.1.5,60.04298874,Experiment
95,Stimuli/Morph95.JPG,Stimuli/Morph95.png,Stimuli/BlurLevel5/BlurEditedMorph95,Stimuli/BlurLevel5/BlurEditedMorph95.png,Stimuli/BlurLevel5/NumberedMorphs/BlurEditedMorph95.png,Stimuli/BlurLevel5/OriginalBlur/BlurEditedMorph95.png,Stimuli/BlurMorphTrio/EditedMorph95.png,020287right.gif,Stimuli/normal_thumbnails/95right.gif,1,0,1,0,0,14,14,94,,,74,2,15,277,0.304673359,-2.481365379,95,576.2842355,576.7843346,576.2842355,576.7843346,91.83673469,1574190857,1574190860,2.949756145,16,101,-6,-6,1574190855,1574190857,,,EW,1,19,F,Undergrad,2019_Nov_19_1104,AdjustExp1,3.1.5,60.04298874,Experiment
8,Stimuli/Morph8.JPG,Stimuli/Morph8.png,Stimuli/BlurLevel5/BlurEditedMorph8,Stimuli/BlurLevel5/BlurEditedMorph8.png,Stimuli/BlurLevel5/NumberedMorphs/BlurEditedMorph8.png,Stimuli/BlurLevel5/OriginalBlur/BlurEditedMorph8.png,Stimuli/BlurMorphTrio/EditedMorph8.png,010014right.gif,Stimuli/normal_thumbnails/8right.gif,1,0,1,0,0,15,15,7,,,84,2,16,143,-1.996588775,1.504537558,8,581.7193702,582.2178175,581.7193702,582.2178175,97.27891156,1574190863,1574190865,2.134243011,59,6,2,2,1574190861,1574190863,,,EW,1,19,F,Undergrad,2019_Nov_19_1104,AdjustExp1,3.1.5,60.04298874,Experiment
77,Stimuli/Morph77.JPG,Stimuli/Morph77.png,Stimuli/BlurLevel5/BlurEditedMorph77,Stimuli/BlurLevel5/BlurEditedMorph77.png,Stimuli/BlurLevel5/NumberedMorphs/BlurEditedMorph77.png,Stimuli/BlurLevel5/OriginalBlur/BlurEditedMorph77.png,Stimuli/BlurMorphTrio/EditedMorph77.png,020235right.gif,Stimuli/normal_thumbnails/77right.gif,1,0,1,0,0,16,16,76,,,53,2,17,322,1.970026884,-1.539153688,77,586.7002297,587.2012429,586.7002297,587.2012429,56.46258503,1574190868,1574190869,0.967180014,109,109,-32,-32,1574190865,1574190868,,,EW,1,19,F,Undergrad,2019_Nov_19_1104,AdjustExp1,3.1.5,60.04298874,Experiment
41,Stimuli/Morph41.JPG,Stimuli/Morph41.png,Stimuli/BlurLevel5/BlurEditedMorph41,Stimuli/BlurLevel5/BlurEditedMorph41.png,Stimuli/BlurLevel5/NumberedMorphs/BlurEditedMorph41.png,Stimuli/BlurLevel5/OriginalBlur/BlurEditedMorph41.png,Stimuli/BlurMorphTrio/EditedMorph41.png,010112right.gif,Stimuli/normal_thumbnails/41right.gif,1,0,1,0,0,17,17,40,,,21,2,18,248,-0.936516484,-2.317959636,41,590.1840639,590.6843653,590.1840639,590.6843653,93.19727891,1574190871,1574190874,2.798971891,30,46,-5,-5,1574190869,1574190871,,,EW,1,19,F,Undergrad,2019_Nov_19_1104,AdjustExp1,3.1.5,60.04298874,Experiment
69,Stimuli/Morph69.JPG,Stimuli/Morph69.png,Stimuli/BlurLevel5/BlurEditedMorph69,Stimuli/BlurLevel5/BlurEditedMorph69.png,Stimuli/BlurLevel5/NumberedMorphs/BlurEditedMorph69.png,Stimuli/BlurLevel5/OriginalBlur/BlurEditedMorph69.png,Stimuli/BlurMorphTrio/EditedMorph69.png,020220right.gif,Stimuli/normal_thumbnails/69right.gif,1,0,1,0,0,18,18,68,,,72,2,19,146,-2.072593931,1.397982259,69,595.4843045,595.9841322,595.4843045,595.9841322,82.31292517,1574190877,1574190879,2.816558838,102,82,-13,-13,1574190874,1574190877,,,EW,1,19,F,Undergrad,2019_Nov_19_1104,AdjustExp1,3.1.5,60.04298874,Experiment
142,Stimuli/Morph142.JPG,Stimuli/Morph142.png,Stimuli/BlurLevel5/BlurEditedMorph142,Stimuli/BlurLevel5/BlurEditedMorph142.png,Stimuli/BlurLevel5/NumberedMorphs/BlurEditedMorph142.png,Stimuli/BlurLevel5/OriginalBlur/BlurEditedMorph142.png,Stimuli/BlurMorphTrio/EditedMorph142.png,None,None,1,0,1,0,0,19,19,141,,,16,2,20,10,2.462019383,0.434120444,142,601.0702863,601.5670353,601.0702863,601.5670353,85.03401361,1574190882,1574190888,5.28342104,30,6,136,-11,1574190880,1574190882,,,EW,1,19,F,Undergrad,2019_Nov_19_1104,AdjustExp1,3.1.5,60.04298874,Experiment
118,Stimuli/Morph118.JPG,Stimuli/Morph118.png,Stimuli/BlurLevel5/BlurEditedMorph118,Stimuli/BlurLevel5/BlurEditedMorph118.png,Stimuli/BlurLevel5/NumberedMorphs/BlurEditedMorph118.png,Stimuli/BlurLevel5/OriginalBlur/BlurEditedMorph118.png,Stimuli/BlurMorphTrio/EditedMorph118.png,None,None,1,0,1,0,0,20,20,117,,,27,2,21,129,-1.573300978,1.942864904,118,609.0837813,609.5828014,609.0837813,609.5828014,65.98639456,1574190890,1574190893,2.799698114,73,93,25,25,1574190888,1574190890,,,EW,1,19,F,Undergrad,2019_Nov_19_1104,AdjustExp1,3.1.5,60.04298874,Experiment
5,Stimuli/Morph5.JPG,Stimuli/Morph5.png,Stimuli/BlurLevel5/BlurEditedMorph5,Stimuli/BlurLevel5/BlurEditedMorph5.png,Stimuli/BlurLevel5/NumberedMorphs/BlurEditedMorph5.png,Stimuli/BlurLevel5/OriginalBlur/BlurEditedMorph5.png,Stimuli/BlurMorphTrio/EditedMorph5.png,010011right.gif,Stimuli/normal_thumbnails/5right.gif,1,0,1,0,0,21,21,4,,,100,2,22,40,1.915111108,1.606969024,5,614.1840021,614.6839775,614.1840021,614.6839775,80.95238095,1574190895,1574190899,4.116167784,124,138,-133,14,1574190893,1574190895,,,EW,1,19,F,Undergrad,2019_Nov_19_1104,AdjustExp1,3.1.5,60.04298874,Experiment
127,Stimuli/Morph127.JPG,Stimuli/Morph127.png,Stimuli/BlurLevel5/BlurEditedMorph127,Stimuli/BlurLevel5/BlurEditedMorph127.png,Stimuli/BlurLevel5/NumberedMorphs/BlurEditedMorph127.png,Stimuli/BlurLevel5/OriginalBlur/BlurEditedMorph127.png,Stimuli/BlurMorphTrio/EditedMorph127.png,None,None,1,0,1,0,0,22,22,126,,,10,2,23,68,0.936516484,2.317959636,127,620.7735486,621.2671524,620.7735486,621.2671524,89.11564626,1574190902,1574190904,1.816377163,98,135,-8,-8,1574190900,1574190902,,,EW,1,19,F,Undergrad,2019_Nov_19_1104,AdjustExp1,3.1.5,60.04298874,Experiment
101,Stimuli/Morph101.JPG,Stimuli/Morph101.png,Stimuli/BlurLevel5/BlurEditedMorph101,Stimuli/BlurLevel5/BlurEditedMorph101.png,Stimuli/BlurLevel5/NumberedMorphs/BlurEditedMorph101.png,Stimuli/BlurLevel5/OriginalBlur/BlurEditedMorph101.png,Stimuli/BlurMorphTrio/EditedMorph101.png,None,None,1,0,1,0,0,23,23,100,,,20,2,24,195,-2.414814566,-0.647047613,101,624.8994309,625.4001565,624.8994309,625.4001565,95.91836735,1574190906,1574190908,2.382559061,75,98,3,3,1574190904,1574190906,,,EW,1,19,F,Undergrad,2019_Nov_19_1104,AdjustExp1,3.1.5,60.04298874,Experiment
52,Stimuli/Morph52.JPG,Stimuli/Morph52.png,Stimuli/BlurLevel5/BlurEditedMorph52,Stimuli/BlurLevel5/BlurEditedMorph52.png,Stimuli/BlurLevel5/NumberedMorphs/BlurEditedMorph52.png,Stimuli/BlurLevel5/OriginalBlur/BlurEditedMorph52.png,Stimuli/BlurMorphTrio/EditedMorph52.png,010148right.gif,Stimuli/normal_thumbnails/52right.gif,1,0,1,0,0,24,24,51,,,78,2,25,11,2.454067959,0.477022488,52,629.5197626,630.0169643,629.5197626,630.0169643,94.55782313,1574190911,1574190913,2.566071749,117,56,-4,-4,1574190909,1574190911,,,EW,1,19,F,Undergrad,2019_Nov_19_1104,AdjustExp1,3.1.5,60.04298874,Experiment
37,Stimuli/Morph37.JPG,Stimuli/Morph37.png,Stimuli/BlurLevel5/BlurEditedMorph37,Stimuli/BlurLevel5/BlurEditedMorph37.png,Stimuli/BlurLevel5/NumberedMorphs/BlurEditedMorph37.png,Stimuli/BlurLevel5/OriginalBlur/BlurEditedMorph37.png,Stimuli/BlurMorphTrio/EditedMorph37.png,010097right.gif,Stimuli/normal_thumbnails/37right.gif,1,0,1,0,0,25,25,36,,,35,2,26,159,-2.333951066,0.895919874,37,634.4994054,635.0002562,634.4994054,635.0002562,80.95238095,1574190916,1574190919,2.866405249,122,51,-14,-14,1574190914,1574190916,,,EW,1,19,F,Undergrad,2019_Nov_19_1104,AdjustExp1,3.1.5,60.04298874,Experiment
36,Stimuli/Morph36.JPG,Stimuli/Morph36.png,Stimuli/BlurLevel5/BlurEditedMorph36,Stimuli/BlurLevel5/BlurEditedMorph36.png,Stimuli/BlurLevel5/NumberedMorphs/BlurEditedMorph36.png,Stimuli/BlurLevel5/OriginalBlur/BlurEditedMorph36.png,Stimuli/BlurMorphTrio/EditedMorph36.png,010095right.gif,Stimuli/normal_thumbnails/36right.gif,1,0,1,0,0,26,26,35,,,75,2,27,171,-2.469220851,0.391086163,36,639.7890038,640.2835406,639.7890038,640.2835406,93.19727891,1574190921,1574190923,2.349419117,28,41,-5,-5,1574190919,1574190921,,,EW,1,19,F,Undergrad,2019_Nov_19_1104,AdjustExp1,3.1.5,60.04298874,Experiment
143,Stimuli/Morph143.JPG,Stimuli/Morph143.png,Stimuli/BlurLevel5/BlurEditedMorph143,Stimuli/BlurLevel5/BlurEditedMorph143.png,Stimuli/BlurLevel5/NumberedMorphs/BlurEditedMorph143.png,Stimuli/BlurLevel5/OriginalBlur/BlurEditedMorph143.png,Stimuli/BlurMorphTrio/EditedMorph143.png,None,None,1,0,1,0,0,27,27,142,,,87,2,28,205,-2.265769468,-1.056545654,143,644.7228083,645.2166078,644.7228083,645.2166078,79.59183673,1574190926,1574190929,2.782745838,119,11,132,-15,1574190924,1574190926,,,EW,1,19,F,Undergrad,2019_Nov_19_1104,AdjustExp1,3.1.5,60.04298874,Experiment
49,Stimuli/Morph49.JPG,Stimuli/Morph49.png,Stimuli/BlurLevel5/BlurEditedMorph49,Stimuli/BlurLevel5/BlurEditedMorph49.png,Stimuli/BlurLevel5/NumberedMorphs/BlurEditedMorph49.png,Stimuli/BlurLevel5/OriginalBlur/BlurEditedMorph49.png,Stimuli/BlurMorphTrio/EditedMorph49.png,010135right.gif,Stimuli/normal_thumbnails/49right.gif,1,0,1,0,0,28,28,48,,,41,2,29,266,-0.174391184,-2.493910126,49,650.1183498,650.6168658,650.1183498,650.6168658,98.63945578,1574190931,1574190933,2.033509016,128,50,-1,-1,1574190929,1574190931,,,EW,1,19,F,Undergrad,2019_Nov_19_1104,AdjustExp1,3.1.5,60.04298874,Experiment
83,Stimuli/Morph83.JPG,Stimuli/Morph83.png,Stimuli/BlurLevel5/BlurEditedMorph83,Stimuli/BlurLevel5/BlurEditedMorph83.png,Stimuli/BlurLevel5/NumberedMorphs/BlurEditedMorph83.png,Stimuli/BlurLevel5/OriginalBlur/BlurEditedMorph83.png,Stimuli/BlurMorphTrio/EditedMorph83.png,020259right.gif,Stimuli/normal_thumbnails/83right.gif,1,0,1,0,0,29,29,82,,,67,2,30,312,1.672826516,-1.857862064,83,654.8168239,655.3163176,654.8168239,655.3163176,91.83673469,1574190936,1574190937,1.466300964,80,77,6,6,1574190934,1574190936,,,EW,1,19,F,Undergrad,2019_Nov_19_1104,AdjustExp1,3.1.5,60.04298874,Experiment
20,Stimuli/Morph20.JPG,Stimuli/Morph20.png,Stimuli/BlurLevel5/BlurEditedMorph20,Stimuli/BlurLevel5/BlurEditedMorph20.png,Stimuli/BlurLevel5/NumberedMorphs/BlurEditedMorph20.png,Stimuli/BlurLevel5/OriginalBlur/BlurEditedMorph20.png,Stimuli/BlurMorphTrio/EditedMorph20.png,010046right.gif,Stimuli/normal_thumbnails/20right.gif,1,0,1,0,0,30,30,19,,,88,2,31,139,-1.886773951,1.640147572,20,659.0895663,659.5829006,659.0895663,659.5829006,95.91836735,1574190940,1574190944,3.899201155,127,17,3,3,1574190938,1574190940,,,EW,1,19,F,Undergrad,2019_Nov_19_1104,AdjustExp1,3.1.5,60.04298874,Experiment
68,Stimuli/Morph68.JPG,Stimuli/Morph68.png,Stimuli/BlurLevel5/BlurEditedMorph68,Stimuli/BlurLevel5/BlurEditedMorph68.png,Stimuli/BlurLevel5/NumberedMorphs/BlurEditedMorph68.png,Stimuli/BlurLevel5/OriginalBlur/BlurEditedMorph68.png,Stimuli/BlurMorphTrio/EditedMorph68.png,020218right.gif,Stimuli/normal_thumbnails/68right.gif,1,0,1,0,0,31,31,67,,,39,2,32,75,0.647047613,2.414814566,68,665.432956,665.9329102,665.432956,665.9329102,37.41496599,1574190947,1574190950,3.550200939,120,114,-46,-46,1574190944,1574190947,,,EW,1,19,F,Undergrad,2019_Nov_19_1104,AdjustExp1,3.1.5,60.04298874,Experiment
117,Stimuli/Morph117.JPG,Stimuli/Morph117.png,Stimuli/BlurLevel5/BlurEditedMorph117,Stimuli/BlurLevel5/BlurEditedMorph117.png,Stimuli/BlurLevel5/NumberedMorphs/BlurEditedMorph117.png,Stimuli/BlurLevel5/OriginalBlur/BlurEditedMorph117.png,Stimuli/BlurMorphTrio/EditedMorph117.png,None,None,1,0,1,0,0,32,32,116,,,52,2,33,196,-2.40315424,-0.68909339,117,671.5659248,672.0666189,671.5659248,672.0666189,90.47619048,1574190953,1574190954,1.06669116,110,110,7,7,1574190950,1574190953,,,EW,1,19,F,Undergrad,2019_Nov_19_1104,AdjustExp1,3.1.5,60.04298874,Experiment
65,Stimuli/Morph65.JPG,Stimuli/Morph65.png,Stimuli/BlurLevel5/BlurEditedMorph65,Stimuli/BlurLevel5/BlurEditedMorph65.png,Stimuli/BlurLevel5/NumberedMorphs/BlurEditedMorph65.png,Stimuli/BlurLevel5/OriginalBlur/BlurEditedMorph65.png,Stimuli/BlurMorphTrio/EditedMorph65.png,020209right.gif,Stimuli/normal_thumbnails/65right.gif,1,0,1,0,0,33,33,64,,,83,2,34,263,-0.304673359,-2.481365379,65,675.4999637,675.9992123,675.4999637,675.9992123,97.27891156,1574190957,1574190960,3.116364002,46,63,2,2,1574190954,1574190957,,,EW,1,19,F,Undergrad,2019_Nov_19_1104,AdjustExp1,3.1.5,60.04298874,Experiment
46,Stimuli/Morph46.JPG,Stimuli/Morph46.png,Stimuli/BlurLevel5/BlurEditedMorph46,Stimuli/BlurLevel5/BlurEditedMorph46.png,Stimuli/BlurLevel5/NumberedMorphs/BlurEditedMorph46.png,Stimuli/BlurLevel5/OriginalBlur/BlurEditedMorph46.png,Stimuli/BlurMorphTrio/EditedMorph46.png,010128right.gif,Stimuli/normal_thumbnails/46right.gif,1,0,1,0,0,34,34,45,,,81,2,35,128,-1.539153688,1.970026884,46,681.1356187,681.6329695,681.1356187,681.6329695,86.39455782,1574190962,1574190965,2.633158922,103,56,-10,-10,1574190960,1574190962,,,EW,1,19,F,Undergrad,2019_Nov_19_1104,AdjustExp1,3.1.5,60.04298874,Experiment
43,Stimuli/Morph43.JPG,Stimuli/Morph43.png,Stimuli/BlurLevel5/BlurEditedMorph43,Stimuli/BlurLevel5/BlurEditedMorph43.png,Stimuli/BlurLevel5/NumberedMorphs/BlurEditedMorph43.png,Stimuli/BlurLevel5/OriginalBlur/BlurEditedMorph43.png,Stimuli/BlurMorphTrio/EditedMorph43.png,010124right.gif,Stimuli/normal_thumbnails/43right.gif,1,0,1,0,0,35,35,42,,,77,2,36,40,1.915111108,1.606969024,43,686.052488,686.5499172,686.052488,686.5499172,90.47619048,1574190967,1574190968,1.199817181,72,50,-7,-7,1574190965,1574190967,,,EW,1,19,F,Undergrad,2019_Nov_19_1104,AdjustExp1,3.1.5,60.04298874,Experiment
137,Stimuli/Morph137.JPG,Stimuli/Morph137.png,Stimuli/BlurLevel5/BlurEditedMorph137,Stimuli/BlurLevel5/BlurEditedMorph137.png,Stimuli/BlurLevel5/NumberedMorphs/BlurEditedMorph137.png,Stimuli/BlurLevel5/OriginalBlur/BlurEditedMorph137.png,Stimuli/BlurMorphTrio/EditedMorph137.png,None,None,1,0,1,0,0,36,36,136,,,96,2,37,295,1.056545654,-2.265769468,137,690.1510628,690.6496844,690.1510628,690.6496844,70.06802721,1574190971,1574190973,2.032598019,8,115,22,22,1574190969,1574190971,,,EW,1,19,F,Undergrad,2019_Nov_19_1104,AdjustExp1,3.1.5,60.04298874,Experiment
119,Stimuli/Morph119.JPG,Stimuli/Morph119.png,Stimuli/BlurLevel5/BlurEditedMorph119,Stimuli/BlurLevel5/BlurEditedMorph119.png,Stimuli/BlurLevel5/NumberedMorphs/BlurEditedMorph119.png,Stimuli/BlurLevel5/OriginalBlur/BlurEditedMorph119.png,Stimuli/BlurMorphTrio/EditedMorph119.png,None,None,1,0,1,0,0,37,37,118,,,8,2,38,294,1.016841608,-2.283863644,119,694.8486013,695.3497638,694.8486013,695.3497638,57.82312925,1574190976,1574190977,1.15008378,88,88,31,31,1574190974,1574190976,,,EW,1,19,F,Undergrad,2019_Nov_19_1104,AdjustExp1,3.1.5,60.04298874,Experiment
90,Stimuli/Morph90.JPG,Stimuli/Morph90.png,Stimuli/BlurLevel5/BlurEditedMorph90,Stimuli/BlurLevel5/BlurEditedMorph90.png,Stimuli/BlurLevel5/NumberedMorphs/BlurEditedMorph90.png,Stimuli/BlurLevel5/OriginalBlur/BlurEditedMorph90.png,Stimuli/BlurMorphTrio/EditedMorph90.png,020275right.gif,Stimuli/normal_thumbnails/90right.gif,1,0,1,0,0,38,38,89,,,15,2,39,11,2.454067959,0.477022488,90,698.6155016,699.1161495,698.6155016,699.1161495,70.06802721,1574190980,1574190982,2.665706873,54,112,-22,-22,1574190977,1574190980,,,EW,1,19,F,Undergrad,2019_Nov_19_1104,AdjustExp1,3.1.5,60.04298874,Experiment
130,Stimuli/Morph130.JPG,Stimuli/Morph130.png,Stimuli/BlurLevel5/BlurEditedMorph130,Stimuli/BlurLevel5/BlurEditedMorph130.png,Stimuli/BlurLevel5/NumberedMorphs/BlurEditedMorph130.png,Stimuli/BlurLevel5/OriginalBlur/BlurEditedMorph130.png,Stimuli/BlurMorphTrio/EditedMorph130.png,None,None,1,0,1,0,0,39,39,129,,,60,2,40,349,2.454067959,-0.477022488,130,704.0653855,704.5654809,704.0653855,704.5654809,90.47619048,1574190985,1574190988,3.249217749,51,137,-7,-7,1574190983,1574190985,,,EW,1,19,F,Undergrad,2019_Nov_19_1104,AdjustExp1,3.1.5,60.04298874,Experiment
35,Stimuli/Morph35.JPG,Stimuli/Morph35.png,Stimuli/BlurLevel5/BlurEditedMorph35,Stimuli/BlurLevel5/BlurEditedMorph35.png,Stimuli/BlurLevel5/NumberedMorphs/BlurEditedMorph35.png,Stimuli/BlurLevel5/OriginalBlur/BlurEditedMorph35.png,Stimuli/BlurMorphTrio/EditedMorph35.png,010094right.gif,Stimuli/normal_thumbnails/35right.gif,1,0,1,0,0,40,40,34,,,33,2,41,29,2.186549268,1.212024051,35,709.9152735,710.4159626,709.9152735,710.4159626,85.03401361,1574190991,1574190996,4.698568106,59,46,-11,-11,1574190989,1574190991,,,EW,1,19,F,Undergrad,2019_Nov_19_1104,AdjustExp1,3.1.5,60.04298874,Experiment
91,Stimuli/Morph91.JPG,Stimuli/Morph91.png,Stimuli/BlurLevel5/BlurEditedMorph91,Stimuli/BlurLevel5/BlurEditedMorph91.png,Stimuli/BlurLevel5/NumberedMorphs/BlurEditedMorph91.png,Stimuli/BlurLevel5/OriginalBlur/BlurEditedMorph91.png,Stimuli/BlurMorphTrio/EditedMorph91.png,020276right.gif,Stimuli/normal_thumbnails/91right.gif,1,0,1,0,0,41,41,90,,,4,2,42,46,1.736645926,1.798349501,91,717.5842702,718.0822607,717.5842702,718.0822607,93.19727891,1574190999,1574191000,0.800095081,96,96,-5,-5,1574190996,1574190999,,,EW,1,19,F,Undergrad,2019_Nov_19_1104,AdjustExp1,3.1.5,60.04298874,Experiment
135,Stimuli/Morph135.JPG,Stimuli/Morph135.png,Stimuli/BlurLevel5/BlurEditedMorph135,Stimuli/BlurLevel5/BlurEditedMorph135.png,Stimuli/BlurLevel5/NumberedMorphs/BlurEditedMorph135.png,Stimuli/BlurLevel5/OriginalBlur/BlurEditedMorph135.png,Stimuli/BlurMorphTrio/EditedMorph135.png,None,None,1,0,1,0,0,42,42,134,,,73,2,43,188,-2.475670172,-0.347932752,135,720.983952,721.4821232,720.983952,721.4821232,93.19727891,1574191002,1574191005,3.198248863,47,130,5,5,1574191000,1574191002,,,EW,1,19,F,Undergrad,2019_Nov_19_1104,AdjustExp1,3.1.5,60.04298874,Experiment
105,Stimuli/Morph105.JPG,Stimuli/Morph105.png,Stimuli/BlurLevel5/BlurEditedMorph105,Stimuli/BlurLevel5/BlurEditedMorph105.png,Stimuli/BlurLevel5/NumberedMorphs/BlurEditedMorph105.png,Stimuli/BlurLevel5/OriginalBlur/BlurEditedMorph105.png,Stimuli/BlurMorphTrio/EditedMorph105.png,None,None,1,0,1,0,0,43,43,104,,,69,2,44,17,2.39076189,0.730929262,105,726.799165,727.299124,726.799165,727.299124,86.39455782,1574191008,1574191012,3.765620232,91,95,10,10,1574191006,1574191008,,,EW,1,19,F,Undergrad,2019_Nov_19_1104,AdjustExp1,3.1.5,60.04298874,Experiment
76,Stimuli/Morph76.JPG,Stimuli/Morph76.png,Stimuli/BlurLevel5/BlurEditedMorph76,Stimuli/BlurLevel5/BlurEditedMorph76.png,Stimuli/BlurLevel5/NumberedMorphs/BlurEditedMorph76.png,Stimuli/BlurLevel5/OriginalBlur/BlurEditedMorph76.png,Stimuli/BlurMorphTrio/EditedMorph76.png,020234right.gif,Stimuli/normal_thumbnails/76right.gif,1,0,1,0,0,44,44,75,,,63,2,45,81,0.391086163,2.469220851,76,733.1982302,733.6985853,733.1982302,733.6985853,85.03401361,1574191014,1574191017,2.282503843,130,87,-11,-11,1574191012,1574191014,,,EW,1,19,F,Undergrad,2019_Nov_19_1104,AdjustExp1,3.1.5,60.04298874,Experiment
6,Stimuli/Morph6.JPG,Stimuli/Morph6.png,Stimuli/BlurLevel5/BlurEditedMorph6,Stimuli/BlurLevel5/BlurEditedMorph6.png,Stimuli/BlurLevel5/NumberedMorphs/BlurEditedMorph6.png,Stimuli/BlurLevel5/OriginalBlur/BlurEditedMorph6.png,Stimuli/BlurMorphTrio/EditedMorph6.png,010012right.gif,Stimuli/normal_thumbnails/6right.gif,1,0,1,0,0,45,45,5,,,18,2,46,312,1.672826516,-1.857862064,6,737.6889687,738.182417,737.6889687,738.182417,98.63945578,1574191019,1574191021,2.099401951,66,5,1,1,1574191017,1574191019,,,EW,1,19,F,Undergrad,2019_Nov_19_1104,AdjustExp1,3.1.5,60.04298874,Experiment
102,Stimuli/Morph102.JPG,Stimuli/Morph102.png,Stimuli/BlurLevel5/BlurEditedMorph102,Stimuli/BlurLevel5/BlurEditedMorph102.png,Stimuli/BlurLevel5/NumberedMorphs/BlurEditedMorph102.png,Stimuli/BlurLevel5/OriginalBlur/BlurEditedMorph102.png,Stimuli/BlurMorphTrio/EditedMorph102.png,None,None,1,0,1,0,0,46,46,101,,,3,2,47,295,1.056545654,-2.265769468,102,742.1186753,742.6152726,742.1186753,742.6152726,89.11564626,1574191023,1574191024,0.750381947,94,94,8,8,1574191021,1574191023,,,EW,1,19,F,Undergrad,2019_Nov_19_1104,AdjustExp1,3.1.5,60.04298874,Experiment
84,Stimuli/Morph84.JPG,Stimuli/Morph84.png,Stimuli/BlurLevel5/BlurEditedMorph84,Stimuli/BlurLevel5/BlurEditedMorph84.png,Stimuli/BlurLevel5/NumberedMorphs/BlurEditedMorph84.png,Stimuli/BlurLevel5/OriginalBlur/BlurEditedMorph84.png,Stimuli/BlurMorphTrio/EditedMorph84.png,020261right.gif,Stimuli/normal_thumbnails/84right.gif,1,0,1,0,0,47,47,83,,,31,2,48,171,-2.469220851,0.391086163,84,745.2479508,745.7483731,745.2479508,745.7483731,85.03401361,1574191026,1574191028,1.600044966,104,95,-11,-11,1574191024,1574191026,,,EW,1,19,F,Undergrad,2019_Nov_19_1104,AdjustExp1,3.1.5,60.04298874,Experiment
19,Stimuli/Morph19.JPG,Stimuli/Morph19.png,Stimuli/BlurLevel5/BlurEditedMorph19,Stimuli/BlurLevel5/BlurEditedMorph19.png,Stimuli/BlurLevel5/NumberedMorphs/BlurEditedMorph19.png,Stimuli/BlurLevel5/OriginalBlur/BlurEditedMorph19.png,Stimuli/BlurMorphTrio/EditedMorph19.png,010045right.gif,Stimuli/normal_thumbnails/19right.gif,1,0,1,0,0,48,48,18,,,58,2,49,162,-2.377641291,0.772542486,19,749.1712618,749.6654371,749.1712618,749.6654371,100,1574191030,1574191033,2.166944027,19,19,0,0,1574191028,1574191030,,,EW,1,19,F,Undergrad,2019_Nov_19_1104,AdjustExp1,3.1.5,60.04298874,Experiment
138,Stimuli/Morph138.JPG,Stimuli/Morph138.png,Stimuli/BlurLevel5/BlurEditedMorph138,Stimuli/BlurLevel5/BlurEditedMorph138.png,Stimuli/BlurLevel5/NumberedMorphs/BlurEditedMorph138.png,Stimuli/BlurLevel5/OriginalBlur/BlurEditedMorph138.png,Stimuli/BlurMorphTrio/EditedMorph138.png,None,None,1,0,1,0,0,49,49,137,,,24,2,50,231,-1.573300978,-1.942864904,138,753.8981744,754.3987659,753.8981744,754.3987659,94.55782313,1574191035,1574191036,0.900511265,142,142,-4,-4,1574191033,1574191035,,,EW,1,19,F,Undergrad,2019_Nov_19_1104,AdjustExp1,3.1.5,60.04298874,Experiment
129,Stimuli/Morph129.JPG,Stimuli/Morph129.png,Stimuli/BlurLevel5/BlurEditedMorph129,Stimuli/BlurLevel5/BlurEditedMorph129.png,Stimuli/BlurLevel5/NumberedMorphs/BlurEditedMorph129.png,Stimuli/BlurLevel5/OriginalBlur/BlurEditedMorph129.png,Stimuli/BlurMorphTrio/EditedMorph129.png,None,None,1,0,1,0,0,50,50,128,,,13,2,51,241,-1.212024051,-2.186549268,129,757.7499187,758.2479667,757.7499187,758.2479667,83.67346939,1574191039,1574191041,1.967082262,52,141,-12,-12,1574191036,1574191039,,,EW,1,19,F,Undergrad,2019_Nov_19_1104,AdjustExp1,3.1.5,60.04298874,Experiment
47,Stimuli/Morph47.JPG,Stimuli/Morph47.png,Stimuli/BlurLevel5/BlurEditedMorph47,Stimuli/BlurLevel5/BlurEditedMorph47.png,Stimuli/BlurLevel5/NumberedMorphs/BlurEditedMorph47.png,Stimuli/BlurLevel5/OriginalBlur/BlurEditedMorph47.png,Stimuli/BlurMorphTrio/EditedMorph47.png,010130right.gif,Stimuli/normal_thumbnails/47right.gif,1,0,1,0,0,51,51,46,,,89,2,52,336,2.283863644,-1.016841608,47,762.3825586,762.8808632,762.3825586,762.8808632,93.19727891,1574191044,1574191048,4.366513968,18,52,-5,-5,1574191041,1574191044,,,EW,1,19,F,Undergrad,2019_Nov_19_1104,AdjustExp1,3.1.5,60.04298874,Experiment
126,Stimuli/Morph126.JPG,Stimuli/Morph126.png,Stimuli/BlurLevel5/BlurEditedMorph126,Stimuli/BlurLevel5/BlurEditedMorph126.png,Stimuli/BlurLevel5/NumberedMorphs/BlurEditedMorph126.png,Stimuli/BlurLevel5/OriginalBlur/BlurEditedMorph126.png,Stimuli/BlurMorphTrio/EditedMorph126.png,None,None,1,0,1,0,0,52,52,125,,,2,2,53,99,-0.391086163,2.469220851,126,769.1983209,769.698774,769.1983209,769.698774,83.67346939,1574191050,1574191052,1.717427254,5,114,12,12,1574191048,1574191050,,,EW,1,19,F,Undergrad,2019_Nov_19_1104,AdjustExp1,3.1.5,60.04298874,Experiment
30,Stimuli/Morph30.JPG,Stimuli/Morph30.png,Stimuli/BlurLevel5/BlurEditedMorph30,Stimuli/BlurLevel5/BlurEditedMorph30.png,Stimuli/BlurLevel5/NumberedMorphs/BlurEditedMorph30.png,Stimuli/BlurLevel5/OriginalBlur/BlurEditedMorph30.png,Stimuli/BlurMorphTrio/EditedMorph30.png,010076right.gif,Stimuli/normal_thumbnails/30right.gif,1,0,1,0,0,53,53,29,,,71,2,54,167,-2.435925162,0.562377636,30,773.333001,773.8316362,773.333001,773.8316362,90.47619048,1574191055,1574191059,4.883432865,135,23,7,7,1574191052,1574191054,,,EW,1,19,F,Undergrad,2019_Nov_19_1104,AdjustExp1,3.1.5,60.04298874,Experiment
61,Stimuli/Morph61.JPG,Stimuli/Morph61.png,Stimuli/BlurLevel5/BlurEditedMorph61,Stimuli/BlurLevel5/BlurEditedMorph61.png,Stimuli/BlurLevel5/NumberedMorphs/BlurEditedMorph61.png,Stimuli/BlurLevel5/OriginalBlur/BlurEditedMorph61.png,Stimuli/BlurMorphTrio/EditedMorph61.png,020201right.gif,Stimuli/normal_thumbnails/61right.gif,1,0,1,0,0,54,54,60,,,38,2,55,19,2.363796439,0.813920386,61,780.8837503,781.3814403,780.8837503,781.3814403,76.8707483,1574191062,1574191064,1.516447067,19,44,17,17,1574191060,1574191062,,,EW,1,19,F,Undergrad,2019_Nov_19_1104,AdjustExp1,3.1.5,60.04298874,Experiment
7,Stimuli/Morph7.JPG,Stimuli/Morph7.png,Stimuli/BlurLevel5/BlurEditedMorph7,Stimuli/BlurLevel5/BlurEditedMorph7.png,Stimuli/BlurLevel5/NumberedMorphs/BlurEditedMorph7.png,Stimuli/BlurLevel5/OriginalBlur/BlurEditedMorph7.png,Stimuli/BlurMorphTrio/EditedMorph7.png,010013right.gif,Stimuli/normal_thumbnails/7right.gif,1,0,1,0,0,55,55,6,,,46,2,56,179,-2.499619238,0.043631016,7,784.9199234,785.4141224,784.9199234,785.4141224,82.31292517,1574191066,1574191068,2.184726,81,20,-13,-13,1574191064,1574191066,,,EW,1,19,F,Undergrad,2019_Nov_19_1104,AdjustExp1,3.1.5,60.04298874,Experiment
78,Stimuli/Morph78.JPG,Stimuli/Morph78.png,Stimuli/BlurLevel5/BlurEditedMorph78,Stimuli/BlurLevel5/BlurEditedMorph78.png,Stimuli/BlurLevel5/NumberedMorphs/BlurEditedMorph78.png,Stimuli/BlurLevel5/OriginalBlur/BlurEditedMorph78.png,Stimuli/BlurMorphTrio/EditedMorph78.png,020238right.gif,Stimuli/normal_thumbnails/78right.gif,1,0,1,0,0,56,56,77,,,74,2,57,59,1.287595187,2.142918252,78,789.4818975,789.9816538,789.4818975,789.9816538,85.03401361,1574191071,1574191073,2.399383068,145,67,11,11,1574191069,1574191071,,,EW,1,19,F,Undergrad,2019_Nov_19_1104,AdjustExp1,3.1.5,60.04298874,Experiment
1,Stimuli/Morph1.JPG,Stimuli/Morph1.png,Stimuli/BlurLevel5/BlurEditedMorph1,Stimuli/BlurLevel5/BlurEditedMorph1.png,Stimuli/BlurLevel5/NumberedMorphs/BlurEditedMorph1.png,Stimuli/BlurLevel5/OriginalBlur/BlurEditedMorph1.png,Stimuli/BlurMorphTrio/EditedMorph1.png,010003right.gif,Stimuli/normal_thumbnails/1right.gif,1,0,1,0,0,57,57,0,,,81,2,58,241,-1.212024051,-2.186549268,1,794.414237,794.9148432,794.414237,794.9148432,83.67346939,1574191076,1574191080,4.300557137,121,136,-135,12,1574191073,1574191076,,,EW,1,19,F,Undergrad,2019_Nov_19_1104,AdjustExp1,3.1.5,60.04298874,Experiment
120,Stimuli/Morph120.JPG,Stimuli/Morph120.png,Stimuli/BlurLevel5/BlurEditedMorph120,Stimuli/BlurLevel5/BlurEditedMorph120.png,Stimuli/BlurLevel5/NumberedMorphs/BlurEditedMorph120.png,Stimuli/BlurLevel5/OriginalBlur/BlurEditedMorph120.png,Stimuli/BlurMorphTrio/EditedMorph120.png,None,None,1,0,1,0,0,58,58,119,,,92,2,59,157,-2.301262134,0.976827821,120,801.6346623,802.131402,801.6346623,802.131402,87.75510204,1574191083,1574191087,4.06575799,15,129,-9,-9,1574191080,1574191083,,,EW,1,19,F,Undergrad,2019_Nov_19_1104,AdjustExp1,3.1.5,60.04298874,Experiment
54,Stimuli/Morph54.JPG,Stimuli/Morph54.png,Stimuli/BlurLevel5/BlurEditedMorph54,Stimuli/BlurLevel5/BlurEditedMorph54.png,Stimuli/BlurLevel5/NumberedMorphs/BlurEditedMorph54.png,Stimuli/BlurLevel5/OriginalBlur/BlurEditedMorph54.png,Stimuli/BlurMorphTrio/EditedMorph54.png,010150right.gif,Stimuli/normal_thumbnails/54right.gif,1,0,1,0,0,59,59,53,,,9,2,60,44,1.798349501,1.736645926,54,807.8701852,808.3646482,807.8701852,808.3646482,90.47619048,1574191089,1574191092,2.967726231,123,47,7,7,1574191087,1574191089,,,EW,1,19,F,Undergrad,2019_Nov_19_1104,AdjustExp1,3.1.5,60.04298874,Experiment
107,Stimuli/Morph107.JPG,Stimuli/Morph107.png,Stimuli/BlurLevel5/BlurEditedMorph107,Stimuli/BlurLevel5/BlurEditedMorph107.png,Stimuli/BlurLevel5/NumberedMorphs/BlurEditedMorph107.png,Stimuli/BlurLevel5/OriginalBlur/BlurEditedMorph107.png,Stimuli/BlurMorphTrio/EditedMorph107.png,None,None,1,0,1,0,0,60,60,106,,,60,2,61,349,2.454067959,-0.477022488,107,813.3143022,813.8140611,813.3143022,813.8140611,78.23129252,1574191094,1574191099,4.099768162,65,123,-16,-16,1574191092,1574191094,,,EW,1,19,F,Undergrad,2019_Nov_19_1104,AdjustExp1,3.1.5,60.04298874,Experiment
62,Stimuli/Morph62.JPG,Stimuli/Morph62.png,Stimuli/BlurLevel5/BlurEditedMorph62,Stimuli/BlurLevel5/BlurEditedMorph62.png,Stimuli/BlurLevel5/NumberedMorphs/BlurEditedMorph62.png,Stimuli/BlurLevel5/OriginalBlur/BlurEditedMorph62.png,Stimuli/BlurMorphTrio/EditedMorph62.png,020205right.gif,Stimuli/normal_thumbnails/62right.gif,1,0,1,0,0,61,61,61,,,7,2,62,86,0.174391184,2.493910126,62,819.7539209,820.2478165,819.7539209,820.2478165,94.55782313,1574191101,1574191105,4.100385904,86,66,-4,-4,1574191099,1574191101,,,EW,1,19,F,Undergrad,2019_Nov_19_1104,AdjustExp1,3.1.5,60.04298874,Experiment
15,Stimuli/Morph15.JPG,Stimuli/Morph15.png,Stimuli/BlurLevel5/BlurEditedMorph15,Stimuli/BlurLevel5/BlurEditedMorph15.png,Stimuli/BlurLevel5/NumberedMorphs/BlurEditedMorph15.png,Stimuli/BlurLevel5/OriginalBlur/BlurEditedMorph15.png,Stimuli/BlurMorphTrio/EditedMorph15.png,010031right.gif,Stimuli/normal_thumbnails/15right.gif,1,0,1,0,0,62,62,14,,,43,2,63,25,2.265769468,1.056545654,15,826.4802522,826.9803892,826.4802522,826.9803892,97.27891156,1574191108,1574191110,2.133112907,84,13,2,2,1574191105,1574191108,,,EW,1,19,F,Undergrad,2019_Nov_19_1104,AdjustExp1,3.1.5,60.04298874,Experiment
108,Stimuli/Morph108.JPG,Stimuli/Morph108.png,Stimuli/BlurLevel5/BlurEditedMorph108,Stimuli/BlurLevel5/BlurEditedMorph108.png,Stimuli/BlurLevel5/NumberedMorphs/BlurEditedMorph108.png,Stimuli/BlurLevel5/OriginalBlur/BlurEditedMorph108.png,Stimuli/BlurMorphTrio/EditedMorph108.png,None,None,1,0,1,0,0,63,63,107,,,97,2,64,60,1.25,2.165063509,108,831.3477123,831.8478651,831.3477123,831.8478651,83.67346939,1574191113,1574191114,1.650388241,82,96,12,12,1574191110,1574191113,,,EW,1,19,F,Undergrad,2019_Nov_19_1104,AdjustExp1,3.1.5,60.04298874,Experiment
18,Stimuli/Morph18.JPG,Stimuli/Morph18.png,Stimuli/BlurLevel5/BlurEditedMorph18,Stimuli/BlurLevel5/BlurEditedMorph18.png,Stimuli/BlurLevel5/NumberedMorphs/BlurEditedMorph18.png,Stimuli/BlurLevel5/OriginalBlur/BlurEditedMorph18.png,Stimuli/BlurMorphTrio/EditedMorph18.png,010039right.gif,Stimuli/normal_thumbnails/18right.gif,1,0,1,0,0,64,64,17,,,13,2,65,169,-2.454067959,0.477022488,18,835.8807398,836.380851,835.8807398,836.380851,95.91836735,1574191117,1574191119,2.066253901,75,15,3,3,1574191114,1574191117,,,EW,1,19,F,Undergrad,2019_Nov_19_1104,AdjustExp1,3.1.5,60.04298874,Experiment
98,Stimuli/Morph98.JPG,Stimuli/Morph98.png,Stimuli/BlurLevel5/BlurEditedMorph98,Stimuli/BlurLevel5/BlurEditedMorph98.png,Stimuli/BlurLevel5/NumberedMorphs/BlurEditedMorph98.png,Stimuli/BlurLevel5/OriginalBlur/BlurEditedMorph98.png,Stimuli/BlurMorphTrio/EditedMorph98.png,020298right.gif,Stimuli/normal_thumbnails/98right.gif,1,0,1,0,0,65,65,97,,,19,2,66,208,-2.207368982,-1.173678907,98,840.6358475,841.1308676,840.6358475,841.1308676,90.47619048,1574191122,1574191123,0.90053606,105,105,-7,-7,1574191119,1574191122,,,EW,1,19,F,Undergrad,2019_Nov_19_1104,AdjustExp1,3.1.5,60.04298874,Experiment
140,Stimuli/Morph140.JPG,Stimuli/Morph140.png,Stimuli/BlurLevel5/BlurEditedMorph140,Stimuli/BlurLevel5/BlurEditedMorph140.png,Stimuli/BlurLevel5/NumberedMorphs/BlurEditedMorph140.png,Stimuli/BlurLevel5/OriginalBlur/BlurEditedMorph140.png,Stimuli/BlurMorphTrio/EditedMorph140.png,None,None,1,0,1,0,0,66,66,139,,,31,2,67,262,-0.347932752,-2.475670172,140,844.4141233,844.9138614,844.4141233,844.9138614,91.83673469,1574191126,1574191127,1.166756868,134,134,6,6,1574191123,1574191126,,,EW,1,19,F,Undergrad,2019_Nov_19_1104,AdjustExp1,3.1.5,60.04298874,Experiment
27,Stimuli/Morph27.JPG,Stimuli/Morph27.png,Stimuli/BlurLevel5/BlurEditedMorph27,Stimuli/BlurLevel5/BlurEditedMorph27.png,Stimuli/BlurLevel5/NumberedMorphs/BlurEditedMorph27.png,Stimuli/BlurLevel5/OriginalBlur/BlurEditedMorph27.png,Stimuli/BlurMorphTrio/EditedMorph27.png,010072right.gif,Stimuli/normal_thumbnails/27right.gif,1,0,1,0,0,67,67,26,,,68,2,68,223,-1.828384254,-1.7049959,27,847.9632714,848.4642812,847.9632714,848.4642812,61.9047619,1574191129,1574191133,3.817370176,78,146,-119,28,1574191127,1574191129,,,EW,1,19,F,Undergrad,2019_Nov_19_1104,AdjustExp1,3.1.5,60.04298874,Experiment
38,Stimuli/Morph38.JPG,Stimuli/Morph38.png,Stimuli/BlurLevel5/BlurEditedMorph38,Stimuli/BlurLevel5/BlurEditedMorph38.png,Stimuli/BlurLevel5/NumberedMorphs/BlurEditedMorph38.png,Stimuli/BlurLevel5/OriginalBlur/BlurEditedMorph38.png,Stimuli/BlurMorphTrio/EditedMorph38.png,010108right.gif,Stimuli/normal_thumbnails/38right.gif,1,0,1,0,0,68,68,37,,,42,2,69,59,1.287595187,2.142918252,38,854.6356301,855.1305857,854.6356301,855.1305857,97.27891156,1574191136,1574191138,2.616348743,25,36,2,2,1574191133,1574191136,,,EW,1,19,F,Undergrad,2019_Nov_19_1104,AdjustExp1,3.1.5,60.04298874,Experiment
111,Stimuli/Morph111.JPG,Stimuli/Morph111.png,Stimuli/BlurLevel5/BlurEditedMorph111,Stimuli/BlurLevel5/BlurEditedMorph111.png,Stimuli/BlurLevel5/NumberedMorphs/BlurEditedMorph111.png,Stimuli/BlurLevel5/OriginalBlur/BlurEditedMorph111.png,Stimuli/BlurMorphTrio/EditedMorph111.png,None,None,1,0,1,0,0,69,69,110,,,31,2,70,4,2.493910126,0.174391184,111,859.6138996,860.1139172,859.6138996,860.1139172,83.67346939,1574191141,1574191142,1.566636086,87,99,12,12,1574191139,1574191141,,,EW,1,19,F,Undergrad,2019_Nov_19_1104,AdjustExp1,3.1.5,60.04298874,Experiment
60,Stimuli/Morph60.JPG,Stimuli/Morph60.png,Stimuli/BlurLevel5/BlurEditedMorph60,Stimuli/BlurLevel5/BlurEditedMorph60.png,Stimuli/BlurLevel5/NumberedMorphs/BlurEditedMorph60.png,Stimuli/BlurLevel5/OriginalBlur/BlurEditedMorph60.png,Stimuli/BlurMorphTrio/EditedMorph60.png,020200right.gif,Stimuli/normal_thumbnails/60right.gif,1,0,1,0,0,70,70,59,,,39,2,71,280,0.434120444,-2.462019383,60,863.5306762,864.0295201,863.5306762,864.0295201,83.67346939,1574191145,1574191150,5.433106899,74,48,12,12,1574191143,1574191145,,,EW,1,19,F,Undergrad,2019_Nov_19_1104,AdjustExp1,3.1.5,60.04298874,Experiment
72,Stimuli/Morph72.JPG,Stimuli/Morph72.png,Stimuli/BlurLevel5/BlurEditedMorph72,Stimuli/BlurLevel5/BlurEditedMorph72.png,Stimuli/BlurLevel5/NumberedMorphs/BlurEditedMorph72.png,Stimuli/BlurLevel5/OriginalBlur/BlurEditedMorph72.png,Stimuli/BlurMorphTrio/EditedMorph72.png,020227right.gif,Stimuli/normal_thumbnails/72right.gif,1,0,1,0,0,71,71,71,,,69,2,72,146,-2.072593931,1.397982259,72,871.4137682,871.91399,871.4137682,871.91399,70.06802721,1574191153,1574191155,2.400516033,4,50,22,22,1574191150,1574191153,,,EW,1,19,F,Undergrad,2019_Nov_19_1104,AdjustExp1,3.1.5,60.04298874,Experiment
75,Stimuli/Morph75.JPG,Stimuli/Morph75.png,Stimuli/BlurLevel5/BlurEditedMorph75,Stimuli/BlurLevel5/BlurEditedMorph75.png,Stimuli/BlurLevel5/NumberedMorphs/BlurEditedMorph75.png,Stimuli/BlurLevel5/OriginalBlur/BlurEditedMorph75.png,Stimuli/BlurMorphTrio/EditedMorph75.png,020233right.gif,Stimuli/normal_thumbnails/75right.gif,1,0,1,0,0,72,72,74,,,39,2,73,305,1.433941091,-2.047880111,75,876.1206465,876.613595,876.1206465,876.613595,75.51020408,1574191157,1574191161,3.999876976,38,93,-18,-18,1574191155,1574191157,,,EW,1,19,F,Undergrad,2019_Nov_19_1104,AdjustExp1,3.1.5,60.04298874,Experiment
45,Stimuli/Morph45.JPG,Stimuli/Morph45.png,Stimuli/BlurLevel5/BlurEditedMorph45,Stimuli/BlurLevel5/BlurEditedMorph45.png,Stimuli/BlurLevel5/NumberedMorphs/BlurEditedMorph45.png,Stimuli/BlurLevel5/OriginalBlur/BlurEditedMorph45.png,Stimuli/BlurMorphTrio/EditedMorph45.png,010127right.gif,Stimuli/normal_thumbnails/45right.gif,1,0,1,0,0,73,73,44,,,28,2,74,75,0.647047613,2.414814566,45,882.5354907,883.030328,882.5354907,883.030328,91.83673469,1574191164,1574191165,1.216992855,39,39,6,6,1574191162,1574191164,,,EW,1,19,F,Undergrad,2019_Nov_19_1104,AdjustExp1,3.1.5,60.04298874,Experiment
115,Stimuli/Morph115.JPG,Stimuli/Morph115.png,Stimuli/BlurLevel5/BlurEditedMorph115,Stimuli/BlurLevel5/BlurEditedMorph115.png,Stimuli/BlurLevel5/NumberedMorphs/BlurEditedMorph115.png,Stimuli/BlurLevel5/OriginalBlur/BlurEditedMorph115.png,Stimuli/BlurMorphTrio/EditedMorph115.png,None,None,1,0,1,0,0,74,74,114,,,69,2,75,171,-2.469220851,0.391086163,115,886.1222623,886.6135179,886.1222623,886.6135179,94.55782313,1574191167,1574191170,3.066807032,146,119,-4,-4,1574191165,1574191167,,,EW,1,19,F,Undergrad,2019_Nov_19_1104,AdjustExp1,3.1.5,60.04298874,Experiment
132,Stimuli/Morph132.JPG,Stimuli/Morph132.png,Stimuli/BlurLevel5/BlurEditedMorph132,Stimuli/BlurLevel5/BlurEditedMorph132.png,Stimuli/BlurLevel5/NumberedMorphs/BlurEditedMorph132.png,Stimuli/BlurLevel5/OriginalBlur/BlurEditedMorph132.png,Stimuli/BlurMorphTrio/EditedMorph132.png,None,None,1,0,1,0,0,75,75,131,,,81,2,76,265,-0.217889357,-2.490486745,132,891.4132075,891.9136408,891.4132075,891.9136408,56.46258503,1574191173,1574191177,3.965875149,43,100,32,32,1574191171,1574191173,,,EW,1,19,F,Undergrad,2019_Nov_19_1104,AdjustExp1,3.1.5,60.04298874,Experiment
136,Stimuli/Morph136.JPG,Stimuli/Morph136.png,Stimuli/BlurLevel5/BlurEditedMorph136,Stimuli/BlurLevel5/BlurEditedMorph136.png,Stimuli/BlurLevel5/NumberedMorphs/BlurEditedMorph136.png,Stimuli/BlurLevel5/OriginalBlur/BlurEditedMorph136.png,Stimuli/BlurMorphTrio/EditedMorph136.png,None,None,1,0,1,0,0,76,76,135,,,93,2,77,171,-2.469220851,0.391086163,136,898.3305478,898.8293444,898.3305478,898.8293444,89.11564626,1574191180,1574191181,1.666502953,6,144,-8,-8,1574191177,1574191179,,,EW,1,19,F,Undergrad,2019_Nov_19_1104,AdjustExp1,3.1.5,60.04298874,Experiment
42,Stimuli/Morph42.JPG,Stimuli/Morph42.png,Stimuli/BlurLevel5/BlurEditedMorph42,Stimuli/BlurLevel5/BlurEditedMorph42.png,Stimuli/BlurLevel5/NumberedMorphs/BlurEditedMorph42.png,Stimuli/BlurLevel5/OriginalBlur/BlurEditedMorph42.png,Stimuli/BlurMorphTrio/EditedMorph42.png,010121right.gif,Stimuli/normal_thumbnails/42right.gif,1,0,1,0,0,77,77,41,,,30,2,78,35,2.047880111,1.433941091,42,902.6298799,903.1300175,902.6298799,903.1300175,94.55782313,1574191184,1574191187,3.149456739,137,46,-4,-4,1574191181,1574191184,,,EW,1,19,F,Undergrad,2019_Nov_19_1104,AdjustExp1,3.1.5,60.04298874,Experiment
82,Stimuli/Morph82.JPG,Stimuli/Morph82.png,Stimuli/BlurLevel5/BlurEditedMorph82,Stimuli/BlurLevel5/BlurEditedMorph82.png,Stimuli/BlurLevel5/NumberedMorphs/BlurEditedMorph82.png,Stimuli/BlurLevel5/OriginalBlur/BlurEditedMorph82.png,Stimuli/BlurMorphTrio/EditedMorph82.png,020247right.gif,Stimuli/normal_thumbnails/82right.gif,1,0,1,0,0,78,78,81,,,63,2,79,34,2.072593931,1.397982259,82,908.3520305,908.8466942,908.3520305,908.8466942,57.82312925,1574191190,1574191193,3.099238873,94,113,-31,-31,1574191187,1574191190,,,EW,1,19,F,Undergrad,2019_Nov_19_1104,AdjustExp1,3.1.5,60.04298874,Experiment
85,Stimuli/Morph85.JPG,Stimuli/Morph85.png,Stimuli/BlurLevel5/BlurEditedMorph85,Stimuli/BlurLevel5/BlurEditedMorph85.png,Stimuli/BlurLevel5/NumberedMorphs/BlurEditedMorph85.png,Stimuli/BlurLevel5/OriginalBlur/BlurEditedMorph85.png,Stimuli/BlurMorphTrio/EditedMorph85.png,020264right.gif,Stimuli/normal_thumbnails/85right.gif,1,0,1,0,0,79,79,84,,,83,2,80,285,0.647047613,-2.414814566,85,914.2199263,914.7132113,914.2199263,914.7132113,89.11564626,1574191195,1574191198,2.482983828,72,93,-8,-8,1574191193,1574191195,,,EW,1,19,F,Undergrad,2019_Nov_19_1104,AdjustExp1,3.1.5,60.04298874,Experiment
93,Stimuli/Morph93.JPG,Stimuli/Morph93.png,Stimuli/BlurLevel5/BlurEditedMorph93,Stimuli/BlurLevel5/BlurEditedMorph93.png,Stimuli/BlurLevel5/NumberedMorphs/BlurEditedMorph93.png,Stimuli/BlurLevel5/OriginalBlur/BlurEditedMorph93.png,Stimuli/BlurMorphTrio/EditedMorph93.png,020280right.gif,Stimuli/normal_thumbnails/93right.gif,1,0,1,0,0,80,80,92,,,56,2,81,20,2.349231552,0.855050358,93,919.4967102,919.9963838,919.4967102,919.9963838,70.06802721,1574191201,1574191204,2.999944925,62,115,-22,-22,1574191198,1574191201,,,EW,1,19,F,Undergrad,2019_Nov_19_1104,AdjustExp1,3.1.5,60.04298874,Experiment
70,Stimuli/Morph70.JPG,Stimuli/Morph70.png,Stimuli/BlurLevel5/BlurEditedMorph70,Stimuli/BlurLevel5/BlurEditedMorph70.png,Stimuli/BlurLevel5/NumberedMorphs/BlurEditedMorph70.png,Stimuli/BlurLevel5/OriginalBlur/BlurEditedMorph70.png,Stimuli/BlurMorphTrio/EditedMorph70.png,020221right.gif,Stimuli/normal_thumbnails/70right.gif,1,0,1,0,0,81,81,69,,,93,2,82,236,-1.397982259,-2.072593931,70,925.256606,925.7459893,925.256606,925.7459893,87.75510204,1574191206,1574191209,2.883311033,56,79,-9,-9,1574191204,1574191206,,,EW,1,19,F,Undergrad,2019_Nov_19_1104,AdjustExp1,3.1.5,60.04298874,Experiment
56,Stimuli/Morph56.JPG,Stimuli/Morph56.png,Stimuli/BlurLevel5/BlurEditedMorph56,Stimuli/BlurLevel5/BlurEditedMorph56.png,Stimuli/BlurLevel5/NumberedMorphs/BlurEditedMorph56.png,Stimuli/BlurLevel5/OriginalBlur/BlurEditedMorph56.png,Stimuli/BlurMorphTrio/EditedMorph56.png,010157right.gif,Stimuli/normal_thumbnails/56right.gif,1,0,1,0,0,82,82,55,,,13,2,83,45,1.767766953,1.767766953,56,930.6302682,931.1295651,930.6302682,931.1295651,65.98639456,1574191212,1574191220,7.966575861,136,81,-25,-25,1574191210,1574191212,,,EW,1,19,F,Undergrad,2019_Nov_19_1104,AdjustExp1,3.1.5,60.04298874,Experiment
29,Stimuli/Morph29.JPG,Stimuli/Morph29.png,Stimuli/BlurLevel5/BlurEditedMorph29,Stimuli/BlurLevel5/BlurEditedMorph29.png,Stimuli/BlurLevel5/NumberedMorphs/BlurEditedMorph29.png,Stimuli/BlurLevel5/OriginalBlur/BlurEditedMorph29.png,Stimuli/BlurMorphTrio/EditedMorph29.png,010074right.gif,Stimuli/normal_thumbnails/29right.gif,1,0,1,0,0,83,83,28,,,41,2,84,166,-2.425739316,0.604804739,29,941.2451929,941.7462622,941.2451929,941.7462622,80.95238095,1574191222,1574191225,2.083606005,138,15,14,14,1574191220,1574191222,,,EW,1,19,F,Undergrad,2019_Nov_19_1104,AdjustExp1,3.1.5,60.04298874,Experiment
31,Stimuli/Morph31.JPG,Stimuli/Morph31.png,Stimuli/BlurLevel5/BlurEditedMorph31,Stimuli/BlurLevel5/BlurEditedMorph31.png,Stimuli/BlurLevel5/NumberedMorphs/BlurEditedMorph31.png,Stimuli/BlurLevel5/OriginalBlur/BlurEditedMorph31.png,Stimuli/BlurMorphTrio/EditedMorph31.png,010079right.gif,Stimuli/normal_thumbnails/31right.gif,1,0,1,0,0,84,84,30,,,82,2,85,319,1.886773951,-1.640147572,31,946.0961655,946.5958757,946.0961655,946.5958757,97.27891156,1574191227,1574191229,1.801483154,9,29,2,2,1574191225,1574191227,,,EW,1,19,F,Undergrad,2019_Nov_19_1104,AdjustExp1,3.1.5,60.04298874,Experiment
28,Stimuli/Morph28.JPG,Stimuli/Morph28.png,Stimuli/BlurLevel5/BlurEditedMorph28,Stimuli/BlurLevel5/BlurEditedMorph28.png,Stimuli/BlurLevel5/NumberedMorphs/BlurEditedMorph28.png,Stimuli/BlurLevel5/OriginalBlur/BlurEditedMorph28.png,Stimuli/BlurMorphTrio/EditedMorph28.png,010073right.gif,Stimuli/normal_thumbnails/28right.gif,2,0,2,0,0,0,0,27,,,52,3,1,52,1.539153688,1.970026884,28,1008.578771,1009.078161,1008.578771,1009.078161,80.95238095,1574191290,1574191293,3.633461952,106,14,14,14,1574191288,1574191290,space,58.24327749,EW,1,19,F,Undergrad,2019_Nov_19_1104,AdjustExp1,3.1.5,60.04298874,Experiment
