stimulusID,stimulus_JPG,stimulusPath,stimulusPath2,stimulusPath3,stimulusPath4,stimulusPath5,stimulusPath6,xRayOriginal,xRayPath,Training.thisRepN,Training.thisTrialN,Training.thisN,Training.thisIndex,Blocks.thisRepN,Blocks.thisTrialN,Blocks.thisN,Blocks.thisIndex,Trials.thisRepN,Trials.thisTrialN,Trials.thisN,Trials.thisIndex,text_2.started,text_2.stopped,image.started,image.stopped,image_2.started,image_2.stopped,image_3.started,image_3.stopped,image_4.started,image_4.stopped,image_6.started,image_6.stopped,image_7.started,image_7.stopped,image_8.started,image_8.stopped,image_9.started,image_9.stopped,image_10.started,image_10.stopped,image_12.started,image_12.stopped,xrayID,trialNumber,blockNumber,stimLocationDeg,stimXCoord,stimYCoord,stimulusID,blockType,trainingXray.started,trainingXray.stopped,trainingTumors.started,trainingTumors.stopped,trainingScore%,startTrainingRespTime,endTrainingRespTime,trainingRT,morphTrack,morphID,errorRaw,errorCorrected,startTrainingStimTime,endTrainingStimTime,key_resp_3.keys,key_resp_3.rt,text.started,text.stopped,text_3.started,text_3.stopped,text_4.started,text_4.stopped,key_resp_5.keys,key_resp_5.rt,key_resp_5.started,key_resp_5.stopped,xray1.started,xray1.stopped,tumors.started,tumors.stopped,trialCorrect%,startRespTime,endRespTime,RT,startStimTime,endStimTime,key_resp.keys,key_resp.rt,participant,session,age,gender,status,date,expName,psychopyVersion,frameRate
69,Stimuli/Morph69.JPG,Stimuli/Morph69.png,Stimuli/BlurLevel5/BlurEditedMorph69,Stimuli/BlurLevel5/BlurEditedMorph69.png,Stimuli/BlurLevel5/NumberedMorphs/BlurEditedMorph69.png,Stimuli/BlurLevel5/OriginalBlur/BlurEditedMorph69.png,Stimuli/BlurMorphTrio/EditedMorph69.png,020220right.gif,Stimuli/normal_thumbnails/69right.gif,0,0,0,68,,,,,,,,,75.27213985,None,75.27213985,None,75.27213985,None,75.27213985,None,75.27213985,None,75.27213985,None,75.27213985,None,75.27213985,None,75.27213985,None,75.27213985,None,75.27213985,None,52,-100,-100,131,-1.640147572,1.886773951,69,training,157.2943466,157.9634708,157.2943466,157.9634708,67.34693878,1583447421,1583447433,11.69489622,2,93,-24,-24,1583447419,1583447421,space,8.777952263,,,,,,,,,,,,,,,,,,,,,,,HE,1,22,male,undergrad,2020_Mar_05_1428,AdjustEyeTrack,3.1.5,60.6067203
86,Stimuli/Morph86.JPG,Stimuli/Morph86.png,Stimuli/BlurLevel5/BlurEditedMorph86,Stimuli/BlurLevel5/BlurEditedMorph86.png,Stimuli/BlurLevel5/NumberedMorphs/BlurEditedMorph86.png,Stimuli/BlurLevel5/OriginalBlur/BlurEditedMorph86.png,Stimuli/BlurMorphTrio/EditedMorph86.png,020266right.gif,Stimuli/normal_thumbnails/86right.gif,0,1,1,85,,,,,,,,,,,,,,,,,,,,,,,,,,,,,,,23,-100,-100,212,-2.12012024,-1.324798161,86,training,180.9072905,181.571499,180.9072905,181.571499,80.95238095,1583447445,1583447447,2.199640036,103,100,-14,-14,1583447442,1583447445,space,23.25959977,,,,,,,,,,,,,,,,,,,,,,,HE,1,22,male,undergrad,2020_Mar_05_1428,AdjustEyeTrack,3.1.5,60.6067203
96,Stimuli/Morph96.JPG,Stimuli/Morph96.png,Stimuli/BlurLevel5/BlurEditedMorph96,Stimuli/BlurLevel5/BlurEditedMorph96.png,Stimuli/BlurLevel5/NumberedMorphs/BlurEditedMorph96.png,Stimuli/BlurLevel5/OriginalBlur/BlurEditedMorph96.png,Stimuli/BlurMorphTrio/EditedMorph96.png,020292right.gif,Stimuli/normal_thumbnails/96right.gif,0,2,2,95,,,,,,,,,,,,,,,,,,,,,,,,,,,,,,,99,-100,-100,288,0.772542486,-2.377641291,96,training,209.3883345,210.0461683,209.3883345,210.0461683,55.10204082,1583447473,1583447477,3.949572086,43,63,33,33,1583447471,1583447473,space,4.53834965,,,,,,,,,,,,,,,,,,,,,,,HE,1,22,male,undergrad,2020_Mar_05_1428,AdjustEyeTrack,3.1.5,60.6067203
113,Stimuli/Morph113.JPG,Stimuli/Morph113.png,Stimuli/BlurLevel5/BlurEditedMorph113,Stimuli/BlurLevel5/BlurEditedMorph113.png,Stimuli/BlurLevel5/NumberedMorphs/BlurEditedMorph113.png,Stimuli/BlurLevel5/OriginalBlur/BlurEditedMorph113.png,Stimuli/BlurMorphTrio/EditedMorph113.png,None,None,0,3,3,112,,,,,,,,,,,,,,,,,,,,,,,,,,,,,,,27,-100,-100,266,-0.174391184,-2.493910126,113,training,221.1028158,221.7822825,221.1028158,221.7822825,98.63945578,1583447485,1583447494,8.833754063,139,114,-1,-1,1583447482,1583447485,space,4.555974107,,,,,,,,,,,,,,,,,,,,,,,HE,1,22,male,undergrad,2020_Mar_05_1428,AdjustEyeTrack,3.1.5,60.6067203
103,Stimuli/Morph103.JPG,Stimuli/Morph103.png,Stimuli/BlurLevel5/BlurEditedMorph103,Stimuli/BlurLevel5/BlurEditedMorph103.png,Stimuli/BlurLevel5/NumberedMorphs/BlurEditedMorph103.png,Stimuli/BlurLevel5/OriginalBlur/BlurEditedMorph103.png,Stimuli/BlurMorphTrio/EditedMorph103.png,None,None,0,4,4,102,,,,,,,,,,,,,,,,,,,,,,,,,,,,,,,59,-100,-100,299,1.212024051,-2.186549268,103,training,237.4655637,238.1325039,237.4655637,238.1325039,95.91836735,1583447501,1583447504,2.765640259,54,106,-3,-3,1583447499,1583447501,space,3.591269157,,,,,,,,,,,,,,,,,,,,,,,HE,1,22,male,undergrad,2020_Mar_05_1428,AdjustEyeTrack,3.1.5,60.6067203
51,Stimuli/Morph51.JPG,Stimuli/Morph51.png,Stimuli/BlurLevel5/BlurEditedMorph51,Stimuli/BlurLevel5/BlurEditedMorph51.png,Stimuli/BlurLevel5/NumberedMorphs/BlurEditedMorph51.png,Stimuli/BlurLevel5/OriginalBlur/BlurEditedMorph51.png,Stimuli/BlurMorphTrio/EditedMorph51.png,010146right.gif,Stimuli/normal_thumbnails/51right.gif,0,5,5,50,,,,,,,,,,,,,,,,,,,,,,,,,,,,,,,62,-100,-100,276,0.261321158,-2.486304738,51,training,247.0703365,247.7525698,247.0703365,247.7525698,98.63945578,1583447511,1583447514,3.116604805,36,50,1,1,1583447508,1583447511,space,2.712470659,,,,,,,,,,,,,,,,,,,,,,,HE,1,22,male,undergrad,2020_Mar_05_1428,AdjustEyeTrack,3.1.5,60.6067203
26,Stimuli/Morph26.JPG,Stimuli/Morph26.png,Stimuli/BlurLevel5/BlurEditedMorph26,Stimuli/BlurLevel5/BlurEditedMorph26.png,Stimuli/BlurLevel5/NumberedMorphs/BlurEditedMorph26.png,Stimuli/BlurLevel5/OriginalBlur/BlurEditedMorph26.png,Stimuli/BlurMorphTrio/EditedMorph26.png,010070right.gif,Stimuli/normal_thumbnails/26right.gif,0,6,6,25,,,,,,,,,,,,,,,,,,,,,,,,,,,,,,,37,-100,-100,191,-2.454067959,-0.477022488,26,training,256.1595865,256.837589,256.1595865,256.837589,4.761904762,1583447520,1583447525,5.384230137,62,96,-70,-70,1583447517,1583447520,space,2.647491429,,,,,,,,,,,,,,,,,,,,,,,HE,1,22,male,undergrad,2020_Mar_05_1428,AdjustEyeTrack,3.1.5,60.6067203
44,Stimuli/Morph44.JPG,Stimuli/Morph44.png,Stimuli/BlurLevel5/BlurEditedMorph44,Stimuli/BlurLevel5/BlurEditedMorph44.png,Stimuli/BlurLevel5/NumberedMorphs/BlurEditedMorph44.png,Stimuli/BlurLevel5/OriginalBlur/BlurEditedMorph44.png,Stimuli/BlurMorphTrio/EditedMorph44.png,010126right.gif,Stimuli/normal_thumbnails/44right.gif,0,7,7,43,,,,,,,,,,,,,,,,,,,,,,,,,,,,,,,39,-100,-100,153,-2.22751631,1.134976249,44,training,267.4587172,268.1373162,267.4587172,268.1373162,85.03401361,1583447531,1583447534,2.329272032,110,55,-11,-11,1583447529,1583447531,space,2.552779816,,,,,,,,,,,,,,,,,,,,,,,HE,1,22,male,undergrad,2020_Mar_05_1428,AdjustEyeTrack,3.1.5,60.6067203
83,Stimuli/Morph83.JPG,Stimuli/Morph83.png,Stimuli/BlurLevel5/BlurEditedMorph83,Stimuli/BlurLevel5/BlurEditedMorph83.png,Stimuli/BlurLevel5/NumberedMorphs/BlurEditedMorph83.png,Stimuli/BlurLevel5/OriginalBlur/BlurEditedMorph83.png,Stimuli/BlurMorphTrio/EditedMorph83.png,020259right.gif,Stimuli/normal_thumbnails/83right.gif,0,8,8,82,,,,,,,,,,,,,,,,,,,,,,,,,,,,,,,38,-100,-100,44,1.798349501,1.736645926,83,training,275.5826885,276.2670767,275.5826885,276.2670767,98.63945578,1583447540,1583447542,2.833545923,128,84,-1,-1,1583447537,1583447540,space,5.847238807,,,,,,,,,,,,,,,,,,,,,,,HE,1,22,male,undergrad,2020_Mar_05_1428,AdjustEyeTrack,3.1.5,60.6067203
140,Stimuli/Morph140.JPG,Stimuli/Morph140.png,Stimuli/BlurLevel5/BlurEditedMorph140,Stimuli/BlurLevel5/BlurEditedMorph140.png,Stimuli/BlurLevel5/NumberedMorphs/BlurEditedMorph140.png,Stimuli/BlurLevel5/OriginalBlur/BlurEditedMorph140.png,Stimuli/BlurMorphTrio/EditedMorph140.png,None,None,0,9,9,139,,,,,,,,,,,,,,,,,,,,,,,,,,,,,,,18,-100,-100,192,-2.445369002,-0.519779227,140,training,287.2480196,287.8958017,287.2480196,287.8958017,22.44897959,1583447551,1583447555,4.134366989,34,83,57,57,1583447549,1583447551,space,1.916439744,,,,,,,,,,,,,,,,,,,,,,,HE,1,22,male,undergrad,2020_Mar_05_1428,AdjustEyeTrack,3.1.5,60.6067203
,,,,,,,,,,,,,,,,,,,,,,,,,,,,,,,,,,,,,,,,,,,,,-100,-100,,,,,training,,,,,,,,,,,,,,,,,296.1987541,None,296.1987541,None,296.1987541,None,space,51.65442888,296.1987541,None,,,,,,,,,,,,,HE,1,22,male,undergrad,2020_Mar_05_1428,AdjustEyeTrack,3.1.5,60.6067203
11,Stimuli/Morph11.JPG,Stimuli/Morph11.png,Stimuli/BlurLevel5/BlurEditedMorph11,Stimuli/BlurLevel5/BlurEditedMorph11.png,Stimuli/BlurLevel5/NumberedMorphs/BlurEditedMorph11.png,Stimuli/BlurLevel5/OriginalBlur/BlurEditedMorph11.png,Stimuli/BlurMorphTrio/EditedMorph11.png,010024right.gif,Stimuli/normal_thumbnails/11right.gif,,,,,0,0,0,0,0,0,0,10,,,,,,,,,,,,,,,,,,,,,,,68,1,1,20,2.349231552,0.855050358,11,Experiment,,,,,,,,,58,35,-24,-24,,,,,,,,,,,,,,,349.0955966,349.7787714,349.0955966,349.7787714,67.34693878,1583447613,1583447617,4.352981091,1583447610,1583447613,,,HE,1,22,male,undergrad,2020_Mar_05_1428,AdjustEyeTrack,3.1.5,60.6067203
7,Stimuli/Morph7.JPG,Stimuli/Morph7.png,Stimuli/BlurLevel5/BlurEditedMorph7,Stimuli/BlurLevel5/BlurEditedMorph7.png,Stimuli/BlurLevel5/NumberedMorphs/BlurEditedMorph7.png,Stimuli/BlurLevel5/OriginalBlur/BlurEditedMorph7.png,Stimuli/BlurMorphTrio/EditedMorph7.png,010013right.gif,Stimuli/normal_thumbnails/7right.gif,,,,,0,0,0,0,0,1,1,6,,,,,,,,,,,,,,,,,,,,,,,11,2,1,282,0.519779227,-2.445369002,7,Experiment,,,,,,,,,109,5,2,2,,,,,,,,,,,,,,,357.0317145,357.7287024,357.0317145,357.7287024,97.27891156,1583447621,1583447623,2.301038265,1583447618,1583447621,,,HE,1,22,male,undergrad,2020_Mar_05_1428,AdjustEyeTrack,3.1.5,60.6067203
16,Stimuli/Morph16.JPG,Stimuli/Morph16.png,Stimuli/BlurLevel5/BlurEditedMorph16,Stimuli/BlurLevel5/BlurEditedMorph16.png,Stimuli/BlurLevel5/NumberedMorphs/BlurEditedMorph16.png,Stimuli/BlurLevel5/OriginalBlur/BlurEditedMorph16.png,Stimuli/BlurMorphTrio/EditedMorph16.png,010034right.gif,Stimuli/normal_thumbnails/16right.gif,,,,,0,0,0,0,0,2,2,15,,,,,,,,,,,,,,,,,,,,,,,94,3,1,107,-0.730929262,2.39076189,16,Experiment,,,,,,,,,125,10,6,6,,,,,,,,,,,,,,,362.9527912,363.6551847,362.9527912,363.6551847,91.83673469,1583447627,1583447629,2.316076994,1583447624,1583447627,,,HE,1,22,male,undergrad,2020_Mar_05_1428,AdjustEyeTrack,3.1.5,60.6067203
15,Stimuli/Morph15.JPG,Stimuli/Morph15.png,Stimuli/BlurLevel5/BlurEditedMorph15,Stimuli/BlurLevel5/BlurEditedMorph15.png,Stimuli/BlurLevel5/NumberedMorphs/BlurEditedMorph15.png,Stimuli/BlurLevel5/OriginalBlur/BlurEditedMorph15.png,Stimuli/BlurMorphTrio/EditedMorph15.png,010031right.gif,Stimuli/normal_thumbnails/15right.gif,,,,,0,0,0,0,0,3,3,14,,,,,,,,,,,,,,,,,,,,,,,55,4,1,30,2.165063509,1.25,15,Experiment,,,,,,,,,4,9,6,6,,,,,,,,,,,,,,,368.4619016,369.1278352,368.4619016,369.1278352,91.83673469,1583447632,1583447634,1.701611996,1583447630,1583447632,,,HE,1,22,male,undergrad,2020_Mar_05_1428,AdjustEyeTrack,3.1.5,60.6067203
103,Stimuli/Morph103.JPG,Stimuli/Morph103.png,Stimuli/BlurLevel5/BlurEditedMorph103,Stimuli/BlurLevel5/BlurEditedMorph103.png,Stimuli/BlurLevel5/NumberedMorphs/BlurEditedMorph103.png,Stimuli/BlurLevel5/OriginalBlur/BlurEditedMorph103.png,Stimuli/BlurMorphTrio/EditedMorph103.png,None,None,,,,,0,0,0,0,0,4,4,102,,,,,,,,,,,,,,,,,,,,,,,62,5,1,218,-1.970026884,-1.539153688,103,Experiment,,,,,,,,,107,98,5,5,,,,,,,,,,,,,,,373.465057,374.1311248,373.465057,374.1311248,93.19727891,1583447637,1583447643,5.435902834,1583447635,1583447637,,,HE,1,22,male,undergrad,2020_Mar_05_1428,AdjustEyeTrack,3.1.5,60.6067203
23,Stimuli/Morph23.JPG,Stimuli/Morph23.png,Stimuli/BlurLevel5/BlurEditedMorph23,Stimuli/BlurLevel5/BlurEditedMorph23.png,Stimuli/BlurLevel5/NumberedMorphs/BlurEditedMorph23.png,Stimuli/BlurLevel5/OriginalBlur/BlurEditedMorph23.png,Stimuli/BlurMorphTrio/EditedMorph23.png,010063right.gif,Stimuli/normal_thumbnails/23right.gif,,,,,0,0,0,0,0,5,5,22,,,,,,,,,,,,,,,,,,,,,,,33,6,1,135,-1.767766953,1.767766953,23,Experiment,,,,,,,,,42,22,1,1,,,,,,,,,,,,,,,382.070948,382.7437101,382.070948,382.7437101,98.63945578,1583447646,1583447651,4.650954008,1583447643,1583447646,,,HE,1,22,male,undergrad,2020_Mar_05_1428,AdjustEyeTrack,3.1.5,60.6067203
102,Stimuli/Morph102.JPG,Stimuli/Morph102.png,Stimuli/BlurLevel5/BlurEditedMorph102,Stimuli/BlurLevel5/BlurEditedMorph102.png,Stimuli/BlurLevel5/NumberedMorphs/BlurEditedMorph102.png,Stimuli/BlurLevel5/OriginalBlur/BlurEditedMorph102.png,Stimuli/BlurMorphTrio/EditedMorph102.png,None,None,,,,,0,0,0,0,0,6,6,101,,,,,,,,,,,,,,,,,,,,,,,33,7,1,286,0.68909339,-2.40315424,102,Experiment,,,,,,,,,25,109,-7,-7,,,,,,,,,,,,,,,389.7187943,390.3939257,389.7187943,390.3939257,90.47619048,1583447654,1583447656,2.553016186,1583447651,1583447654,,,HE,1,22,male,undergrad,2020_Mar_05_1428,AdjustEyeTrack,3.1.5,60.6067203
56,Stimuli/Morph56.JPG,Stimuli/Morph56.png,Stimuli/BlurLevel5/BlurEditedMorph56,Stimuli/BlurLevel5/BlurEditedMorph56.png,Stimuli/BlurLevel5/NumberedMorphs/BlurEditedMorph56.png,Stimuli/BlurLevel5/OriginalBlur/BlurEditedMorph56.png,Stimuli/BlurMorphTrio/EditedMorph56.png,010157right.gif,Stimuli/normal_thumbnails/56right.gif,,,,,0,0,0,0,0,7,7,55,,,,,,,,,,,,,,,,,,,,,,,21,8,1,218,-1.970026884,-1.539153688,56,Experiment,,,,,,,,,14,40,16,16,,,,,,,,,,,,,,,395.3948257,396.054339,395.3948257,396.054339,78.23129252,1583447659,1583447661,1.970319033,1583447657,1583447659,,,HE,1,22,male,undergrad,2020_Mar_05_1428,AdjustEyeTrack,3.1.5,60.6067203
107,Stimuli/Morph107.JPG,Stimuli/Morph107.png,Stimuli/BlurLevel5/BlurEditedMorph107,Stimuli/BlurLevel5/BlurEditedMorph107.png,Stimuli/BlurLevel5/NumberedMorphs/BlurEditedMorph107.png,Stimuli/BlurLevel5/OriginalBlur/BlurEditedMorph107.png,Stimuli/BlurMorphTrio/EditedMorph107.png,None,None,,,,,0,0,0,0,0,8,8,106,,,,,,,,,,,,,,,,,,,,,,,51,9,1,69,0.895919874,2.333951066,107,Experiment,,,,,,,,,9,99,8,8,,,,,,,,,,,,,,,400.7122134,401.397208,400.7122134,401.397208,89.11564626,1583447665,1583447667,2.797664881,1583447662,1583447665,,,HE,1,22,male,undergrad,2020_Mar_05_1428,AdjustEyeTrack,3.1.5,60.6067203
18,Stimuli/Morph18.JPG,Stimuli/Morph18.png,Stimuli/BlurLevel5/BlurEditedMorph18,Stimuli/BlurLevel5/BlurEditedMorph18.png,Stimuli/BlurLevel5/NumberedMorphs/BlurEditedMorph18.png,Stimuli/BlurLevel5/OriginalBlur/BlurEditedMorph18.png,Stimuli/BlurMorphTrio/EditedMorph18.png,010039right.gif,Stimuli/normal_thumbnails/18right.gif,,,,,0,0,0,0,0,9,9,17,,,,,,,,,,,,,,,,,,,,,,,91,10,1,176,-2.493910126,0.174391184,18,Experiment,,,,,,,,,133,131,-113,34,,,,,,,,,,,,,,,406.8122398,407.4884659,406.8122398,407.4884659,53.7414966,1583447671,1583447676,4.786664009,1583447668,1583447671,,,HE,1,22,male,undergrad,2020_Mar_05_1428,AdjustEyeTrack,3.1.5,60.6067203
74,Stimuli/Morph74.JPG,Stimuli/Morph74.png,Stimuli/BlurLevel5/BlurEditedMorph74,Stimuli/BlurLevel5/BlurEditedMorph74.png,Stimuli/BlurLevel5/NumberedMorphs/BlurEditedMorph74.png,Stimuli/BlurLevel5/OriginalBlur/BlurEditedMorph74.png,Stimuli/BlurMorphTrio/EditedMorph74.png,020232right.gif,Stimuli/normal_thumbnails/74right.gif,,,,,0,0,0,0,0,10,10,73,,,,,,,,,,,,,,,,,,,,,,,37,11,1,135,-1.767766953,1.767766953,74,Experiment,,,,,,,,,84,90,-16,-16,,,,,,,,,,,,,,,414.8131029,415.4953499,414.8131029,415.4953499,78.23129252,1583447679,1583447680,0.917917013,1583447676,1583447679,,,HE,1,22,male,undergrad,2020_Mar_05_1428,AdjustEyeTrack,3.1.5,60.6067203
120,Stimuli/Morph120.JPG,Stimuli/Morph120.png,Stimuli/BlurLevel5/BlurEditedMorph120,Stimuli/BlurLevel5/BlurEditedMorph120.png,Stimuli/BlurLevel5/NumberedMorphs/BlurEditedMorph120.png,Stimuli/BlurLevel5/OriginalBlur/BlurEditedMorph120.png,Stimuli/BlurMorphTrio/EditedMorph120.png,None,None,,,,,0,0,0,0,0,11,11,119,,,,,,,,,,,,,,,,,,,,,,,63,12,1,222,-1.857862064,-1.672826516,120,Experiment,,,,,,,,,33,117,3,3,,,,,,,,,,,,,,,419.0549977,419.7306325,419.0549977,419.7306325,95.91836735,1583447683,1583447686,3.27105999,1583447680,1583447683,,,HE,1,22,male,undergrad,2020_Mar_05_1428,AdjustEyeTrack,3.1.5,60.6067203
52,Stimuli/Morph52.JPG,Stimuli/Morph52.png,Stimuli/BlurLevel5/BlurEditedMorph52,Stimuli/BlurLevel5/BlurEditedMorph52.png,Stimuli/BlurLevel5/NumberedMorphs/BlurEditedMorph52.png,Stimuli/BlurLevel5/OriginalBlur/BlurEditedMorph52.png,Stimuli/BlurMorphTrio/EditedMorph52.png,010148right.gif,Stimuli/normal_thumbnails/52right.gif,,,,,0,0,0,0,0,12,12,51,,,,,,,,,,,,,,,,,,,,,,,6,13,1,93,-0.130839891,2.496573837,52,Experiment,,,,,,,,,37,43,9,9,,,,,,,,,,,,,,,425.8637363,426.5642053,425.8637363,426.5642053,87.75510204,1583447690,1583447692,2.281294823,1583447687,1583447690,,,HE,1,22,male,undergrad,2020_Mar_05_1428,AdjustEyeTrack,3.1.5,60.6067203
137,Stimuli/Morph137.JPG,Stimuli/Morph137.png,Stimuli/BlurLevel5/BlurEditedMorph137,Stimuli/BlurLevel5/BlurEditedMorph137.png,Stimuli/BlurLevel5/NumberedMorphs/BlurEditedMorph137.png,Stimuli/BlurLevel5/OriginalBlur/BlurEditedMorph137.png,Stimuli/BlurMorphTrio/EditedMorph137.png,None,None,,,,,0,0,0,0,0,13,13,136,,,,,,,,,,,,,,,,,,,,,,,99,14,1,106,-0.68909339,2.40315424,137,Experiment,,,,,,,,,25,128,9,9,,,,,,,,,,,,,,,431.2612664,431.9267112,431.2612664,431.9267112,87.75510204,1583447695,1583447698,2.587383032,1583447693,1583447695,,,HE,1,22,male,undergrad,2020_Mar_05_1428,AdjustEyeTrack,3.1.5,60.6067203
55,Stimuli/Morph55.JPG,Stimuli/Morph55.png,Stimuli/BlurLevel5/BlurEditedMorph55,Stimuli/BlurLevel5/BlurEditedMorph55.png,Stimuli/BlurLevel5/NumberedMorphs/BlurEditedMorph55.png,Stimuli/BlurLevel5/OriginalBlur/BlurEditedMorph55.png,Stimuli/BlurMorphTrio/EditedMorph55.png,010151right.gif,Stimuli/normal_thumbnails/55right.gif,,,,,0,0,0,0,0,14,14,54,,,,,,,,,,,,,,,,,,,,,,,78,15,1,76,0.604804739,2.425739316,55,Experiment,,,,,,,,,109,42,13,13,,,,,,,,,,,,,,,436.8793402,437.554238,436.8793402,437.554238,82.31292517,1583447701,1583447703,2.248811007,1583447698,1583447701,,,HE,1,22,male,undergrad,2020_Mar_05_1428,AdjustEyeTrack,3.1.5,60.6067203
26,Stimuli/Morph26.JPG,Stimuli/Morph26.png,Stimuli/BlurLevel5/BlurEditedMorph26,Stimuli/BlurLevel5/BlurEditedMorph26.png,Stimuli/BlurLevel5/NumberedMorphs/BlurEditedMorph26.png,Stimuli/BlurLevel5/OriginalBlur/BlurEditedMorph26.png,Stimuli/BlurMorphTrio/EditedMorph26.png,010070right.gif,Stimuli/normal_thumbnails/26right.gif,,,,,0,0,0,0,0,15,15,25,,,,,,,,,,,,,,,,,,,,,,,82,16,1,6,2.486304738,0.261321158,26,Experiment,,,,,,,,,4,41,-15,-15,,,,,,,,,,,,,,,442.3505449,443.0466989,442.3505449,443.0466989,79.59183673,1583447706,1583447708,1.762485027,1583447704,1583447706,,,HE,1,22,male,undergrad,2020_Mar_05_1428,AdjustEyeTrack,3.1.5,60.6067203
1,Stimuli/Morph1.JPG,Stimuli/Morph1.png,Stimuli/BlurLevel5/BlurEditedMorph1,Stimuli/BlurLevel5/BlurEditedMorph1.png,Stimuli/BlurLevel5/NumberedMorphs/BlurEditedMorph1.png,Stimuli/BlurLevel5/OriginalBlur/BlurEditedMorph1.png,Stimuli/BlurMorphTrio/EditedMorph1.png,010003right.gif,Stimuli/normal_thumbnails/1right.gif,,,,,0,0,0,0,0,16,16,0,,,,,,,,,,,,,,,,,,,,,,,46,17,1,110,-0.855050358,2.349231552,1,Experiment,,,,,,,,,53,141,-140,7,,,,,,,,,,,,,,,447.2195008,447.8866149,447.2195008,447.8866149,90.47619048,1583447711,1583447714,2.866868019,1583447709,1583447711,,,HE,1,22,male,undergrad,2020_Mar_05_1428,AdjustEyeTrack,3.1.5,60.6067203
104,Stimuli/Morph104.JPG,Stimuli/Morph104.png,Stimuli/BlurLevel5/BlurEditedMorph104,Stimuli/BlurLevel5/BlurEditedMorph104.png,Stimuli/BlurLevel5/NumberedMorphs/BlurEditedMorph104.png,Stimuli/BlurLevel5/OriginalBlur/BlurEditedMorph104.png,Stimuli/BlurMorphTrio/EditedMorph104.png,None,None,,,,,0,0,0,0,0,17,17,103,,,,,,,,,,,,,,,,,,,,,,,23,18,1,221,-1.886773951,-1.640147572,104,Experiment,,,,,,,,,68,75,29,29,,,,,,,,,,,,,,,453.2776477,453.9495335,453.2776477,453.9495335,60.54421769,1583447717,1583447720,2.584929943,1583447715,1583447717,,,HE,1,22,male,undergrad,2020_Mar_05_1428,AdjustEyeTrack,3.1.5,60.6067203
75,Stimuli/Morph75.JPG,Stimuli/Morph75.png,Stimuli/BlurLevel5/BlurEditedMorph75,Stimuli/BlurLevel5/BlurEditedMorph75.png,Stimuli/BlurLevel5/NumberedMorphs/BlurEditedMorph75.png,Stimuli/BlurLevel5/OriginalBlur/BlurEditedMorph75.png,Stimuli/BlurMorphTrio/EditedMorph75.png,020233right.gif,Stimuli/normal_thumbnails/75right.gif,,,,,0,0,0,0,0,18,18,74,,,,,,,,,,,,,,,,,,,,,,,31,19,1,292,0.936516484,-2.317959636,75,Experiment,,,,,,,,,61,23,52,52,,,,,,,,,,,,,,,459.1477029,459.8283059,459.1477029,459.8283059,29.25170068,1583447723,1583447725,1.819329977,1583447720,1583447723,,,HE,1,22,male,undergrad,2020_Mar_05_1428,AdjustEyeTrack,3.1.5,60.6067203
44,Stimuli/Morph44.JPG,Stimuli/Morph44.png,Stimuli/BlurLevel5/BlurEditedMorph44,Stimuli/BlurLevel5/BlurEditedMorph44.png,Stimuli/BlurLevel5/NumberedMorphs/BlurEditedMorph44.png,Stimuli/BlurLevel5/OriginalBlur/BlurEditedMorph44.png,Stimuli/BlurMorphTrio/EditedMorph44.png,010126right.gif,Stimuli/normal_thumbnails/44right.gif,,,,,0,0,0,0,0,19,19,43,,,,,,,,,,,,,,,,,,,,,,,13,20,1,204,-2.283863644,-1.016841608,44,Experiment,,,,,,,,,38,45,-1,-1,,,,,,,,,,,,,,,464.410426,465.0922718,464.410426,465.0922718,98.63945578,1583447728,1583447730,1.616361856,1583447725,1583447728,,,HE,1,22,male,undergrad,2020_Mar_05_1428,AdjustEyeTrack,3.1.5,60.6067203
122,Stimuli/Morph122.JPG,Stimuli/Morph122.png,Stimuli/BlurLevel5/BlurEditedMorph122,Stimuli/BlurLevel5/BlurEditedMorph122.png,Stimuli/BlurLevel5/NumberedMorphs/BlurEditedMorph122.png,Stimuli/BlurLevel5/OriginalBlur/BlurEditedMorph122.png,Stimuli/BlurMorphTrio/EditedMorph122.png,None,None,,,,,0,0,0,0,0,20,20,121,,,,,,,,,,,,,,,,,,,,,,,28,21,1,245,-1.056545654,-2.265769468,122,Experiment,,,,,,,,,57,111,11,11,,,,,,,,,,,,,,,469.4100015,470.0921916,469.4100015,470.0921916,85.03401361,1583447733,1583447735,1.61364603,1583447731,1583447733,,,HE,1,22,male,undergrad,2020_Mar_05_1428,AdjustEyeTrack,3.1.5,60.6067203
24,Stimuli/Morph24.JPG,Stimuli/Morph24.png,Stimuli/BlurLevel5/BlurEditedMorph24,Stimuli/BlurLevel5/BlurEditedMorph24.png,Stimuli/BlurLevel5/NumberedMorphs/BlurEditedMorph24.png,Stimuli/BlurLevel5/OriginalBlur/BlurEditedMorph24.png,Stimuli/BlurMorphTrio/EditedMorph24.png,010068right.gif,Stimuli/normal_thumbnails/24right.gif,,,,,0,0,0,0,0,21,21,23,,,,,,,,,,,,,,,,,,,,,,,39,22,1,237,-1.361597588,-2.09667642,24,Experiment,,,,,,,,,139,21,3,3,,,,,,,,,,,,,,,474.3148254,475.0090089,474.3148254,475.0090089,95.91836735,1583447738,1583447740,1.996358871,1583447735,1583447738,,,HE,1,22,male,undergrad,2020_Mar_05_1428,AdjustEyeTrack,3.1.5,60.6067203
147,Stimuli/Morph147.JPG,Stimuli/Morph147.png,Stimuli/BlurLevel5/BlurEditedMorph147,Stimuli/BlurLevel5/BlurEditedMorph147.png,Stimuli/BlurLevel5/NumberedMorphs/BlurEditedMorph147.png,Stimuli/BlurLevel5/OriginalBlur/BlurEditedMorph147.png,Stimuli/BlurMorphTrio/EditedMorph147.png,None,None,,,,,0,0,0,0,0,22,22,146,,,,,,,,,,,,,,,,,,,,,,,30,23,1,119,-1.212024051,2.186549268,147,Experiment,,,,,,,,,145,4,143,-4,,,,,,,,,,,,,,,479.6020514,480.2753779,479.6020514,480.2753779,94.55782313,1583447744,1583447747,2.989457846,1583447741,1583447744,,,HE,1,22,male,undergrad,2020_Mar_05_1428,AdjustEyeTrack,3.1.5,60.6067203
28,Stimuli/Morph28.JPG,Stimuli/Morph28.png,Stimuli/BlurLevel5/BlurEditedMorph28,Stimuli/BlurLevel5/BlurEditedMorph28.png,Stimuli/BlurLevel5/NumberedMorphs/BlurEditedMorph28.png,Stimuli/BlurLevel5/OriginalBlur/BlurEditedMorph28.png,Stimuli/BlurMorphTrio/EditedMorph28.png,010073right.gif,Stimuli/normal_thumbnails/28right.gif,,,,,0,0,0,0,0,23,23,27,,,,,,,,,,,,,,,,,,,,,,,1,24,1,324,2.022542486,-1.469463131,28,Experiment,,,,,,,,,101,18,10,10,,,,,,,,,,,,,,,485.2533293,485.8800966,485.2533293,485.8800966,86.39455782,1583447749,1583447752,2.671209097,1583447747,1583447749,,,HE,1,22,male,undergrad,2020_Mar_05_1428,AdjustEyeTrack,3.1.5,60.6067203
117,Stimuli/Morph117.JPG,Stimuli/Morph117.png,Stimuli/BlurLevel5/BlurEditedMorph117,Stimuli/BlurLevel5/BlurEditedMorph117.png,Stimuli/BlurLevel5/NumberedMorphs/BlurEditedMorph117.png,Stimuli/BlurLevel5/OriginalBlur/BlurEditedMorph117.png,Stimuli/BlurMorphTrio/EditedMorph117.png,None,None,,,,,0,0,0,0,0,24,24,116,,,,,,,,,,,,,,,,,,,,,,,58,25,1,316,1.798349501,-1.736645926,117,Experiment,,,,,,,,,92,96,21,21,,,,,,,,,,,,,,,490.9644759,491.6464828,490.9644759,491.6464828,71.42857143,1583447755,1583447756,1.297047853,1583447752,1583447755,,,HE,1,22,male,undergrad,2020_Mar_05_1428,AdjustEyeTrack,3.1.5,60.6067203
40,Stimuli/Morph40.JPG,Stimuli/Morph40.png,Stimuli/BlurLevel5/BlurEditedMorph40,Stimuli/BlurLevel5/BlurEditedMorph40.png,Stimuli/BlurLevel5/NumberedMorphs/BlurEditedMorph40.png,Stimuli/BlurLevel5/OriginalBlur/BlurEditedMorph40.png,Stimuli/BlurMorphTrio/EditedMorph40.png,010110right.gif,Stimuli/normal_thumbnails/40right.gif,,,,,0,0,0,0,0,25,25,39,,,,,,,,,,,,,,,,,,,,,,,70,26,1,41,1.886773951,1.640147572,40,Experiment,,,,,,,,,131,131,-91,56,,,,,,,,,,,,,,,495.3778848,496.0616554,495.3778848,496.0616554,23.80952381,1583447759,1583447760,0.683378935,1583447757,1583447759,,,HE,1,22,male,undergrad,2020_Mar_05_1428,AdjustEyeTrack,3.1.5,60.6067203
82,Stimuli/Morph82.JPG,Stimuli/Morph82.png,Stimuli/BlurLevel5/BlurEditedMorph82,Stimuli/BlurLevel5/BlurEditedMorph82.png,Stimuli/BlurLevel5/NumberedMorphs/BlurEditedMorph82.png,Stimuli/BlurLevel5/OriginalBlur/BlurEditedMorph82.png,Stimuli/BlurMorphTrio/EditedMorph82.png,020247right.gif,Stimuli/normal_thumbnails/82right.gif,,,,,0,0,0,0,0,26,26,81,,,,,,,,,,,,,,,,,,,,,,,81,27,1,187,-2.481365379,-0.304673359,82,Experiment,,,,,,,,,31,103,-21,-21,,,,,,,,,,,,,,,499.1527371,499.8287301,499.1527371,499.8287301,71.42857143,1583447763,1583447766,3.265384912,1583447761,1583447763,,,HE,1,22,male,undergrad,2020_Mar_05_1428,AdjustEyeTrack,3.1.5,60.6067203
5,Stimuli/Morph5.JPG,Stimuli/Morph5.png,Stimuli/BlurLevel5/BlurEditedMorph5,Stimuli/BlurLevel5/BlurEditedMorph5.png,Stimuli/BlurLevel5/NumberedMorphs/BlurEditedMorph5.png,Stimuli/BlurLevel5/OriginalBlur/BlurEditedMorph5.png,Stimuli/BlurMorphTrio/EditedMorph5.png,010011right.gif,Stimuli/normal_thumbnails/5right.gif,,,,,0,0,0,0,0,27,27,4,,,,,,,,,,,,,,,,,,,,,,,63,28,1,251,-0.813920386,-2.363796439,5,Experiment,,,,,,,,,94,6,-1,-1,,,,,,,,,,,,,,,505.5794109,506.2761164,505.5794109,506.2761164,98.63945578,1583447770,1583447773,3.565374851,1583447767,1583447770,,,HE,1,22,male,undergrad,2020_Mar_05_1428,AdjustEyeTrack,3.1.5,60.6067203
72,Stimuli/Morph72.JPG,Stimuli/Morph72.png,Stimuli/BlurLevel5/BlurEditedMorph72,Stimuli/BlurLevel5/BlurEditedMorph72.png,Stimuli/BlurLevel5/NumberedMorphs/BlurEditedMorph72.png,Stimuli/BlurLevel5/OriginalBlur/BlurEditedMorph72.png,Stimuli/BlurMorphTrio/EditedMorph72.png,020227right.gif,Stimuli/normal_thumbnails/72right.gif,,,,,0,0,0,0,0,28,28,71,,,,,,,,,,,,,,,,,,,,,,,74,29,1,198,-2.377641291,-0.772542486,72,Experiment,,,,,,,,,79,84,-12,-12,,,,,,,,,,,,,,,512.4289989,513.1123919,512.4289989,513.1123919,83.67346939,1583447776,1583447777,0.949342012,1583447774,1583447776,,,HE,1,22,male,undergrad,2020_Mar_05_1428,AdjustEyeTrack,3.1.5,60.6067203
143,Stimuli/Morph143.JPG,Stimuli/Morph143.png,Stimuli/BlurLevel5/BlurEditedMorph143,Stimuli/BlurLevel5/BlurEditedMorph143.png,Stimuli/BlurLevel5/NumberedMorphs/BlurEditedMorph143.png,Stimuli/BlurLevel5/OriginalBlur/BlurEditedMorph143.png,Stimuli/BlurMorphTrio/EditedMorph143.png,None,None,,,,,0,0,0,0,0,29,29,142,,,,,,,,,,,,,,,,,,,,,,,52,30,1,338,2.317959636,-0.936516484,143,Experiment,,,,,,,,,23,142,1,1,,,,,,,,,,,,,,,516.6043147,517.302226,516.6043147,517.302226,98.63945578,1583447781,1583447783,2.83227706,1583447778,1583447781,,,HE,1,22,male,undergrad,2020_Mar_05_1428,AdjustEyeTrack,3.1.5,60.6067203
46,Stimuli/Morph46.JPG,Stimuli/Morph46.png,Stimuli/BlurLevel5/BlurEditedMorph46,Stimuli/BlurLevel5/BlurEditedMorph46.png,Stimuli/BlurLevel5/NumberedMorphs/BlurEditedMorph46.png,Stimuli/BlurLevel5/OriginalBlur/BlurEditedMorph46.png,Stimuli/BlurMorphTrio/EditedMorph46.png,010128right.gif,Stimuli/normal_thumbnails/46right.gif,,,,,0,0,0,0,0,30,30,45,,,,,,,,,,,,,,,,,,,,,,,11,31,1,162,-2.377641291,0.772542486,46,Experiment,,,,,,,,,11,56,-10,-10,,,,,,,,,,,,,,,523.045898,523.7585871,523.045898,523.7585871,86.39455782,1583447787,1583447792,5.299543142,1583447784,1583447787,,,HE,1,22,male,undergrad,2020_Mar_05_1428,AdjustEyeTrack,3.1.5,60.6067203
123,Stimuli/Morph123.JPG,Stimuli/Morph123.png,Stimuli/BlurLevel5/BlurEditedMorph123,Stimuli/BlurLevel5/BlurEditedMorph123.png,Stimuli/BlurLevel5/NumberedMorphs/BlurEditedMorph123.png,Stimuli/BlurLevel5/OriginalBlur/BlurEditedMorph123.png,Stimuli/BlurMorphTrio/EditedMorph123.png,None,None,,,,,0,0,0,0,0,31,31,122,,,,,,,,,,,,,,,,,,,,,,,40,32,1,30,2.165063509,1.25,123,Experiment,,,,,,,,,130,130,-7,-7,,,,,,,,,,,,,,,531.709474,532.4023216,531.709474,532.4023216,90.47619048,1583447796,1583447796,0.611857176,1583447793,1583447796,,,HE,1,22,male,undergrad,2020_Mar_05_1428,AdjustEyeTrack,3.1.5,60.6067203
39,Stimuli/Morph39.JPG,Stimuli/Morph39.png,Stimuli/BlurLevel5/BlurEditedMorph39,Stimuli/BlurLevel5/BlurEditedMorph39.png,Stimuli/BlurLevel5/NumberedMorphs/BlurEditedMorph39.png,Stimuli/BlurLevel5/OriginalBlur/BlurEditedMorph39.png,Stimuli/BlurMorphTrio/EditedMorph39.png,010109right.gif,Stimuli/normal_thumbnails/39right.gif,,,,,0,0,0,0,0,32,32,38,,,,,,,,,,,,,,,,,,,,,,,83,33,1,65,1.056545654,2.265769468,39,Experiment,,,,,,,,,4,25,14,14,,,,,,,,,,,,,,,535.709046,536.4052667,535.709046,536.4052667,80.95238095,1583447800,1583447804,3.982766867,1583447797,1583447800,,,HE,1,22,male,undergrad,2020_Mar_05_1428,AdjustEyeTrack,3.1.5,60.6067203
141,Stimuli/Morph141.JPG,Stimuli/Morph141.png,Stimuli/BlurLevel5/BlurEditedMorph141,Stimuli/BlurLevel5/BlurEditedMorph141.png,Stimuli/BlurLevel5/NumberedMorphs/BlurEditedMorph141.png,Stimuli/BlurLevel5/OriginalBlur/BlurEditedMorph141.png,Stimuli/BlurMorphTrio/EditedMorph141.png,None,None,,,,,0,0,0,0,0,33,33,140,,,,,,,,,,,,,,,,,,,,,,,37,34,1,78,0.519779227,2.445369002,141,Experiment,,,,,,,,,63,144,-3,-3,,,,,,,,,,,,,,,542.960741,543.6579954,542.960741,543.6579954,95.91836735,1583447807,1583447812,5.516905069,1583447804,1583447807,,,HE,1,22,male,undergrad,2020_Mar_05_1428,AdjustEyeTrack,3.1.5,60.6067203
12,Stimuli/Morph12.JPG,Stimuli/Morph12.png,Stimuli/BlurLevel5/BlurEditedMorph12,Stimuli/BlurLevel5/BlurEditedMorph12.png,Stimuli/BlurLevel5/NumberedMorphs/BlurEditedMorph12.png,Stimuli/BlurLevel5/OriginalBlur/BlurEditedMorph12.png,Stimuli/BlurMorphTrio/EditedMorph12.png,010026right.gif,Stimuli/normal_thumbnails/12right.gif,,,,,0,0,0,0,0,34,34,11,,,,,,,,,,,,,,,,,,,,,,,98,35,1,139,-1.886773951,1.640147572,12,Experiment,,,,,,,,,58,139,-127,20,,,,,,,,,,,,,,,551.8283026,552.5194493,551.8283026,552.5194493,72.78911565,1583447816,1583447818,1.950168133,1583447813,1583447816,,,HE,1,22,male,undergrad,2020_Mar_05_1428,AdjustEyeTrack,3.1.5,60.6067203
111,Stimuli/Morph111.JPG,Stimuli/Morph111.png,Stimuli/BlurLevel5/BlurEditedMorph111,Stimuli/BlurLevel5/BlurEditedMorph111.png,Stimuli/BlurLevel5/NumberedMorphs/BlurEditedMorph111.png,Stimuli/BlurLevel5/OriginalBlur/BlurEditedMorph111.png,Stimuli/BlurMorphTrio/EditedMorph111.png,None,None,,,,,0,0,0,0,0,35,35,110,,,,,,,,,,,,,,,,,,,,,,,51,36,1,255,-0.647047613,-2.414814566,111,Experiment,,,,,,,,,64,113,-2,-2,,,,,,,,,,,,,,,557.1637832,557.8678554,557.1637832,557.8678554,97.27891156,1583447821,1583447824,2.949445248,1583447818,1583447821,,,HE,1,22,male,undergrad,2020_Mar_05_1428,AdjustEyeTrack,3.1.5,60.6067203
108,Stimuli/Morph108.JPG,Stimuli/Morph108.png,Stimuli/BlurLevel5/BlurEditedMorph108,Stimuli/BlurLevel5/BlurEditedMorph108.png,Stimuli/BlurLevel5/NumberedMorphs/BlurEditedMorph108.png,Stimuli/BlurLevel5/OriginalBlur/BlurEditedMorph108.png,Stimuli/BlurMorphTrio/EditedMorph108.png,None,None,,,,,0,0,0,0,0,36,36,107,,,,,,,,,,,,,,,,,,,,,,,48,37,1,154,-2.246985116,1.095927867,108,Experiment,,,,,,,,,74,118,-10,-10,,,,,,,,,,,,,,,563.4044445,564.0911771,563.4044445,564.0911771,86.39455782,1583447827,1583447830,2.861211777,1583447825,1583447827,,,HE,1,22,male,undergrad,2020_Mar_05_1428,AdjustEyeTrack,3.1.5,60.6067203
89,Stimuli/Morph89.JPG,Stimuli/Morph89.png,Stimuli/BlurLevel5/BlurEditedMorph89,Stimuli/BlurLevel5/BlurEditedMorph89.png,Stimuli/BlurLevel5/NumberedMorphs/BlurEditedMorph89.png,Stimuli/BlurLevel5/OriginalBlur/BlurEditedMorph89.png,Stimuli/BlurMorphTrio/EditedMorph89.png,020273right.gif,Stimuli/normal_thumbnails/89right.gif,,,,,0,0,0,0,0,37,37,88,,,,,,,,,,,,,,,,,,,,,,,29,38,1,74,0.68909339,2.40315424,89,Experiment,,,,,,,,,59,102,-13,-13,,,,,,,,,,,,,,,569.7838558,570.4937563,569.7838558,570.4937563,82.31292517,1583447834,1583447835,1.363798857,1583447831,1583447834,,,HE,1,22,male,undergrad,2020_Mar_05_1428,AdjustEyeTrack,3.1.5,60.6067203
19,Stimuli/Morph19.JPG,Stimuli/Morph19.png,Stimuli/BlurLevel5/BlurEditedMorph19,Stimuli/BlurLevel5/BlurEditedMorph19.png,Stimuli/BlurLevel5/NumberedMorphs/BlurEditedMorph19.png,Stimuli/BlurLevel5/OriginalBlur/BlurEditedMorph19.png,Stimuli/BlurMorphTrio/EditedMorph19.png,010045right.gif,Stimuli/normal_thumbnails/19right.gif,,,,,0,0,0,0,0,38,38,18,,,,,,,,,,,,,,,,,,,,,,,73,39,1,320,1.915111108,-1.606969024,19,Experiment,,,,,,,,,72,13,6,6,,,,,,,,,,,,,,,574.408986,575.0961704,574.408986,575.0961704,91.83673469,1583447838,1583447842,3.199988127,1583447836,1583447838,,,HE,1,22,male,undergrad,2020_Mar_05_1428,AdjustEyeTrack,3.1.5,60.6067203
69,Stimuli/Morph69.JPG,Stimuli/Morph69.png,Stimuli/BlurLevel5/BlurEditedMorph69,Stimuli/BlurLevel5/BlurEditedMorph69.png,Stimuli/BlurLevel5/NumberedMorphs/BlurEditedMorph69.png,Stimuli/BlurLevel5/OriginalBlur/BlurEditedMorph69.png,Stimuli/BlurMorphTrio/EditedMorph69.png,020220right.gif,Stimuli/normal_thumbnails/69right.gif,,,,,0,0,0,0,0,39,39,68,,,,,,,,,,,,,,,,,,,,,,,71,40,1,295,1.056545654,-2.265769468,69,Experiment,,,,,,,,,109,82,-13,-13,,,,,,,,,,,,,,,580.7395994,581.4144637,580.7395994,581.4144637,82.31292517,1583447845,1583447854,9.033717871,1583447842,1583447845,,,HE,1,22,male,undergrad,2020_Mar_05_1428,AdjustEyeTrack,3.1.5,60.6067203
37,Stimuli/Morph37.JPG,Stimuli/Morph37.png,Stimuli/BlurLevel5/BlurEditedMorph37,Stimuli/BlurLevel5/BlurEditedMorph37.png,Stimuli/BlurLevel5/NumberedMorphs/BlurEditedMorph37.png,Stimuli/BlurLevel5/OriginalBlur/BlurEditedMorph37.png,Stimuli/BlurMorphTrio/EditedMorph37.png,010097right.gif,Stimuli/normal_thumbnails/37right.gif,,,,,0,0,0,0,0,40,40,36,,,,,,,,,,,,,,,,,,,,,,,36,41,1,213,-2.09667642,-1.361597588,37,Experiment,,,,,,,,,141,6,31,31,,,,,,,,,,,,,,,593.1250053,593.8312834,593.1250053,593.8312834,57.82312925,1583447857,1583447863,5.883192778,1583447854,1583447857,,,HE,1,22,male,undergrad,2020_Mar_05_1428,AdjustEyeTrack,3.1.5,60.6067203
35,Stimuli/Morph35.JPG,Stimuli/Morph35.png,Stimuli/BlurLevel5/BlurEditedMorph35,Stimuli/BlurLevel5/BlurEditedMorph35.png,Stimuli/BlurLevel5/NumberedMorphs/BlurEditedMorph35.png,Stimuli/BlurLevel5/OriginalBlur/BlurEditedMorph35.png,Stimuli/BlurMorphTrio/EditedMorph35.png,010094right.gif,Stimuli/normal_thumbnails/35right.gif,,,,,0,0,0,0,0,41,41,34,,,,,,,,,,,,,,,,,,,,,,,83,42,1,91,-0.043631016,2.499619238,35,Experiment,,,,,,,,,60,60,-25,-25,,,,,,,,,,,,,,,602.3616574,603.0584667,602.3616574,603.0584667,65.98639456,1583447866,1583447867,0.811957836,1583447863,1583447866,,,HE,1,22,male,undergrad,2020_Mar_05_1428,AdjustEyeTrack,3.1.5,60.6067203
138,Stimuli/Morph138.JPG,Stimuli/Morph138.png,Stimuli/BlurLevel5/BlurEditedMorph138,Stimuli/BlurLevel5/BlurEditedMorph138.png,Stimuli/BlurLevel5/NumberedMorphs/BlurEditedMorph138.png,Stimuli/BlurLevel5/OriginalBlur/BlurEditedMorph138.png,Stimuli/BlurMorphTrio/EditedMorph138.png,None,None,,,,,0,0,0,0,0,42,42,137,,,,,,,,,,,,,,,,,,,,,,,78,43,1,327,2.09667642,-1.361597588,138,Experiment,,,,,,,,,98,120,18,18,,,,,,,,,,,,,,,606.305259,606.9902793,606.305259,606.9902793,75.51020408,1583447870,1583447873,2.916278124,1583447868,1583447870,,,HE,1,22,male,undergrad,2020_Mar_05_1428,AdjustEyeTrack,3.1.5,60.6067203
66,Stimuli/Morph66.JPG,Stimuli/Morph66.png,Stimuli/BlurLevel5/BlurEditedMorph66,Stimuli/BlurLevel5/BlurEditedMorph66.png,Stimuli/BlurLevel5/NumberedMorphs/BlurEditedMorph66.png,Stimuli/BlurLevel5/OriginalBlur/BlurEditedMorph66.png,Stimuli/BlurMorphTrio/EditedMorph66.png,020212right.gif,Stimuli/normal_thumbnails/66right.gif,,,,,0,0,0,0,0,43,43,65,,,,,,,,,,,,,,,,,,,,,,,86,44,1,282,0.519779227,-2.445369002,66,Experiment,,,,,,,,,42,48,18,18,,,,,,,,,,,,,,,612.4920912,613.1873578,612.4920912,613.1873578,75.51020408,1583447876,1583447878,1.414983988,1583447874,1583447876,,,HE,1,22,male,undergrad,2020_Mar_05_1428,AdjustEyeTrack,3.1.5,60.6067203
80,Stimuli/Morph80.JPG,Stimuli/Morph80.png,Stimuli/BlurLevel5/BlurEditedMorph80,Stimuli/BlurLevel5/BlurEditedMorph80.png,Stimuli/BlurLevel5/NumberedMorphs/BlurEditedMorph80.png,Stimuli/BlurLevel5/OriginalBlur/BlurEditedMorph80.png,Stimuli/BlurMorphTrio/EditedMorph80.png,020240right.gif,Stimuli/normal_thumbnails/80right.gif,,,,,0,0,0,0,0,44,44,79,,,,,,,,,,,,,,,,,,,,,,,36,45,1,297,1.134976249,-2.22751631,80,Experiment,,,,,,,,,134,36,44,44,,,,,,,,,,,,,,,617.249085,617.9487965,617.249085,617.9487965,40.13605442,1583447881,1583447885,3.416206121,1583447878,1583447881,,,HE,1,22,male,undergrad,2020_Mar_05_1428,AdjustEyeTrack,3.1.5,60.6067203
57,Stimuli/Morph57.JPG,Stimuli/Morph57.png,Stimuli/BlurLevel5/BlurEditedMorph57,Stimuli/BlurLevel5/BlurEditedMorph57.png,Stimuli/BlurLevel5/NumberedMorphs/BlurEditedMorph57.png,Stimuli/BlurLevel5/OriginalBlur/BlurEditedMorph57.png,Stimuli/BlurMorphTrio/EditedMorph57.png,010158right.gif,Stimuli/normal_thumbnails/57right.gif,,,,,0,0,0,0,0,45,45,56,,,,,,,,,,,,,,,,,,,,,,,58,46,1,345,2.414814566,-0.647047613,57,Experiment,,,,,,,,,73,47,10,10,,,,,,,,,,,,,,,623.876862,624.5811366,623.876862,624.5811366,86.39455782,1583447888,1583447891,3.163129807,1583447885,1583447888,,,HE,1,22,male,undergrad,2020_Mar_05_1428,AdjustEyeTrack,3.1.5,60.6067203
115,Stimuli/Morph115.JPG,Stimuli/Morph115.png,Stimuli/BlurLevel5/BlurEditedMorph115,Stimuli/BlurLevel5/BlurEditedMorph115.png,Stimuli/BlurLevel5/NumberedMorphs/BlurEditedMorph115.png,Stimuli/BlurLevel5/OriginalBlur/BlurEditedMorph115.png,Stimuli/BlurMorphTrio/EditedMorph115.png,None,None,,,,,0,0,0,0,0,46,46,114,,,,,,,,,,,,,,,,,,,,,,,65,47,1,0,2.5,0,115,Experiment,,,,,,,,,145,12,103,-44,,,,,,,,,,,,,,,630.3599698,631.0676679,630.3599698,631.0676679,40.13605442,1583447894,1583447896,1.532751083,1583447892,1583447894,,,HE,1,22,male,undergrad,2020_Mar_05_1428,AdjustEyeTrack,3.1.5,60.6067203
60,Stimuli/Morph60.JPG,Stimuli/Morph60.png,Stimuli/BlurLevel5/BlurEditedMorph60,Stimuli/BlurLevel5/BlurEditedMorph60.png,Stimuli/BlurLevel5/NumberedMorphs/BlurEditedMorph60.png,Stimuli/BlurLevel5/OriginalBlur/BlurEditedMorph60.png,Stimuli/BlurMorphTrio/EditedMorph60.png,020200right.gif,Stimuli/normal_thumbnails/60right.gif,,,,,0,0,0,0,0,47,47,59,,,,,,,,,,,,,,,,,,,,,,,62,48,1,88,0.087248742,2.498477068,60,Experiment,,,,,,,,,60,56,4,4,,,,,,,,,,,,,,,635.2671311,635.9678839,635.2671311,635.9678839,94.55782313,1583447899,1583447901,1.465815067,1583447896,1583447899,,,HE,1,22,male,undergrad,2020_Mar_05_1428,AdjustEyeTrack,3.1.5,60.6067203
49,Stimuli/Morph49.JPG,Stimuli/Morph49.png,Stimuli/BlurLevel5/BlurEditedMorph49,Stimuli/BlurLevel5/BlurEditedMorph49.png,Stimuli/BlurLevel5/NumberedMorphs/BlurEditedMorph49.png,Stimuli/BlurLevel5/OriginalBlur/BlurEditedMorph49.png,Stimuli/BlurMorphTrio/EditedMorph49.png,010135right.gif,Stimuli/normal_thumbnails/49right.gif,,,,,0,0,0,0,0,48,48,48,,,,,,,,,,,,,,,,,,,,,,,61,49,1,25,2.265769468,1.056545654,49,Experiment,,,,,,,,,93,47,2,2,,,,,,,,,,,,,,,640.201577,640.9139269,640.201577,640.9139269,97.27891156,1583447904,1583447906,1.516418934,1583447901,1583447904,,,HE,1,22,male,undergrad,2020_Mar_05_1428,AdjustEyeTrack,3.1.5,60.6067203
3,Stimuli/Morph3.JPG,Stimuli/Morph3.png,Stimuli/BlurLevel5/BlurEditedMorph3,Stimuli/BlurLevel5/BlurEditedMorph3.png,Stimuli/BlurLevel5/NumberedMorphs/BlurEditedMorph3.png,Stimuli/BlurLevel5/OriginalBlur/BlurEditedMorph3.png,Stimuli/BlurMorphTrio/EditedMorph3.png,010009right.gif,Stimuli/normal_thumbnails/3right.gif,,,,,0,0,0,0,0,49,49,2,,,,,,,,,,,,,,,,,,,,,,,19,50,1,253,-0.730929262,-2.39076189,3,Experiment,,,,,,,,,63,63,-60,-60,,,,,,,,,,,,,,,645.2525866,645.9506605,645.2525866,645.9506605,18.36734694,1583447909,1583447910,0.9972682,1583447906,1583447909,,,HE,1,22,male,undergrad,2020_Mar_05_1428,AdjustEyeTrack,3.1.5,60.6067203
59,Stimuli/Morph59.JPG,Stimuli/Morph59.png,Stimuli/BlurLevel5/BlurEditedMorph59,Stimuli/BlurLevel5/BlurEditedMorph59.png,Stimuli/BlurLevel5/NumberedMorphs/BlurEditedMorph59.png,Stimuli/BlurLevel5/OriginalBlur/BlurEditedMorph59.png,Stimuli/BlurMorphTrio/EditedMorph59.png,010160right.gif,Stimuli/normal_thumbnails/59right.gif,,,,,0,0,0,0,0,50,50,58,,,,,,,,,,,,,,,,,,,,,,,17,51,1,325,2.047880111,-1.433941091,59,Experiment,,,,,,,,,79,48,11,11,,,,,,,,,,,,,,,649.7845272,650.4899149,649.7845272,650.4899149,85.03401361,1583447914,1583447915,1.178194761,1583447911,1583447914,,,HE,1,22,male,undergrad,2020_Mar_05_1428,AdjustEyeTrack,3.1.5,60.6067203
139,Stimuli/Morph139.JPG,Stimuli/Morph139.png,Stimuli/BlurLevel5/BlurEditedMorph139,Stimuli/BlurLevel5/BlurEditedMorph139.png,Stimuli/BlurLevel5/NumberedMorphs/BlurEditedMorph139.png,Stimuli/BlurLevel5/OriginalBlur/BlurEditedMorph139.png,Stimuli/BlurMorphTrio/EditedMorph139.png,None,None,,,,,0,0,0,0,0,51,51,138,,,,,,,,,,,,,,,,,,,,,,,80,52,1,66,1.016841608,2.283863644,139,Experiment,,,,,,,,,147,2,137,-10,,,,,,,,,,,,,,,654.1903364,654.8731914,654.1903364,654.8731914,86.39455782,1583447918,1583447919,1.082828999,1583447916,1583447918,,,HE,1,22,male,undergrad,2020_Mar_05_1428,AdjustEyeTrack,3.1.5,60.6067203
62,Stimuli/Morph62.JPG,Stimuli/Morph62.png,Stimuli/BlurLevel5/BlurEditedMorph62,Stimuli/BlurLevel5/BlurEditedMorph62.png,Stimuli/BlurLevel5/NumberedMorphs/BlurEditedMorph62.png,Stimuli/BlurLevel5/OriginalBlur/BlurEditedMorph62.png,Stimuli/BlurMorphTrio/EditedMorph62.png,020205right.gif,Stimuli/normal_thumbnails/62right.gif,,,,,0,0,0,0,0,52,52,61,,,,,,,,,,,,,,,,,,,,,,,56,53,1,40,1.915111108,1.606969024,62,Experiment,,,,,,,,,24,52,10,10,,,,,,,,,,,,,,,658.7019681,659.4098358,658.7019681,659.4098358,86.39455782,1583447923,1583447924,1.21518302,1583447920,1583447923,,,HE,1,22,male,undergrad,2020_Mar_05_1428,AdjustEyeTrack,3.1.5,60.6067203
17,Stimuli/Morph17.JPG,Stimuli/Morph17.png,Stimuli/BlurLevel5/BlurEditedMorph17,Stimuli/BlurLevel5/BlurEditedMorph17.png,Stimuli/BlurLevel5/NumberedMorphs/BlurEditedMorph17.png,Stimuli/BlurLevel5/OriginalBlur/BlurEditedMorph17.png,Stimuli/BlurMorphTrio/EditedMorph17.png,010036right.gif,Stimuli/normal_thumbnails/17right.gif,,,,,0,0,0,0,0,53,53,16,,,,,,,,,,,,,,,,,,,,,,,83,54,1,15,2.414814566,0.647047613,17,Experiment,,,,,,,,,18,31,-14,-14,,,,,,,,,,,,,,,663.2593071,663.9647753,663.2593071,663.9647753,80.95238095,1583447927,1583447930,3.264822006,1583447924,1583447927,,,HE,1,22,male,undergrad,2020_Mar_05_1428,AdjustEyeTrack,3.1.5,60.6067203
133,Stimuli/Morph133.JPG,Stimuli/Morph133.png,Stimuli/BlurLevel5/BlurEditedMorph133,Stimuli/BlurLevel5/BlurEditedMorph133.png,Stimuli/BlurLevel5/NumberedMorphs/BlurEditedMorph133.png,Stimuli/BlurLevel5/OriginalBlur/BlurEditedMorph133.png,Stimuli/BlurMorphTrio/EditedMorph133.png,None,None,,,,,0,0,0,0,0,54,54,132,,,,,,,,,,,,,,,,,,,,,,,64,55,1,62,1.173678907,2.207368982,133,Experiment,,,,,,,,,69,134,-1,-1,,,,,,,,,,,,,,,669.7408078,670.4315434,669.7408078,670.4315434,98.63945578,1583447934,1583447935,1.649811983,1583447931,1583447934,,,HE,1,22,male,undergrad,2020_Mar_05_1428,AdjustEyeTrack,3.1.5,60.6067203
45,Stimuli/Morph45.JPG,Stimuli/Morph45.png,Stimuli/BlurLevel5/BlurEditedMorph45,Stimuli/BlurLevel5/BlurEditedMorph45.png,Stimuli/BlurLevel5/NumberedMorphs/BlurEditedMorph45.png,Stimuli/BlurLevel5/OriginalBlur/BlurEditedMorph45.png,Stimuli/BlurMorphTrio/EditedMorph45.png,010127right.gif,Stimuli/normal_thumbnails/45right.gif,,,,,0,0,0,0,0,55,55,44,,,,,,,,,,,,,,,,,,,,,,,24,56,1,91,-0.043631016,2.499619238,45,Experiment,,,,,,,,,98,47,-2,-2,,,,,,,,,,,,,,,674.6748687,675.3568128,674.6748687,675.3568128,97.27891156,1583447939,1583447940,1.683165312,1583447936,1583447939,,,HE,1,22,male,undergrad,2020_Mar_05_1428,AdjustEyeTrack,3.1.5,60.6067203
86,Stimuli/Morph86.JPG,Stimuli/Morph86.png,Stimuli/BlurLevel5/BlurEditedMorph86,Stimuli/BlurLevel5/BlurEditedMorph86.png,Stimuli/BlurLevel5/NumberedMorphs/BlurEditedMorph86.png,Stimuli/BlurLevel5/OriginalBlur/BlurEditedMorph86.png,Stimuli/BlurMorphTrio/EditedMorph86.png,020266right.gif,Stimuli/normal_thumbnails/86right.gif,,,,,0,0,0,0,0,56,56,85,,,,,,,,,,,,,,,,,,,,,,,58,57,1,207,-2.22751631,-1.134976249,86,Experiment,,,,,,,,,75,75,11,11,,,,,,,,,,,,,,,679.5453207,680.2315923,679.5453207,680.2315923,85.03401361,1583447943,1583447944,0.614670992,1583447941,1583447943,,,HE,1,22,male,undergrad,2020_Mar_05_1428,AdjustEyeTrack,3.1.5,60.6067203
128,Stimuli/Morph128.JPG,Stimuli/Morph128.png,Stimuli/BlurLevel5/BlurEditedMorph128,Stimuli/BlurLevel5/BlurEditedMorph128.png,Stimuli/BlurLevel5/NumberedMorphs/BlurEditedMorph128.png,Stimuli/BlurLevel5/OriginalBlur/BlurEditedMorph128.png,Stimuli/BlurMorphTrio/EditedMorph128.png,None,None,,,,,0,0,0,0,0,57,57,127,,,,,,,,,,,,,,,,,,,,,,,23,58,1,43,1.828384254,1.7049959,128,Experiment,,,,,,,,,34,90,38,38,,,,,,,,,,,,,,,683.3960089,684.0907538,683.3960089,684.0907538,48.29931973,1583447947,1583447949,1.865286827,1583447945,1583447947,,,HE,1,22,male,undergrad,2020_Mar_05_1428,AdjustEyeTrack,3.1.5,60.6067203
83,Stimuli/Morph83.JPG,Stimuli/Morph83.png,Stimuli/BlurLevel5/BlurEditedMorph83,Stimuli/BlurLevel5/BlurEditedMorph83.png,Stimuli/BlurLevel5/NumberedMorphs/BlurEditedMorph83.png,Stimuli/BlurLevel5/OriginalBlur/BlurEditedMorph83.png,Stimuli/BlurMorphTrio/EditedMorph83.png,020259right.gif,Stimuli/normal_thumbnails/83right.gif,,,,,0,0,0,0,0,58,58,82,,,,,,,,,,,,,,,,,,,,,,,70,59,1,106,-0.68909339,2.40315424,83,Experiment,,,,,,,,,34,118,-35,-35,,,,,,,,,,,,,,,688.5099731,689.1769705,688.5099731,689.1769705,52.38095238,1583447952,1583447955,2.649610996,1583447950,1583447952,,,HE,1,22,male,undergrad,2020_Mar_05_1428,AdjustEyeTrack,3.1.5,60.6067203
71,Stimuli/Morph71.JPG,Stimuli/Morph71.png,Stimuli/BlurLevel5/BlurEditedMorph71,Stimuli/BlurLevel5/BlurEditedMorph71.png,Stimuli/BlurLevel5/NumberedMorphs/BlurEditedMorph71.png,Stimuli/BlurLevel5/OriginalBlur/BlurEditedMorph71.png,Stimuli/BlurMorphTrio/EditedMorph71.png,020225right.gif,Stimuli/normal_thumbnails/71right.gif,,,,,0,0,0,0,0,59,59,70,,,,,,,,,,,,,,,,,,,,,,,54,60,1,167,-2.435925162,0.562377636,71,Experiment,,,,,,,,,59,82,-11,-11,,,,,,,,,,,,,,,694.3270717,695.0001841,694.3270717,695.0001841,85.03401361,1583447958,1583447960,1.482930899,1583447956,1583447958,,,HE,1,22,male,undergrad,2020_Mar_05_1428,AdjustEyeTrack,3.1.5,60.6067203
130,Stimuli/Morph130.JPG,Stimuli/Morph130.png,Stimuli/BlurLevel5/BlurEditedMorph130,Stimuli/BlurLevel5/BlurEditedMorph130.png,Stimuli/BlurLevel5/NumberedMorphs/BlurEditedMorph130.png,Stimuli/BlurLevel5/OriginalBlur/BlurEditedMorph130.png,Stimuli/BlurMorphTrio/EditedMorph130.png,None,None,,,,,0,0,0,0,0,60,60,129,,,,,,,,,,,,,,,,,,,,,,,9,61,1,257,-0.562377636,-2.435925162,130,Experiment,,,,,,,,,132,129,1,1,,,,,,,,,,,,,,,698.8080706,699.4761608,698.8080706,699.4761608,98.63945578,1583447963,1583447964,0.983963251,1583447960,1583447963,,,HE,1,22,male,undergrad,2020_Mar_05_1428,AdjustEyeTrack,3.1.5,60.6067203
68,Stimuli/Morph68.JPG,Stimuli/Morph68.png,Stimuli/BlurLevel5/BlurEditedMorph68,Stimuli/BlurLevel5/BlurEditedMorph68.png,Stimuli/BlurLevel5/NumberedMorphs/BlurEditedMorph68.png,Stimuli/BlurLevel5/OriginalBlur/BlurEditedMorph68.png,Stimuli/BlurMorphTrio/EditedMorph68.png,020218right.gif,Stimuli/normal_thumbnails/68right.gif,,,,,0,0,0,0,0,61,61,67,,,,,,,,,,,,,,,,,,,,,,,27,62,1,71,0.813920386,2.363796439,68,Experiment,,,,,,,,,46,77,-9,-9,,,,,,,,,,,,,,,703.0240217,703.7197823,703.0240217,703.7197823,87.75510204,1583447967,1583447969,2.020402908,1583447964,1583447967,,,HE,1,22,male,undergrad,2020_Mar_05_1428,AdjustEyeTrack,3.1.5,60.6067203
124,Stimuli/Morph124.JPG,Stimuli/Morph124.png,Stimuli/BlurLevel5/BlurEditedMorph124,Stimuli/BlurLevel5/BlurEditedMorph124.png,Stimuli/BlurLevel5/NumberedMorphs/BlurEditedMorph124.png,Stimuli/BlurLevel5/OriginalBlur/BlurEditedMorph124.png,Stimuli/BlurMorphTrio/EditedMorph124.png,None,None,,,,,0,0,0,0,0,62,62,123,,,,,,,,,,,,,,,,,,,,,,,11,63,1,304,1.397982259,-2.072593931,124,Experiment,,,,,,,,,5,142,-18,-18,,,,,,,,,,,,,,,708.6439156,709.3656361,708.6439156,709.3656361,75.51020408,1583447973,1583447974,1.697010994,1583447970,1583447973,,,HE,1,22,male,undergrad,2020_Mar_05_1428,AdjustEyeTrack,3.1.5,60.6067203
84,Stimuli/Morph84.JPG,Stimuli/Morph84.png,Stimuli/BlurLevel5/BlurEditedMorph84,Stimuli/BlurLevel5/BlurEditedMorph84.png,Stimuli/BlurLevel5/NumberedMorphs/BlurEditedMorph84.png,Stimuli/BlurLevel5/OriginalBlur/BlurEditedMorph84.png,Stimuli/BlurMorphTrio/EditedMorph84.png,020261right.gif,Stimuli/normal_thumbnails/84right.gif,,,,,0,0,0,0,0,63,63,83,,,,,,,,,,,,,,,,,,,,,,,47,64,1,145,-2.047880111,1.433941091,84,Experiment,,,,,,,,,42,146,-62,-62,,,,,,,,,,,,,,,713.9616026,714.6753706,713.9616026,714.6753706,15.6462585,1583447978,1583447981,2.683119059,1583447975,1583447978,,,HE,1,22,male,undergrad,2020_Mar_05_1428,AdjustEyeTrack,3.1.5,60.6067203
77,Stimuli/Morph77.JPG,Stimuli/Morph77.png,Stimuli/BlurLevel5/BlurEditedMorph77,Stimuli/BlurLevel5/BlurEditedMorph77.png,Stimuli/BlurLevel5/NumberedMorphs/BlurEditedMorph77.png,Stimuli/BlurLevel5/OriginalBlur/BlurEditedMorph77.png,Stimuli/BlurMorphTrio/EditedMorph77.png,020235right.gif,Stimuli/normal_thumbnails/77right.gif,,,,,0,0,0,0,0,64,64,76,,,,,,,,,,,,,,,,,,,,,,,37,65,1,296,1.095927867,-2.246985116,77,Experiment,,,,,,,,,74,74,3,3,,,,,,,,,,,,,,,719.9771601,720.6730306,719.9771601,720.6730306,95.91836735,1583447984,1583447985,0.631396055,1583447981,1583447984,,,HE,1,22,male,undergrad,2020_Mar_05_1428,AdjustEyeTrack,3.1.5,60.6067203
140,Stimuli/Morph140.JPG,Stimuli/Morph140.png,Stimuli/BlurLevel5/BlurEditedMorph140,Stimuli/BlurLevel5/BlurEditedMorph140.png,Stimuli/BlurLevel5/NumberedMorphs/BlurEditedMorph140.png,Stimuli/BlurLevel5/OriginalBlur/BlurEditedMorph140.png,Stimuli/BlurMorphTrio/EditedMorph140.png,None,None,,,,,0,0,0,0,0,65,65,139,,,,,,,,,,,,,,,,,,,,,,,7,66,1,142,-1.970026884,1.539153688,140,Experiment,,,,,,,,,87,140,0,0,,,,,,,,,,,,,,,723.8039324,724.4893036,723.8039324,724.4893036,100,1583447988,1583447990,2.011610746,1583447985,1583447988,,,HE,1,22,male,undergrad,2020_Mar_05_1428,AdjustEyeTrack,3.1.5,60.6067203
85,Stimuli/Morph85.JPG,Stimuli/Morph85.png,Stimuli/BlurLevel5/BlurEditedMorph85,Stimuli/BlurLevel5/BlurEditedMorph85.png,Stimuli/BlurLevel5/NumberedMorphs/BlurEditedMorph85.png,Stimuli/BlurLevel5/OriginalBlur/BlurEditedMorph85.png,Stimuli/BlurMorphTrio/EditedMorph85.png,020264right.gif,Stimuli/normal_thumbnails/85right.gif,,,,,0,0,0,0,0,66,66,84,,,,,,,,,,,,,,,,,,,,,,,66,67,1,60,1.25,2.165063509,85,Experiment,,,,,,,,,58,83,2,2,,,,,,,,,,,,,,,728.9371766,729.6263165,728.9371766,729.6263165,97.27891156,1583447993,1583447998,5.114863157,1583447990,1583447993,,,HE,1,22,male,undergrad,2020_Mar_05_1428,AdjustEyeTrack,3.1.5,60.6067203
36,Stimuli/Morph36.JPG,Stimuli/Morph36.png,Stimuli/BlurLevel5/BlurEditedMorph36,Stimuli/BlurLevel5/BlurEditedMorph36.png,Stimuli/BlurLevel5/NumberedMorphs/BlurEditedMorph36.png,Stimuli/BlurLevel5/OriginalBlur/BlurEditedMorph36.png,Stimuli/BlurMorphTrio/EditedMorph36.png,010095right.gif,Stimuli/normal_thumbnails/36right.gif,,,,,0,0,0,0,0,67,67,35,,,,,,,,,,,,,,,,,,,,,,,29,68,1,17,2.39076189,0.730929262,36,Experiment,,,,,,,,,74,22,14,14,,,,,,,,,,,,,,,737.4563268,738.160836,737.4563268,738.160836,80.95238095,1583448001,1583448005,3.83376503,1583447998,1583448001,,,HE,1,22,male,undergrad,2020_Mar_05_1428,AdjustEyeTrack,3.1.5,60.6067203
47,Stimuli/Morph47.JPG,Stimuli/Morph47.png,Stimuli/BlurLevel5/BlurEditedMorph47,Stimuli/BlurLevel5/BlurEditedMorph47.png,Stimuli/BlurLevel5/NumberedMorphs/BlurEditedMorph47.png,Stimuli/BlurLevel5/OriginalBlur/BlurEditedMorph47.png,Stimuli/BlurMorphTrio/EditedMorph47.png,010130right.gif,Stimuli/normal_thumbnails/47right.gif,,,,,0,0,0,0,0,68,68,46,,,,,,,,,,,,,,,,,,,,,,,65,69,1,253,-0.730929262,-2.39076189,47,Experiment,,,,,,,,,119,50,-3,-3,,,,,,,,,,,,,,,744.6063655,745.3167724,744.6063655,745.3167724,95.91836735,1583448009,1583448011,2.547381878,1583448006,1583448009,,,HE,1,22,male,undergrad,2020_Mar_05_1428,AdjustEyeTrack,3.1.5,60.6067203
33,Stimuli/Morph33.JPG,Stimuli/Morph33.png,Stimuli/BlurLevel5/BlurEditedMorph33,Stimuli/BlurLevel5/BlurEditedMorph33.png,Stimuli/BlurLevel5/NumberedMorphs/BlurEditedMorph33.png,Stimuli/BlurLevel5/OriginalBlur/BlurEditedMorph33.png,Stimuli/BlurMorphTrio/EditedMorph33.png,010089right.gif,Stimuli/normal_thumbnails/33right.gif,,,,,0,0,0,0,0,69,69,32,,,,,,,,,,,,,,,,,,,,,,,52,70,1,277,0.304673359,-2.481365379,33,Experiment,,,,,,,,,40,39,-6,-6,,,,,,,,,,,,,,,750.3764492,751.073266,750.3764492,751.073266,91.83673469,1583448014,1583448016,1.480922937,1583448012,1583448014,,,HE,1,22,male,undergrad,2020_Mar_05_1428,AdjustEyeTrack,3.1.5,60.6067203
29,Stimuli/Morph29.JPG,Stimuli/Morph29.png,Stimuli/BlurLevel5/BlurEditedMorph29,Stimuli/BlurLevel5/BlurEditedMorph29.png,Stimuli/BlurLevel5/NumberedMorphs/BlurEditedMorph29.png,Stimuli/BlurLevel5/OriginalBlur/BlurEditedMorph29.png,Stimuli/BlurMorphTrio/EditedMorph29.png,010074right.gif,Stimuli/normal_thumbnails/29right.gif,,,,,0,0,0,0,0,70,70,28,,,,,,,,,,,,,,,,,,,,,,,100,71,1,74,0.68909339,2.40315424,29,Experiment,,,,,,,,,79,34,-5,-5,,,,,,,,,,,,,,,755.1435217,755.8098021,755.1435217,755.8098021,93.19727891,1583448019,1583448022,3.199806929,1583448016,1583448019,,,HE,1,22,male,undergrad,2020_Mar_05_1428,AdjustEyeTrack,3.1.5,60.6067203
76,Stimuli/Morph76.JPG,Stimuli/Morph76.png,Stimuli/BlurLevel5/BlurEditedMorph76,Stimuli/BlurLevel5/BlurEditedMorph76.png,Stimuli/BlurLevel5/NumberedMorphs/BlurEditedMorph76.png,Stimuli/BlurLevel5/OriginalBlur/BlurEditedMorph76.png,Stimuli/BlurMorphTrio/EditedMorph76.png,020234right.gif,Stimuli/normal_thumbnails/76right.gif,,,,,0,0,0,0,0,71,71,75,,,,,,,,,,,,,,,,,,,,,,,3,72,1,278,0.347932752,-2.475670172,76,Experiment,,,,,,,,,11,74,2,2,,,,,,,,,,,,,,,761.6445131,762.3438046,761.6445131,762.3438046,97.27891156,1583448026,1583448030,3.914487123,1583448023,1583448026,,,HE,1,22,male,undergrad,2020_Mar_05_1428,AdjustEyeTrack,3.1.5,60.6067203
22,Stimuli/Morph22.JPG,Stimuli/Morph22.png,Stimuli/BlurLevel5/BlurEditedMorph22,Stimuli/BlurLevel5/BlurEditedMorph22.png,Stimuli/BlurLevel5/NumberedMorphs/BlurEditedMorph22.png,Stimuli/BlurLevel5/OriginalBlur/BlurEditedMorph22.png,Stimuli/BlurMorphTrio/EditedMorph22.png,010055right.gif,Stimuli/normal_thumbnails/22right.gif,,,,,0,0,0,0,0,72,72,21,,,,,,,,,,,,,,,,,,,,,,,84,73,1,207,-2.22751631,-1.134976249,22,Experiment,,,,,,,,,6,29,-7,-7,,,,,,,,,,,,,,,768.702131,769.3894739,768.702131,769.3894739,90.47619048,1583448033,1583448034,1.882696152,1583448030,1583448033,,,HE,1,22,male,undergrad,2020_Mar_05_1428,AdjustEyeTrack,3.1.5,60.6067203
14,Stimuli/Morph14.JPG,Stimuli/Morph14.png,Stimuli/BlurLevel5/BlurEditedMorph14,Stimuli/BlurLevel5/BlurEditedMorph14.png,Stimuli/BlurLevel5/NumberedMorphs/BlurEditedMorph14.png,Stimuli/BlurLevel5/OriginalBlur/BlurEditedMorph14.png,Stimuli/BlurMorphTrio/EditedMorph14.png,010030right.gif,Stimuli/normal_thumbnails/14right.gif,,,,,0,0,0,0,0,73,73,13,,,,,,,,,,,,,,,,,,,,,,,75,74,1,350,2.462019383,-0.434120444,14,Experiment,,,,,,,,,81,21,-7,-7,,,,,,,,,,,,,,,773.6253874,774.3048175,773.6253874,774.3048175,90.47619048,1583448038,1583448040,2.847688913,1583448035,1583448038,,,HE,1,22,male,undergrad,2020_Mar_05_1428,AdjustEyeTrack,3.1.5,60.6067203
112,Stimuli/Morph112.JPG,Stimuli/Morph112.png,Stimuli/BlurLevel5/BlurEditedMorph112,Stimuli/BlurLevel5/BlurEditedMorph112.png,Stimuli/BlurLevel5/NumberedMorphs/BlurEditedMorph112.png,Stimuli/BlurLevel5/OriginalBlur/BlurEditedMorph112.png,Stimuli/BlurMorphTrio/EditedMorph112.png,None,None,,,,,0,0,0,0,0,74,74,111,,,,,,,,,,,,,,,,,,,,,,,22,75,1,332,2.207368982,-1.173678907,112,Experiment,,,,,,,,,55,105,7,7,,,,,,,,,,,,,,,779.631783,780.3077028,779.631783,780.3077028,90.47619048,1583448044,1583448046,1.915902138,1583448041,1583448044,,,HE,1,22,male,undergrad,2020_Mar_05_1428,AdjustEyeTrack,3.1.5,60.6067203
32,Stimuli/Morph32.JPG,Stimuli/Morph32.png,Stimuli/BlurLevel5/BlurEditedMorph32,Stimuli/BlurLevel5/BlurEditedMorph32.png,Stimuli/BlurLevel5/NumberedMorphs/BlurEditedMorph32.png,Stimuli/BlurLevel5/OriginalBlur/BlurEditedMorph32.png,Stimuli/BlurMorphTrio/EditedMorph32.png,010080right.gif,Stimuli/normal_thumbnails/32right.gif,,,,,0,0,0,0,0,75,75,31,,,,,,,,,,,,,,,,,,,,,,,20,76,1,173,-2.481365379,0.304673359,32,Experiment,,,,,,,,,44,23,9,9,,,,,,,,,,,,,,,784.765689,785.4378144,784.765689,785.4378144,87.75510204,1583448049,1583448052,3.116162062,1583448046,1583448049,,,HE,1,22,male,undergrad,2020_Mar_05_1428,AdjustEyeTrack,3.1.5,60.6067203
94,Stimuli/Morph94.JPG,Stimuli/Morph94.png,Stimuli/BlurLevel5/BlurEditedMorph94,Stimuli/BlurLevel5/BlurEditedMorph94.png,Stimuli/BlurLevel5/NumberedMorphs/BlurEditedMorph94.png,Stimuli/BlurLevel5/OriginalBlur/BlurEditedMorph94.png,Stimuli/BlurMorphTrio/EditedMorph94.png,020286right.gif,Stimuli/normal_thumbnails/94right.gif,,,,,0,0,0,0,0,76,76,93,,,,,,,,,,,,,,,,,,,,,,,30,77,1,25,2.265769468,1.056545654,94,Experiment,,,,,,,,,11,100,-6,-6,,,,,,,,,,,,,,,791.1024856,791.805125,791.1024856,791.805125,91.83673469,1583448055,1583448058,2.979897022,1583448052,1583448055,,,HE,1,22,male,undergrad,2020_Mar_05_1428,AdjustEyeTrack,3.1.5,60.6067203
131,Stimuli/Morph131.JPG,Stimuli/Morph131.png,Stimuli/BlurLevel5/BlurEditedMorph131,Stimuli/BlurLevel5/BlurEditedMorph131.png,Stimuli/BlurLevel5/NumberedMorphs/BlurEditedMorph131.png,Stimuli/BlurLevel5/OriginalBlur/BlurEditedMorph131.png,Stimuli/BlurMorphTrio/EditedMorph131.png,None,None,,,,,0,0,0,0,0,77,77,130,,,,,,,,,,,,,,,,,,,,,,,25,78,1,68,0.936516484,2.317959636,131,Experiment,,,,,,,,,69,33,98,-49,,,,,,,,,,,,,,,797.2748467,797.9653597,797.2748467,797.9653597,33.33333333,1583448061,1583448065,3.360816956,1583448059,1583448061,,,HE,1,22,male,undergrad,2020_Mar_05_1428,AdjustEyeTrack,3.1.5,60.6067203
13,Stimuli/Morph13.JPG,Stimuli/Morph13.png,Stimuli/BlurLevel5/BlurEditedMorph13,Stimuli/BlurLevel5/BlurEditedMorph13.png,Stimuli/BlurLevel5/NumberedMorphs/BlurEditedMorph13.png,Stimuli/BlurLevel5/OriginalBlur/BlurEditedMorph13.png,Stimuli/BlurMorphTrio/EditedMorph13.png,010027right.gif,Stimuli/normal_thumbnails/13right.gif,,,,,0,0,0,0,0,78,78,12,,,,,,,,,,,,,,,,,,,,,,,74,79,1,266,-0.174391184,-2.493910126,13,Experiment,,,,,,,,,112,88,-75,72,,,,,,,,,,,,,,,803.9248924,804.6258849,803.9248924,804.6258849,2.040816327,1583448068,1583448071,3.215802193,1583448065,1583448068,,,HE,1,22,male,undergrad,2020_Mar_05_1428,AdjustEyeTrack,3.1.5,60.6067203
93,Stimuli/Morph93.JPG,Stimuli/Morph93.png,Stimuli/BlurLevel5/BlurEditedMorph93,Stimuli/BlurLevel5/BlurEditedMorph93.png,Stimuli/BlurLevel5/NumberedMorphs/BlurEditedMorph93.png,Stimuli/BlurLevel5/OriginalBlur/BlurEditedMorph93.png,Stimuli/BlurMorphTrio/EditedMorph93.png,020280right.gif,Stimuli/normal_thumbnails/93right.gif,,,,,0,0,0,0,0,79,79,92,,,,,,,,,,,,,,,,,,,,,,,69,80,1,39,1.942864904,1.573300978,93,Experiment,,,,,,,,,146,100,-7,-7,,,,,,,,,,,,,,,810.5830113,811.2941516,810.5830113,811.2941516,90.47619048,1583448075,1583448079,4.416966915,1583448072,1583448075,,,HE,1,22,male,undergrad,2020_Mar_05_1428,AdjustEyeTrack,3.1.5,60.6067203
42,Stimuli/Morph42.JPG,Stimuli/Morph42.png,Stimuli/BlurLevel5/BlurEditedMorph42,Stimuli/BlurLevel5/BlurEditedMorph42.png,Stimuli/BlurLevel5/NumberedMorphs/BlurEditedMorph42.png,Stimuli/BlurLevel5/OriginalBlur/BlurEditedMorph42.png,Stimuli/BlurMorphTrio/EditedMorph42.png,010121right.gif,Stimuli/normal_thumbnails/42right.gif,,,,,0,0,0,0,0,80,80,41,,,,,,,,,,,,,,,,,,,,,,,67,81,1,205,-2.265769468,-1.056545654,42,Experiment,,,,,,,,,8,45,-3,-3,,,,,,,,,,,,,,,818.3700212,819.0622134,818.3700212,819.0622134,95.91836735,1583448082,1583448083,1.099714994,1583448080,1583448082,,,HE,1,22,male,undergrad,2020_Mar_05_1428,AdjustEyeTrack,3.1.5,60.6067203
135,Stimuli/Morph135.JPG,Stimuli/Morph135.png,Stimuli/BlurLevel5/BlurEditedMorph135,Stimuli/BlurLevel5/BlurEditedMorph135.png,Stimuli/BlurLevel5/NumberedMorphs/BlurEditedMorph135.png,Stimuli/BlurLevel5/OriginalBlur/BlurEditedMorph135.png,Stimuli/BlurMorphTrio/EditedMorph135.png,None,None,,,,,0,0,0,0,0,81,81,134,,,,,,,,,,,,,,,,,,,,,,,72,82,1,277,0.304673359,-2.481365379,135,Experiment,,,,,,,,,62,30,105,-42,,,,,,,,,,,,,,,822.7696733,823.4399445,822.7696733,823.4399445,42.85714286,1583448087,1583448089,2.450061083,1583448084,1583448087,,,HE,1,22,male,undergrad,2020_Mar_05_1428,AdjustEyeTrack,3.1.5,60.6067203
144,Stimuli/Morph144.JPG,Stimuli/Morph144.png,Stimuli/BlurLevel5/BlurEditedMorph144,Stimuli/BlurLevel5/BlurEditedMorph144.png,Stimuli/BlurLevel5/NumberedMorphs/BlurEditedMorph144.png,Stimuli/BlurLevel5/OriginalBlur/BlurEditedMorph144.png,Stimuli/BlurMorphTrio/EditedMorph144.png,None,None,,,,,0,0,0,0,0,82,82,143,,,,,,,,,,,,,,,,,,,,,,,28,83,1,125,-1.433941091,2.047880111,144,Experiment,,,,,,,,,53,147,-3,-3,,,,,,,,,,,,,,,828.6556536,829.3541784,828.6556536,829.3541784,95.91836735,1583448093,1583448096,3.082181215,1583448090,1583448093,,,HE,1,22,male,undergrad,2020_Mar_05_1428,AdjustEyeTrack,3.1.5,60.6067203
91,Stimuli/Morph91.JPG,Stimuli/Morph91.png,Stimuli/BlurLevel5/BlurEditedMorph91,Stimuli/BlurLevel5/BlurEditedMorph91.png,Stimuli/BlurLevel5/NumberedMorphs/BlurEditedMorph91.png,Stimuli/BlurLevel5/OriginalBlur/BlurEditedMorph91.png,Stimuli/BlurMorphTrio/EditedMorph91.png,020276right.gif,Stimuli/normal_thumbnails/91right.gif,,,,,0,0,0,0,0,83,83,90,,,,,,,,,,,,,,,,,,,,,,,70,84,1,200,-2.349231552,-0.855050358,91,Experiment,,,,,,,,,30,112,-21,-21,,,,,,,,,,,,,,,834.9403498,835.6215634,834.9403498,835.6215634,71.42857143,1583448099,1583448101,1.949840784,1583448096,1583448099,,,HE,1,22,male,undergrad,2020_Mar_05_1428,AdjustEyeTrack,3.1.5,60.6067203
30,Stimuli/Morph30.JPG,Stimuli/Morph30.png,Stimuli/BlurLevel5/BlurEditedMorph30,Stimuli/BlurLevel5/BlurEditedMorph30.png,Stimuli/BlurLevel5/NumberedMorphs/BlurEditedMorph30.png,Stimuli/BlurLevel5/OriginalBlur/BlurEditedMorph30.png,Stimuli/BlurMorphTrio/EditedMorph30.png,010076right.gif,Stimuli/normal_thumbnails/30right.gif,,,,,0,0,0,0,0,84,84,29,,,,,,,,,,,,,,,,,,,,,,,85,85,1,348,2.445369002,-0.519779227,30,Experiment,,,,,,,,,143,147,-117,30,,,,,,,,,,,,,,,840.0387678,840.7310505,840.0387678,840.7310505,59.18367347,1583448104,1583448107,2.65121913,1583448101,1583448104,,,HE,1,22,male,undergrad,2020_Mar_05_1428,AdjustEyeTrack,3.1.5,60.6067203
136,Stimuli/Morph136.JPG,Stimuli/Morph136.png,Stimuli/BlurLevel5/BlurEditedMorph136,Stimuli/BlurLevel5/BlurEditedMorph136.png,Stimuli/BlurLevel5/NumberedMorphs/BlurEditedMorph136.png,Stimuli/BlurLevel5/OriginalBlur/BlurEditedMorph136.png,Stimuli/BlurMorphTrio/EditedMorph136.png,None,None,,,,,1,0,1,0,0,0,0,135,,,,,,,,,,,,,,,,,,,,,,,3,1,2,323,1.996588775,-1.504537558,136,Experiment,,,,,,,,,64,115,21,21,,,,,,,,,,,,,,,846.7260656,847.4373812,846.7260656,847.4373812,71.42857143,1583448111,1583448112,1.58336997,1583448108,1583448111,space,0.116689509,HE,1,22,male,undergrad,2020_Mar_05_1428,AdjustEyeTrack,3.1.5,60.6067203
50,Stimuli/Morph50.JPG,Stimuli/Morph50.png,Stimuli/BlurLevel5/BlurEditedMorph50,Stimuli/BlurLevel5/BlurEditedMorph50.png,Stimuli/BlurLevel5/NumberedMorphs/BlurEditedMorph50.png,Stimuli/BlurLevel5/OriginalBlur/BlurEditedMorph50.png,Stimuli/BlurMorphTrio/EditedMorph50.png,010142right.gif,Stimuli/normal_thumbnails/50right.gif,,,,,1,0,1,0,0,1,1,49,,,,,,,,,,,,,,,,,,,,,,,97,2,2,109,-0.813920386,2.363796439,50,Experiment,,,,,,,,,23,58,-8,-8,,,,,,,,,,,,,,,851.7169879,852.4059964,851.7169879,852.4059964,89.11564626,1583448116,1583448117,1.42512393,1583448113,1583448116,,,HE,1,22,male,undergrad,2020_Mar_05_1428,AdjustEyeTrack,3.1.5,60.6067203
79,Stimuli/Morph79.JPG,Stimuli/Morph79.png,Stimuli/BlurLevel5/BlurEditedMorph79,Stimuli/BlurLevel5/BlurEditedMorph79.png,Stimuli/BlurLevel5/NumberedMorphs/BlurEditedMorph79.png,Stimuli/BlurLevel5/OriginalBlur/BlurEditedMorph79.png,Stimuli/BlurMorphTrio/EditedMorph79.png,020239right.gif,Stimuli/normal_thumbnails/79right.gif,,,,,1,0,1,0,0,2,2,78,,,,,,,,,,,,,,,,,,,,,,,69,3,2,14,2.425739316,0.604804739,79,Experiment,,,,,,,,,82,82,-3,-3,,,,,,,,,,,,,,,856.6284269,857.3390641,856.6284269,857.3390641,95.91836735,1583448121,1583448121,0.517493963,1583448118,1583448121,,,HE,1,22,male,undergrad,2020_Mar_05_1428,AdjustEyeTrack,3.1.5,60.6067203
7,Stimuli/Morph7.JPG,Stimuli/Morph7.png,Stimuli/BlurLevel5/BlurEditedMorph7,Stimuli/BlurLevel5/BlurEditedMorph7.png,Stimuli/BlurLevel5/NumberedMorphs/BlurEditedMorph7.png,Stimuli/BlurLevel5/OriginalBlur/BlurEditedMorph7.png,Stimuli/BlurMorphTrio/EditedMorph7.png,010013right.gif,Stimuli/normal_thumbnails/7right.gif,,,,,1,0,1,0,0,3,3,6,,,,,,,,,,,,,,,,,,,,,,,53,4,2,162,-2.377641291,0.772542486,7,Experiment,,,,,,,,,65,125,-118,29,,,,,,,,,,,,,,,860.588053,861.2778024,860.588053,861.2778024,60.54421769,1583448125,1583448126,1.697369814,1583448122,1583448125,,,HE,1,22,male,undergrad,2020_Mar_05_1428,AdjustEyeTrack,3.1.5,60.6067203
145,Stimuli/Morph145.JPG,Stimuli/Morph145.png,Stimuli/BlurLevel5/BlurEditedMorph145,Stimuli/BlurLevel5/BlurEditedMorph145.png,Stimuli/BlurLevel5/NumberedMorphs/BlurEditedMorph145.png,Stimuli/BlurLevel5/OriginalBlur/BlurEditedMorph145.png,Stimuli/BlurMorphTrio/EditedMorph145.png,None,None,,,,,1,0,1,0,0,4,4,144,,,,,,,,,,,,,,,,,,,,,,,45,5,2,293,0.976827821,-2.301262134,145,Experiment,,,,,,,,,123,123,22,22,,,,,,,,,,,,,,,865.3951472,866.0706996,865.3951472,866.0706996,70.06802721,1583448129,1583448130,0.449648857,1583448127,1583448129,,,HE,1,22,male,undergrad,2020_Mar_05_1428,AdjustEyeTrack,3.1.5,60.6067203
20,Stimuli/Morph20.JPG,Stimuli/Morph20.png,Stimuli/BlurLevel5/BlurEditedMorph20,Stimuli/BlurLevel5/BlurEditedMorph20.png,Stimuli/BlurLevel5/NumberedMorphs/BlurEditedMorph20.png,Stimuli/BlurLevel5/OriginalBlur/BlurEditedMorph20.png,Stimuli/BlurMorphTrio/EditedMorph20.png,010046right.gif,Stimuli/normal_thumbnails/20right.gif,,,,,1,0,1,0,0,5,5,19,,,,,,,,,,,,,,,,,,,,,,,39,6,2,161,-2.363796439,0.813920386,20,Experiment,,,,,,,,,145,10,10,10,,,,,,,,,,,,,,,869.212247,869.9033691,869.212247,869.9033691,86.39455782,1583448133,1583448135,2.233154058,1583448130,1583448133,,,HE,1,22,male,undergrad,2020_Mar_05_1428,AdjustEyeTrack,3.1.5,60.6067203
63,Stimuli/Morph63.JPG,Stimuli/Morph63.png,Stimuli/BlurLevel5/BlurEditedMorph63,Stimuli/BlurLevel5/BlurEditedMorph63.png,Stimuli/BlurLevel5/NumberedMorphs/BlurEditedMorph63.png,Stimuli/BlurLevel5/OriginalBlur/BlurEditedMorph63.png,Stimuli/BlurMorphTrio/EditedMorph63.png,020206right.gif,Stimuli/normal_thumbnails/63right.gif,,,,,1,0,1,0,0,6,6,62,,,,,,,,,,,,,,,,,,,,,,,64,7,2,256,-0.604804739,-2.425739316,63,Experiment,,,,,,,,,41,2,61,61,,,,,,,,,,,,,,,874.6926763,875.372166,874.6926763,875.372166,17.00680272,1583448139,1583448141,2.58118391,1583448136,1583448139,,,HE,1,22,male,undergrad,2020_Mar_05_1428,AdjustEyeTrack,3.1.5,60.6067203
113,Stimuli/Morph113.JPG,Stimuli/Morph113.png,Stimuli/BlurLevel5/BlurEditedMorph113,Stimuli/BlurLevel5/BlurEditedMorph113.png,Stimuli/BlurLevel5/NumberedMorphs/BlurEditedMorph113.png,Stimuli/BlurLevel5/OriginalBlur/BlurEditedMorph113.png,Stimuli/BlurMorphTrio/EditedMorph113.png,None,None,,,,,1,0,1,0,0,7,7,112,,,,,,,,,,,,,,,,,,,,,,,16,8,2,19,2.363796439,0.813920386,113,Experiment,,,,,,,,,147,147,-34,-34,,,,,,,,,,,,,,,880.6261379,881.327403,880.6261379,881.327403,53.7414966,1583448145,1583448145,0.514293909,1583448142,1583448145,,,HE,1,22,male,undergrad,2020_Mar_05_1428,AdjustEyeTrack,3.1.5,60.6067203
55,Stimuli/Morph55.JPG,Stimuli/Morph55.png,Stimuli/BlurLevel5/BlurEditedMorph55,Stimuli/BlurLevel5/BlurEditedMorph55.png,Stimuli/BlurLevel5/NumberedMorphs/BlurEditedMorph55.png,Stimuli/BlurLevel5/OriginalBlur/BlurEditedMorph55.png,Stimuli/BlurMorphTrio/EditedMorph55.png,010151right.gif,Stimuli/normal_thumbnails/55right.gif,,,,,1,0,1,0,0,8,8,54,,,,,,,,,,,,,,,,,,,,,,,69,9,2,320,1.915111108,-1.606969024,55,Experiment,,,,,,,,,80,51,4,4,,,,,,,,,,,,,,,884.6338,885.3303984,884.6338,885.3303984,94.55782313,1583448149,1583448150,1.180902958,1583448146,1583448149,,,HE,1,22,male,undergrad,2020_Mar_05_1428,AdjustEyeTrack,3.1.5,60.6067203
84,Stimuli/Morph84.JPG,Stimuli/Morph84.png,Stimuli/BlurLevel5/BlurEditedMorph84,Stimuli/BlurLevel5/BlurEditedMorph84.png,Stimuli/BlurLevel5/NumberedMorphs/BlurEditedMorph84.png,Stimuli/BlurLevel5/OriginalBlur/BlurEditedMorph84.png,Stimuli/BlurMorphTrio/EditedMorph84.png,020261right.gif,Stimuli/normal_thumbnails/84right.gif,,,,,1,0,1,0,0,9,9,83,,,,,,,,,,,,,,,,,,,,,,,41,10,2,19,2.363796439,0.813920386,84,Experiment,,,,,,,,,99,99,-15,-15,,,,,,,,,,,,,,,889.1339296,889.8376052,889.1339296,889.8376052,79.59183673,1583448153,1583448154,0.71666503,1583448150,1583448153,,,HE,1,22,male,undergrad,2020_Mar_05_1428,AdjustEyeTrack,3.1.5,60.6067203
80,Stimuli/Morph80.JPG,Stimuli/Morph80.png,Stimuli/BlurLevel5/BlurEditedMorph80,Stimuli/BlurLevel5/BlurEditedMorph80.png,Stimuli/BlurLevel5/NumberedMorphs/BlurEditedMorph80.png,Stimuli/BlurLevel5/OriginalBlur/BlurEditedMorph80.png,Stimuli/BlurMorphTrio/EditedMorph80.png,020240right.gif,Stimuli/normal_thumbnails/80right.gif,,,,,1,0,1,0,0,10,10,79,,,,,,,,,,,,,,,,,,,,,,,70,11,2,233,-1.504537558,-1.996588775,80,Experiment,,,,,,,,,22,97,-17,-17,,,,,,,,,,,,,,,893.0093768,893.6904934,893.0093768,893.6904934,76.8707483,1583448157,1583448159,1.848002911,1583448154,1583448157,,,HE,1,22,male,undergrad,2020_Mar_05_1428,AdjustEyeTrack,3.1.5,60.6067203
130,Stimuli/Morph130.JPG,Stimuli/Morph130.png,Stimuli/BlurLevel5/BlurEditedMorph130,Stimuli/BlurLevel5/BlurEditedMorph130.png,Stimuli/BlurLevel5/NumberedMorphs/BlurEditedMorph130.png,Stimuli/BlurLevel5/OriginalBlur/BlurEditedMorph130.png,Stimuli/BlurMorphTrio/EditedMorph130.png,None,None,,,,,1,0,1,0,0,11,11,129,,,,,,,,,,,,,,,,,,,,,,,17,12,2,342,2.377641291,-0.772542486,130,Experiment,,,,,,,,,7,105,25,25,,,,,,,,,,,,,,,898.2731608,898.9790502,898.2731608,898.9790502,65.98639456,1583448162,1583448165,2.397427082,1583448159,1583448162,,,HE,1,22,male,undergrad,2020_Mar_05_1428,AdjustEyeTrack,3.1.5,60.6067203
4,Stimuli/Morph4.JPG,Stimuli/Morph4.png,Stimuli/BlurLevel5/BlurEditedMorph4,Stimuli/BlurLevel5/BlurEditedMorph4.png,Stimuli/BlurLevel5/NumberedMorphs/BlurEditedMorph4.png,Stimuli/BlurLevel5/OriginalBlur/BlurEditedMorph4.png,Stimuli/BlurMorphTrio/EditedMorph4.png,010010right.gif,Stimuli/normal_thumbnails/4right.gif,,,,,1,0,1,0,0,12,12,3,,,,,,,,,,,,,,,,,,,,,,,29,13,2,326,2.072593931,-1.397982259,4,Experiment,,,,,,,,,48,142,-138,9,,,,,,,,,,,,,,,904.1818519,904.8890237,904.1818519,904.8890237,87.75510204,1583448168,1583448170,1.516739845,1583448165,1583448168,,,HE,1,22,male,undergrad,2020_Mar_05_1428,AdjustEyeTrack,3.1.5,60.6067203
21,Stimuli/Morph21.JPG,Stimuli/Morph21.png,Stimuli/BlurLevel5/BlurEditedMorph21,Stimuli/BlurLevel5/BlurEditedMorph21.png,Stimuli/BlurLevel5/NumberedMorphs/BlurEditedMorph21.png,Stimuli/BlurLevel5/OriginalBlur/BlurEditedMorph21.png,Stimuli/BlurMorphTrio/EditedMorph21.png,010049right.gif,Stimuli/normal_thumbnails/21right.gif,,,,,1,0,1,0,0,13,13,20,,,,,,,,,,,,,,,,,,,,,,,78,14,2,349,2.454067959,-0.477022488,21,Experiment,,,,,,,,,61,21,0,0,,,,,,,,,,,,,,,908.8894363,909.5698233,908.8894363,909.5698233,100,1583448173,1583448175,2.45185113,1583448170,1583448173,,,HE,1,22,male,undergrad,2020_Mar_05_1428,AdjustEyeTrack,3.1.5,60.6067203
102,Stimuli/Morph102.JPG,Stimuli/Morph102.png,Stimuli/BlurLevel5/BlurEditedMorph102,Stimuli/BlurLevel5/BlurEditedMorph102.png,Stimuli/BlurLevel5/NumberedMorphs/BlurEditedMorph102.png,Stimuli/BlurLevel5/OriginalBlur/BlurEditedMorph102.png,Stimuli/BlurMorphTrio/EditedMorph102.png,None,None,,,,,1,0,1,0,0,14,14,101,,,,,,,,,,,,,,,,,,,,,,,72,15,2,166,-2.425739316,0.604804739,102,Experiment,,,,,,,,,13,102,0,0,,,,,,,,,,,,,,,914.5736457,915.2536038,914.5736457,915.2536038,100,1583448179,1583448181,2.05397296,1583448176,1583448179,,,HE,1,22,male,undergrad,2020_Mar_05_1428,AdjustEyeTrack,3.1.5,60.6067203
10,Stimuli/Morph10.JPG,Stimuli/Morph10.png,Stimuli/BlurLevel5/BlurEditedMorph10,Stimuli/BlurLevel5/BlurEditedMorph10.png,Stimuli/BlurLevel5/NumberedMorphs/BlurEditedMorph10.png,Stimuli/BlurLevel5/OriginalBlur/BlurEditedMorph10.png,Stimuli/BlurMorphTrio/EditedMorph10.png,010016right.gif,Stimuli/normal_thumbnails/10right.gif,,,,,1,0,1,0,0,15,15,9,,,,,,,,,,,,,,,,,,,,,,,40,16,2,300,1.25,-2.165063509,10,Experiment,,,,,,,,,55,143,-133,14,,,,,,,,,,,,,,,919.9555678,920.6540865,919.9555678,920.6540865,80.95238095,1583448184,1583448186,2.212651968,1583448181,1583448184,,,HE,1,22,male,undergrad,2020_Mar_05_1428,AdjustEyeTrack,3.1.5,60.6067203
66,Stimuli/Morph66.JPG,Stimuli/Morph66.png,Stimuli/BlurLevel5/BlurEditedMorph66,Stimuli/BlurLevel5/BlurEditedMorph66.png,Stimuli/BlurLevel5/NumberedMorphs/BlurEditedMorph66.png,Stimuli/BlurLevel5/OriginalBlur/BlurEditedMorph66.png,Stimuli/BlurMorphTrio/EditedMorph66.png,020212right.gif,Stimuli/normal_thumbnails/66right.gif,,,,,1,0,1,0,0,16,16,65,,,,,,,,,,,,,,,,,,,,,,,95,17,2,9,2.469220851,0.391086163,66,Experiment,,,,,,,,,51,134,-68,-68,,,,,,,,,,,,,,,925.7003859,926.4123401,925.7003859,926.4123401,7.482993197,1583448190,1583448196,6.016805887,1583448187,1583448190,,,HE,1,22,male,undergrad,2020_Mar_05_1428,AdjustEyeTrack,3.1.5,60.6067203
97,Stimuli/Morph97.JPG,Stimuli/Morph97.png,Stimuli/BlurLevel5/BlurEditedMorph97,Stimuli/BlurLevel5/BlurEditedMorph97.png,Stimuli/BlurLevel5/NumberedMorphs/BlurEditedMorph97.png,Stimuli/BlurLevel5/OriginalBlur/BlurEditedMorph97.png,Stimuli/BlurMorphTrio/EditedMorph97.png,020294right.gif,Stimuli/normal_thumbnails/97right.gif,,,,,1,0,1,0,0,17,17,96,,,,,,,,,,,,,,,,,,,,,,,75,18,2,81,0.391086163,2.469220851,97,Experiment,,,,,,,,,39,98,-1,-1,,,,,,,,,,,,,,,934.8554118,935.5242694,934.8554118,935.5242694,98.63945578,1583448199,1583448201,1.699879885,1583448196,1583448199,,,HE,1,22,male,undergrad,2020_Mar_05_1428,AdjustEyeTrack,3.1.5,60.6067203
77,Stimuli/Morph77.JPG,Stimuli/Morph77.png,Stimuli/BlurLevel5/BlurEditedMorph77,Stimuli/BlurLevel5/BlurEditedMorph77.png,Stimuli/BlurLevel5/NumberedMorphs/BlurEditedMorph77.png,Stimuli/BlurLevel5/OriginalBlur/BlurEditedMorph77.png,Stimuli/BlurMorphTrio/EditedMorph77.png,020235right.gif,Stimuli/normal_thumbnails/77right.gif,,,,,1,0,1,0,0,18,18,76,,,,,,,,,,,,,,,,,,,,,,,90,19,2,284,0.604804739,-2.425739316,77,Experiment,,,,,,,,,87,68,9,9,,,,,,,,,,,,,,,939.7538845,940.4389967,939.7538845,940.4389967,87.75510204,1583448204,1583448206,2.731283188,1583448201,1583448204,,,HE,1,22,male,undergrad,2020_Mar_05_1428,AdjustEyeTrack,3.1.5,60.6067203
147,Stimuli/Morph147.JPG,Stimuli/Morph147.png,Stimuli/BlurLevel5/BlurEditedMorph147,Stimuli/BlurLevel5/BlurEditedMorph147.png,Stimuli/BlurLevel5/NumberedMorphs/BlurEditedMorph147.png,Stimuli/BlurLevel5/OriginalBlur/BlurEditedMorph147.png,Stimuli/BlurMorphTrio/EditedMorph147.png,None,None,,,,,1,0,1,0,0,19,19,146,,,,,,,,,,,,,,,,,,,,,,,91,20,2,24,2.283863644,1.016841608,147,Experiment,,,,,,,,,9,144,3,3,,,,,,,,,,,,,,,945.8356192,946.5295842,945.8356192,946.5295842,95.91836735,1583448210,1583448211,1.581212759,1583448207,1583448210,,,HE,1,22,male,undergrad,2020_Mar_05_1428,AdjustEyeTrack,3.1.5,60.6067203
41,Stimuli/Morph41.JPG,Stimuli/Morph41.png,Stimuli/BlurLevel5/BlurEditedMorph41,Stimuli/BlurLevel5/BlurEditedMorph41.png,Stimuli/BlurLevel5/NumberedMorphs/BlurEditedMorph41.png,Stimuli/BlurLevel5/OriginalBlur/BlurEditedMorph41.png,Stimuli/BlurMorphTrio/EditedMorph41.png,010112right.gif,Stimuli/normal_thumbnails/41right.gif,,,,,1,0,1,0,0,20,20,40,,,,,,,,,,,,,,,,,,,,,,,91,21,2,102,-0.519779227,2.445369002,41,Experiment,,,,,,,,,11,53,-12,-12,,,,,,,,,,,,,,,950.5032379,951.1880813,950.5032379,951.1880813,83.67346939,1583448214,1583448219,4.930054188,1583448212,1583448214,,,HE,1,22,male,undergrad,2020_Mar_05_1428,AdjustEyeTrack,3.1.5,60.6067203
89,Stimuli/Morph89.JPG,Stimuli/Morph89.png,Stimuli/BlurLevel5/BlurEditedMorph89,Stimuli/BlurLevel5/BlurEditedMorph89.png,Stimuli/BlurLevel5/NumberedMorphs/BlurEditedMorph89.png,Stimuli/BlurLevel5/OriginalBlur/BlurEditedMorph89.png,Stimuli/BlurMorphTrio/EditedMorph89.png,020273right.gif,Stimuli/normal_thumbnails/89right.gif,,,,,1,0,1,0,0,21,21,88,,,,,,,,,,,,,,,,,,,,,,,67,22,2,185,-2.490486745,-0.217889357,89,Experiment,,,,,,,,,43,103,-14,-14,,,,,,,,,,,,,,,958.7866516,959.4703891,958.7866516,959.4703891,80.95238095,1583448223,1583448226,3.016472816,1583448220,1583448223,,,HE,1,22,male,undergrad,2020_Mar_05_1428,AdjustEyeTrack,3.1.5,60.6067203
75,Stimuli/Morph75.JPG,Stimuli/Morph75.png,Stimuli/BlurLevel5/BlurEditedMorph75,Stimuli/BlurLevel5/BlurEditedMorph75.png,Stimuli/BlurLevel5/NumberedMorphs/BlurEditedMorph75.png,Stimuli/BlurLevel5/OriginalBlur/BlurEditedMorph75.png,Stimuli/BlurMorphTrio/EditedMorph75.png,020233right.gif,Stimuli/normal_thumbnails/75right.gif,,,,,1,0,1,0,0,22,22,74,,,,,,,,,,,,,,,,,,,,,,,20,23,2,10,2.462019383,0.434120444,75,Experiment,,,,,,,,,25,77,-2,-2,,,,,,,,,,,,,,,965.0322628,965.719766,965.0322628,965.719766,97.27891156,1583448229,1583448231,2.001999855,1583448226,1583448229,,,HE,1,22,male,undergrad,2020_Mar_05_1428,AdjustEyeTrack,3.1.5,60.6067203
68,Stimuli/Morph68.JPG,Stimuli/Morph68.png,Stimuli/BlurLevel5/BlurEditedMorph68,Stimuli/BlurLevel5/BlurEditedMorph68.png,Stimuli/BlurLevel5/NumberedMorphs/BlurEditedMorph68.png,Stimuli/BlurLevel5/OriginalBlur/BlurEditedMorph68.png,Stimuli/BlurMorphTrio/EditedMorph68.png,020218right.gif,Stimuli/normal_thumbnails/68right.gif,,,,,1,0,1,0,0,23,23,67,,,,,,,,,,,,,,,,,,,,,,,94,24,2,220,-1.915111108,-1.606969024,68,Experiment,,,,,,,,,141,57,11,11,,,,,,,,,,,,,,,970.53146,971.2280506,970.53146,971.2280506,85.03401361,1583448234,1583448237,2.85081172,1583448232,1583448234,,,HE,1,22,male,undergrad,2020_Mar_05_1428,AdjustEyeTrack,3.1.5,60.6067203
17,Stimuli/Morph17.JPG,Stimuli/Morph17.png,Stimuli/BlurLevel5/BlurEditedMorph17,Stimuli/BlurLevel5/BlurEditedMorph17.png,Stimuli/BlurLevel5/NumberedMorphs/BlurEditedMorph17.png,Stimuli/BlurLevel5/OriginalBlur/BlurEditedMorph17.png,Stimuli/BlurMorphTrio/EditedMorph17.png,010036right.gif,Stimuli/normal_thumbnails/17right.gif,,,,,1,0,1,0,0,24,24,16,,,,,,,,,,,,,,,,,,,,,,,57,25,2,13,2.435925162,0.562377636,17,Experiment,,,,,,,,,67,143,-126,21,,,,,,,,,,,,,,,976.7531153,977.4602503,976.7531153,977.4602503,71.42857143,1583448241,1583448243,2.214428186,1583448238,1583448241,,,HE,1,22,male,undergrad,2020_Mar_05_1428,AdjustEyeTrack,3.1.5,60.6067203
73,Stimuli/Morph73.JPG,Stimuli/Morph73.png,Stimuli/BlurLevel5/BlurEditedMorph73,Stimuli/BlurLevel5/BlurEditedMorph73.png,Stimuli/BlurLevel5/NumberedMorphs/BlurEditedMorph73.png,Stimuli/BlurLevel5/OriginalBlur/BlurEditedMorph73.png,Stimuli/BlurMorphTrio/EditedMorph73.png,020230right.gif,Stimuli/normal_thumbnails/73right.gif,,,,,1,0,1,0,0,25,25,72,,,,,,,,,,,,,,,,,,,,,,,91,26,2,74,0.68909339,2.40315424,73,Experiment,,,,,,,,,95,54,19,19,,,,,,,,,,,,,,,982.3507997,983.0660297,982.3507997,983.0660297,74.14965986,1583448246,1583448249,2.41695714,1583448244,1583448246,,,HE,1,22,male,undergrad,2020_Mar_05_1428,AdjustEyeTrack,3.1.5,60.6067203
47,Stimuli/Morph47.JPG,Stimuli/Morph47.png,Stimuli/BlurLevel5/BlurEditedMorph47,Stimuli/BlurLevel5/BlurEditedMorph47.png,Stimuli/BlurLevel5/NumberedMorphs/BlurEditedMorph47.png,Stimuli/BlurLevel5/OriginalBlur/BlurEditedMorph47.png,Stimuli/BlurMorphTrio/EditedMorph47.png,010130right.gif,Stimuli/normal_thumbnails/47right.gif,,,,,1,0,1,0,0,26,26,46,,,,,,,,,,,,,,,,,,,,,,,37,27,2,304,1.397982259,-2.072593931,47,Experiment,,,,,,,,,53,53,-6,-6,,,,,,,,,,,,,,,988.0899953,988.7859874,988.0899953,988.7859874,91.83673469,1583448252,1583448253,0.518543005,1583448249,1583448252,,,HE,1,22,male,undergrad,2020_Mar_05_1428,AdjustEyeTrack,3.1.5,60.6067203
103,Stimuli/Morph103.JPG,Stimuli/Morph103.png,Stimuli/BlurLevel5/BlurEditedMorph103,Stimuli/BlurLevel5/BlurEditedMorph103.png,Stimuli/BlurLevel5/NumberedMorphs/BlurEditedMorph103.png,Stimuli/BlurLevel5/OriginalBlur/BlurEditedMorph103.png,Stimuli/BlurMorphTrio/EditedMorph103.png,None,None,,,,,1,0,1,0,0,27,27,102,,,,,,,,,,,,,,,,,,,,,,,41,28,2,273,0.130839891,-2.496573837,103,Experiment,,,,,,,,,7,103,0,0,,,,,,,,,,,,,,,991.8828795,992.5688597,991.8828795,992.5688597,100,1583448256,1583448258,2.027547836,1583448253,1583448256,,,HE,1,22,male,undergrad,2020_Mar_05_1428,AdjustEyeTrack,3.1.5,60.6067203
82,Stimuli/Morph82.JPG,Stimuli/Morph82.png,Stimuli/BlurLevel5/BlurEditedMorph82,Stimuli/BlurLevel5/BlurEditedMorph82.png,Stimuli/BlurLevel5/NumberedMorphs/BlurEditedMorph82.png,Stimuli/BlurLevel5/OriginalBlur/BlurEditedMorph82.png,Stimuli/BlurMorphTrio/EditedMorph82.png,020247right.gif,Stimuli/normal_thumbnails/82right.gif,,,,,1,0,1,0,0,28,28,81,,,,,,,,,,,,,,,,,,,,,,,43,29,2,356,2.493910126,-0.174391184,82,Experiment,,,,,,,,,39,108,-26,-26,,,,,,,,,,,,,,,997.1654431,997.8463245,997.1654431,997.8463245,64.62585034,1583448261,1583448263,1.734508991,1583448258,1583448261,,,HE,1,22,male,undergrad,2020_Mar_05_1428,AdjustEyeTrack,3.1.5,60.6067203
117,Stimuli/Morph117.JPG,Stimuli/Morph117.png,Stimuli/BlurLevel5/BlurEditedMorph117,Stimuli/BlurLevel5/BlurEditedMorph117.png,Stimuli/BlurLevel5/NumberedMorphs/BlurEditedMorph117.png,Stimuli/BlurLevel5/OriginalBlur/BlurEditedMorph117.png,Stimuli/BlurMorphTrio/EditedMorph117.png,None,None,,,,,1,0,1,0,0,29,29,116,,,,,,,,,,,,,,,,,,,,,,,47,30,2,75,0.647047613,2.414814566,117,Experiment,,,,,,,,,139,105,12,12,,,,,,,,,,,,,,,1002.422047,1003.128135,1002.422047,1003.128135,83.67346939,1583448266,1583448269,2.801110029,1583448263,1583448266,,,HE,1,22,male,undergrad,2020_Mar_05_1428,AdjustEyeTrack,3.1.5,60.6067203
39,Stimuli/Morph39.JPG,Stimuli/Morph39.png,Stimuli/BlurLevel5/BlurEditedMorph39,Stimuli/BlurLevel5/BlurEditedMorph39.png,Stimuli/BlurLevel5/NumberedMorphs/BlurEditedMorph39.png,Stimuli/BlurLevel5/OriginalBlur/BlurEditedMorph39.png,Stimuli/BlurMorphTrio/EditedMorph39.png,010109right.gif,Stimuli/normal_thumbnails/39right.gif,,,,,1,0,1,0,0,30,30,38,,,,,,,,,,,,,,,,,,,,,,,3,31,2,0,2.5,0,39,Experiment,,,,,,,,,32,32,7,7,,,,,,,,,,,,,,,1008.610608,1009.309155,1008.610608,1009.309155,90.47619048,1583448273,1583448274,1.015707254,1583448270,1583448273,,,HE,1,22,male,undergrad,2020_Mar_05_1428,AdjustEyeTrack,3.1.5,60.6067203
36,Stimuli/Morph36.JPG,Stimuli/Morph36.png,Stimuli/BlurLevel5/BlurEditedMorph36,Stimuli/BlurLevel5/BlurEditedMorph36.png,Stimuli/BlurLevel5/NumberedMorphs/BlurEditedMorph36.png,Stimuli/BlurLevel5/OriginalBlur/BlurEditedMorph36.png,Stimuli/BlurMorphTrio/EditedMorph36.png,010095right.gif,Stimuli/normal_thumbnails/36right.gif,,,,,1,0,1,0,0,31,31,35,,,,,,,,,,,,,,,,,,,,,,,19,32,2,17,2.39076189,0.730929262,36,Experiment,,,,,,,,,7,48,-12,-12,,,,,,,,,,,,,,,1013.107732,1013.845082,1013.107732,1013.845082,83.67346939,1583448277,1583448280,3.116921186,1583448274,1583448277,,,HE,1,22,male,undergrad,2020_Mar_05_1428,AdjustEyeTrack,3.1.5,60.6067203
137,Stimuli/Morph137.JPG,Stimuli/Morph137.png,Stimuli/BlurLevel5/BlurEditedMorph137,Stimuli/BlurLevel5/BlurEditedMorph137.png,Stimuli/BlurLevel5/NumberedMorphs/BlurEditedMorph137.png,Stimuli/BlurLevel5/OriginalBlur/BlurEditedMorph137.png,Stimuli/BlurMorphTrio/EditedMorph137.png,None,None,,,,,1,0,1,0,0,32,32,136,,,,,,,,,,,,,,,,,,,,,,,82,33,2,321,1.942864904,-1.573300978,137,Experiment,,,,,,,,,26,138,-1,-1,,,,,,,,,,,,,,,1019.55254,1020.247447,1019.55254,1020.247447,98.63945578,1583448284,1583448288,4.801693916,1583448281,1583448283,,,HE,1,22,male,undergrad,2020_Mar_05_1428,AdjustEyeTrack,3.1.5,60.6067203
6,Stimuli/Morph6.JPG,Stimuli/Morph6.png,Stimuli/BlurLevel5/BlurEditedMorph6,Stimuli/BlurLevel5/BlurEditedMorph6.png,Stimuli/BlurLevel5/NumberedMorphs/BlurEditedMorph6.png,Stimuli/BlurLevel5/OriginalBlur/BlurEditedMorph6.png,Stimuli/BlurMorphTrio/EditedMorph6.png,010012right.gif,Stimuli/normal_thumbnails/6right.gif,,,,,1,0,1,0,0,33,33,5,,,,,,,,,,,,,,,,,,,,,,,27,34,2,176,-2.493910126,0.174391184,6,Experiment,,,,,,,,,97,7,-1,-1,,,,,,,,,,,,,,,1027.722221,1028.413651,1027.722221,1028.413651,98.63945578,1583448292,1583448293,1.817985058,1583448289,1583448292,,,HE,1,22,male,undergrad,2020_Mar_05_1428,AdjustEyeTrack,3.1.5,60.6067203
58,Stimuli/Morph58.JPG,Stimuli/Morph58.png,Stimuli/BlurLevel5/BlurEditedMorph58,Stimuli/BlurLevel5/BlurEditedMorph58.png,Stimuli/BlurLevel5/NumberedMorphs/BlurEditedMorph58.png,Stimuli/BlurLevel5/OriginalBlur/BlurEditedMorph58.png,Stimuli/BlurMorphTrio/EditedMorph58.png,010159right.gif,Stimuli/normal_thumbnails/58right.gif,,,,,1,0,1,0,0,34,34,57,,,,,,,,,,,,,,,,,,,,,,,72,35,2,342,2.377641291,-0.772542486,58,Experiment,,,,,,,,,121,50,8,8,,,,,,,,,,,,,,,1032.777646,1033.469237,1032.777646,1033.469237,89.11564626,1583448297,1583448299,2.566262007,1583448294,1583448297,,,HE,1,22,male,undergrad,2020_Mar_05_1428,AdjustEyeTrack,3.1.5,60.6067203
146,Stimuli/Morph146.JPG,Stimuli/Morph146.png,Stimuli/BlurLevel5/BlurEditedMorph146,Stimuli/BlurLevel5/BlurEditedMorph146.png,Stimuli/BlurLevel5/NumberedMorphs/BlurEditedMorph146.png,Stimuli/BlurLevel5/OriginalBlur/BlurEditedMorph146.png,Stimuli/BlurMorphTrio/EditedMorph146.png,None,None,,,,,1,0,1,0,0,35,35,145,,,,,,,,,,,,,,,,,,,,,,,48,36,2,220,-1.915111108,-1.606969024,146,Experiment,,,,,,,,,80,144,2,2,,,,,,,,,,,,,,,1038.569188,1039.251178,1038.569188,1039.251178,97.27891156,1583448302,1583448304,1.683688164,1583448300,1583448302,,,HE,1,22,male,undergrad,2020_Mar_05_1428,AdjustEyeTrack,3.1.5,60.6067203
9,Stimuli/Morph9.JPG,Stimuli/Morph9.png,Stimuli/BlurLevel5/BlurEditedMorph9,Stimuli/BlurLevel5/BlurEditedMorph9.png,Stimuli/BlurLevel5/NumberedMorphs/BlurEditedMorph9.png,Stimuli/BlurLevel5/OriginalBlur/BlurEditedMorph9.png,Stimuli/BlurMorphTrio/EditedMorph9.png,010015right.gif,Stimuli/normal_thumbnails/9right.gif,,,,,1,0,1,0,0,36,36,8,,,,,,,,,,,,,,,,,,,,,,,51,37,2,241,-1.212024051,-2.186549268,9,Experiment,,,,,,,,,89,141,-132,15,,,,,,,,,,,,,,,1043.637681,1044.339564,1043.637681,1044.339564,79.59183673,1583448308,1583448309,1.686566114,1583448305,1583448308,,,HE,1,22,male,undergrad,2020_Mar_05_1428,AdjustEyeTrack,3.1.5,60.6067203
3,Stimuli/Morph3.JPG,Stimuli/Morph3.png,Stimuli/BlurLevel5/BlurEditedMorph3,Stimuli/BlurLevel5/BlurEditedMorph3.png,Stimuli/BlurLevel5/NumberedMorphs/BlurEditedMorph3.png,Stimuli/BlurLevel5/OriginalBlur/BlurEditedMorph3.png,Stimuli/BlurMorphTrio/EditedMorph3.png,010009right.gif,Stimuli/normal_thumbnails/3right.gif,,,,,1,0,1,0,0,37,37,2,,,,,,,,,,,,,,,,,,,,,,,23,38,2,345,2.414814566,-0.647047613,3,Experiment,,,,,,,,,22,22,-19,-19,,,,,,,,,,,,,,,1048.704609,1049.401056,1048.704609,1049.401056,74.14965986,1583448313,1583448313,0.568146944,1583448310,1583448313,,,HE,1,22,male,undergrad,2020_Mar_05_1428,AdjustEyeTrack,3.1.5,60.6067203
52,Stimuli/Morph52.JPG,Stimuli/Morph52.png,Stimuli/BlurLevel5/BlurEditedMorph52,Stimuli/BlurLevel5/BlurEditedMorph52.png,Stimuli/BlurLevel5/NumberedMorphs/BlurEditedMorph52.png,Stimuli/BlurLevel5/OriginalBlur/BlurEditedMorph52.png,Stimuli/BlurMorphTrio/EditedMorph52.png,010148right.gif,Stimuli/normal_thumbnails/52right.gif,,,,,1,0,1,0,0,38,38,51,,,,,,,,,,,,,,,,,,,,,,,60,39,2,87,0.130839891,2.496573837,52,Experiment,,,,,,,,,2,43,9,9,,,,,,,,,,,,,,,1052.77425,1053.477611,1052.77425,1053.477611,87.75510204,1583448317,1583448318,1.282818079,1583448314,1583448317,,,HE,1,22,male,undergrad,2020_Mar_05_1428,AdjustEyeTrack,3.1.5,60.6067203
2,Stimuli/Morph2.JPG,Stimuli/Morph2.png,Stimuli/BlurLevel5/BlurEditedMorph2,Stimuli/BlurLevel5/BlurEditedMorph2.png,Stimuli/BlurLevel5/NumberedMorphs/BlurEditedMorph2.png,Stimuli/BlurLevel5/OriginalBlur/BlurEditedMorph2.png,Stimuli/BlurMorphTrio/EditedMorph2.png,010006right.gif,Stimuli/normal_thumbnails/2right.gif,,,,,1,0,1,0,0,39,39,1,,,,,,,,,,,,,,,,,,,,,,,36,40,2,351,2.469220851,-0.391086163,2,Experiment,,,,,,,,,85,85,-83,64,,,,,,,,,,,,,,,1057.462713,1058.212137,1057.462713,1058.212137,12.92517007,1583448321,1583448322,0.702825785,1583448319,1583448321,,,HE,1,22,male,undergrad,2020_Mar_05_1428,AdjustEyeTrack,3.1.5,60.6067203
118,Stimuli/Morph118.JPG,Stimuli/Morph118.png,Stimuli/BlurLevel5/BlurEditedMorph118,Stimuli/BlurLevel5/BlurEditedMorph118.png,Stimuli/BlurLevel5/NumberedMorphs/BlurEditedMorph118.png,Stimuli/BlurLevel5/OriginalBlur/BlurEditedMorph118.png,Stimuli/BlurMorphTrio/EditedMorph118.png,None,None,,,,,1,0,1,0,0,40,40,117,,,,,,,,,,,,,,,,,,,,,,,51,41,2,308,1.539153688,-1.970026884,118,Experiment,,,,,,,,,35,103,15,15,,,,,,,,,,,,,,,1061.572563,1062.277142,1061.572563,1062.277142,79.59183673,1583448326,1583448327,1.716647863,1583448323,1583448326,,,HE,1,22,male,undergrad,2020_Mar_05_1428,AdjustEyeTrack,3.1.5,60.6067203
72,Stimuli/Morph72.JPG,Stimuli/Morph72.png,Stimuli/BlurLevel5/BlurEditedMorph72,Stimuli/BlurLevel5/BlurEditedMorph72.png,Stimuli/BlurLevel5/NumberedMorphs/BlurEditedMorph72.png,Stimuli/BlurLevel5/OriginalBlur/BlurEditedMorph72.png,Stimuli/BlurMorphTrio/EditedMorph72.png,020227right.gif,Stimuli/normal_thumbnails/72right.gif,,,,,1,0,1,0,0,41,41,71,,,,,,,,,,,,,,,,,,,,,,,98,42,2,2,2.498477068,0.087248742,72,Experiment,,,,,,,,,72,72,0,0,,,,,,,,,,,,,,,1066.695992,1067.402925,1066.695992,1067.402925,100,1583448331,1583448331,0.553441048,1583448328,1583448331,,,HE,1,22,male,undergrad,2020_Mar_05_1428,AdjustEyeTrack,3.1.5,60.6067203
61,Stimuli/Morph61.JPG,Stimuli/Morph61.png,Stimuli/BlurLevel5/BlurEditedMorph61,Stimuli/BlurLevel5/BlurEditedMorph61.png,Stimuli/BlurLevel5/NumberedMorphs/BlurEditedMorph61.png,Stimuli/BlurLevel5/OriginalBlur/BlurEditedMorph61.png,Stimuli/BlurMorphTrio/EditedMorph61.png,020201right.gif,Stimuli/normal_thumbnails/61right.gif,,,,,1,0,1,0,0,42,42,60,,,,,,,,,,,,,,,,,,,,,,,2,43,2,247,-0.976827821,-2.301262134,61,Experiment,,,,,,,,,144,47,14,14,,,,,,,,,,,,,,,1070.453318,1071.134713,1070.453318,1071.134713,80.95238095,1583448334,1583448336,1.590474844,1583448332,1583448334,,,HE,1,22,male,undergrad,2020_Mar_05_1428,AdjustEyeTrack,3.1.5,60.6067203
96,Stimuli/Morph96.JPG,Stimuli/Morph96.png,Stimuli/BlurLevel5/BlurEditedMorph96,Stimuli/BlurLevel5/BlurEditedMorph96.png,Stimuli/BlurLevel5/NumberedMorphs/BlurEditedMorph96.png,Stimuli/BlurLevel5/OriginalBlur/BlurEditedMorph96.png,Stimuli/BlurMorphTrio/EditedMorph96.png,020292right.gif,Stimuli/normal_thumbnails/96right.gif,,,,,1,0,1,0,0,43,43,95,,,,,,,,,,,,,,,,,,,,,,,14,44,2,25,2.265769468,1.056545654,96,Experiment,,,,,,,,,68,110,-14,-14,,,,,,,,,,,,,,,1075.392715,1076.093373,1075.392715,1076.093373,80.95238095,1583448339,1583448341,1.234010935,1583448337,1583448339,,,HE,1,22,male,undergrad,2020_Mar_05_1428,AdjustEyeTrack,3.1.5,60.6067203
106,Stimuli/Morph106.JPG,Stimuli/Morph106.png,Stimuli/BlurLevel5/BlurEditedMorph106,Stimuli/BlurLevel5/BlurEditedMorph106.png,Stimuli/BlurLevel5/NumberedMorphs/BlurEditedMorph106.png,Stimuli/BlurLevel5/OriginalBlur/BlurEditedMorph106.png,Stimuli/BlurMorphTrio/EditedMorph106.png,None,None,,,,,1,0,1,0,0,44,44,105,,,,,,,,,,,,,,,,,,,,,,,9,45,2,192,-2.445369002,-0.519779227,106,Experiment,,,,,,,,,124,124,-18,-18,,,,,,,,,,,,,,,1079.638588,1080.3042,1079.638588,1080.3042,75.51020408,1583448344,1583448345,1.09957242,1583448341,1583448344,,,HE,1,22,male,undergrad,2020_Mar_05_1428,AdjustEyeTrack,3.1.5,60.6067203
81,Stimuli/Morph81.JPG,Stimuli/Morph81.png,Stimuli/BlurLevel5/BlurEditedMorph81,Stimuli/BlurLevel5/BlurEditedMorph81.png,Stimuli/BlurLevel5/NumberedMorphs/BlurEditedMorph81.png,Stimuli/BlurLevel5/OriginalBlur/BlurEditedMorph81.png,Stimuli/BlurMorphTrio/EditedMorph81.png,020245right.gif,Stimuli/normal_thumbnails/81right.gif,,,,,1,0,1,0,0,45,45,80,,,,,,,,,,,,,,,,,,,,,,,40,46,2,79,0.477022488,2.454067959,81,Experiment,,,,,,,,,88,88,-7,-7,,,,,,,,,,,,,,,1084.027529,1084.713014,1084.027529,1084.713014,90.47619048,1583448348,1583448348,0.438277245,1583448345,1583448348,,,HE,1,22,male,undergrad,2020_Mar_05_1428,AdjustEyeTrack,3.1.5,60.6067203
11,Stimuli/Morph11.JPG,Stimuli/Morph11.png,Stimuli/BlurLevel5/BlurEditedMorph11,Stimuli/BlurLevel5/BlurEditedMorph11.png,Stimuli/BlurLevel5/NumberedMorphs/BlurEditedMorph11.png,Stimuli/BlurLevel5/OriginalBlur/BlurEditedMorph11.png,Stimuli/BlurMorphTrio/EditedMorph11.png,010024right.gif,Stimuli/normal_thumbnails/11right.gif,,,,,1,0,1,0,0,46,46,10,,,,,,,,,,,,,,,,,,,,,,,69,47,2,189,-2.469220851,-0.391086163,11,Experiment,,,,,,,,,113,134,-123,24,,,,,,,,,,,,,,,1087.886986,1088.595627,1087.886986,1088.595627,67.34693878,1583448352,1583448354,1.767584085,1583448349,1583448352,,,HE,1,22,male,undergrad,2020_Mar_05_1428,AdjustEyeTrack,3.1.5,60.6067203
53,Stimuli/Morph53.JPG,Stimuli/Morph53.png,Stimuli/BlurLevel5/BlurEditedMorph53,Stimuli/BlurLevel5/BlurEditedMorph53.png,Stimuli/BlurLevel5/NumberedMorphs/BlurEditedMorph53.png,Stimuli/BlurLevel5/OriginalBlur/BlurEditedMorph53.png,Stimuli/BlurMorphTrio/EditedMorph53.png,010149right.gif,Stimuli/normal_thumbnails/53right.gif,,,,,1,0,1,0,0,47,47,52,,,,,,,,,,,,,,,,,,,,,,,66,48,2,273,0.130839891,-2.496573837,53,Experiment,,,,,,,,,79,48,5,5,,,,,,,,,,,,,,,1092.810818,1093.518589,1092.810818,1093.518589,93.19727891,1583448357,1583448359,2.383232832,1583448354,1583448357,,,HE,1,22,male,undergrad,2020_Mar_05_1428,AdjustEyeTrack,3.1.5,60.6067203
112,Stimuli/Morph112.JPG,Stimuli/Morph112.png,Stimuli/BlurLevel5/BlurEditedMorph112,Stimuli/BlurLevel5/BlurEditedMorph112.png,Stimuli/BlurLevel5/NumberedMorphs/BlurEditedMorph112.png,Stimuli/BlurLevel5/OriginalBlur/BlurEditedMorph112.png,Stimuli/BlurMorphTrio/EditedMorph112.png,None,None,,,,,1,0,1,0,0,48,48,111,,,,,,,,,,,,,,,,,,,,,,,69,49,2,59,1.287595187,2.142918252,112,Experiment,,,,,,,,,139,93,19,19,,,,,,,,,,,,,,,1098.482313,1099.194833,1098.482313,1099.194833,74.14965986,1583448362,1583448364,1.482084036,1583448360,1583448362,,,HE,1,22,male,undergrad,2020_Mar_05_1428,AdjustEyeTrack,3.1.5,60.6067203
27,Stimuli/Morph27.JPG,Stimuli/Morph27.png,Stimuli/BlurLevel5/BlurEditedMorph27,Stimuli/BlurLevel5/BlurEditedMorph27.png,Stimuli/BlurLevel5/NumberedMorphs/BlurEditedMorph27.png,Stimuli/BlurLevel5/OriginalBlur/BlurEditedMorph27.png,Stimuli/BlurMorphTrio/EditedMorph27.png,010072right.gif,Stimuli/normal_thumbnails/27right.gif,,,,,1,0,1,0,0,49,49,26,,,,,,,,,,,,,,,,,,,,,,,86,50,2,205,-2.265769468,-1.056545654,27,Experiment,,,,,,,,,11,18,9,9,,,,,,,,,,,,,,,1103.298642,1103.988215,1103.298642,1103.988215,87.75510204,1583448367,1583448369,1.35295701,1583448364,1583448367,,,HE,1,22,male,undergrad,2020_Mar_05_1428,AdjustEyeTrack,3.1.5,60.6067203
85,Stimuli/Morph85.JPG,Stimuli/Morph85.png,Stimuli/BlurLevel5/BlurEditedMorph85,Stimuli/BlurLevel5/BlurEditedMorph85.png,Stimuli/BlurLevel5/NumberedMorphs/BlurEditedMorph85.png,Stimuli/BlurLevel5/OriginalBlur/BlurEditedMorph85.png,Stimuli/BlurMorphTrio/EditedMorph85.png,020264right.gif,Stimuli/normal_thumbnails/85right.gif,,,,,1,0,1,0,0,50,50,84,,,,,,,,,,,,,,,,,,,,,,,63,51,2,189,-2.469220851,-0.391086163,85,Experiment,,,,,,,,,11,100,-15,-15,,,,,,,,,,,,,,,1107.85798,1108.538156,1107.85798,1108.538156,79.59183673,1583448372,1583448374,2.267154932,1583448369,1583448372,,,HE,1,22,male,undergrad,2020_Mar_05_1428,AdjustEyeTrack,3.1.5,60.6067203
124,Stimuli/Morph124.JPG,Stimuli/Morph124.png,Stimuli/BlurLevel5/BlurEditedMorph124,Stimuli/BlurLevel5/BlurEditedMorph124.png,Stimuli/BlurLevel5/NumberedMorphs/BlurEditedMorph124.png,Stimuli/BlurLevel5/OriginalBlur/BlurEditedMorph124.png,Stimuli/BlurMorphTrio/EditedMorph124.png,None,None,,,,,1,0,1,0,0,51,51,123,,,,,,,,,,,,,,,,,,,,,,,35,52,2,263,-0.304673359,-2.481365379,124,Experiment,,,,,,,,,72,106,18,18,,,,,,,,,,,,,,,1113.330024,1114.025444,1113.330024,1114.025444,75.51020408,1583448377,1583448379,1.56805706,1583448375,1583448377,,,HE,1,22,male,undergrad,2020_Mar_05_1428,AdjustEyeTrack,3.1.5,60.6067203
8,Stimuli/Morph8.JPG,Stimuli/Morph8.png,Stimuli/BlurLevel5/BlurEditedMorph8,Stimuli/BlurLevel5/BlurEditedMorph8.png,Stimuli/BlurLevel5/NumberedMorphs/BlurEditedMorph8.png,Stimuli/BlurLevel5/OriginalBlur/BlurEditedMorph8.png,Stimuli/BlurMorphTrio/EditedMorph8.png,010014right.gif,Stimuli/normal_thumbnails/8right.gif,,,,,1,0,1,0,0,52,52,7,,,,,,,,,,,,,,,,,,,,,,,86,53,2,302,1.324798161,-2.12012024,8,Experiment,,,,,,,,,146,7,1,1,,,,,,,,,,,,,,,1118.096858,1118.801909,1118.096858,1118.801909,98.63945578,1583448382,1583448386,3.799499035,1583448379,1583448382,,,HE,1,22,male,undergrad,2020_Mar_05_1428,AdjustEyeTrack,3.1.5,60.6067203
60,Stimuli/Morph60.JPG,Stimuli/Morph60.png,Stimuli/BlurLevel5/BlurEditedMorph60,Stimuli/BlurLevel5/BlurEditedMorph60.png,Stimuli/BlurLevel5/NumberedMorphs/BlurEditedMorph60.png,Stimuli/BlurLevel5/OriginalBlur/BlurEditedMorph60.png,Stimuli/BlurMorphTrio/EditedMorph60.png,020200right.gif,Stimuli/normal_thumbnails/60right.gif,,,,,1,0,1,0,0,53,53,59,,,,,,,,,,,,,,,,,,,,,,,76,54,2,255,-0.647047613,-2.414814566,60,Experiment,,,,,,,,,67,51,9,9,,,,,,,,,,,,,,,1124.880108,1125.54315,1124.880108,1125.54315,87.75510204,1583448389,1583448390,1.177459002,1583448386,1583448389,,,HE,1,22,male,undergrad,2020_Mar_05_1428,AdjustEyeTrack,3.1.5,60.6067203
56,Stimuli/Morph56.JPG,Stimuli/Morph56.png,Stimuli/BlurLevel5/BlurEditedMorph56,Stimuli/BlurLevel5/BlurEditedMorph56.png,Stimuli/BlurLevel5/NumberedMorphs/BlurEditedMorph56.png,Stimuli/BlurLevel5/OriginalBlur/BlurEditedMorph56.png,Stimuli/BlurMorphTrio/EditedMorph56.png,010157right.gif,Stimuli/normal_thumbnails/56right.gif,,,,,1,0,1,0,0,54,54,55,,,,,,,,,,,,,,,,,,,,,,,89,55,2,138,-1.857862064,1.672826516,56,Experiment,,,,,,,,,140,47,9,9,,,,,,,,,,,,,,,1129.288854,1129.985637,1129.288854,1129.985637,87.75510204,1583448393,1583448395,1.700566053,1583448391,1583448393,,,HE,1,22,male,undergrad,2020_Mar_05_1428,AdjustEyeTrack,3.1.5,60.6067203
64,Stimuli/Morph64.JPG,Stimuli/Morph64.png,Stimuli/BlurLevel5/BlurEditedMorph64,Stimuli/BlurLevel5/BlurEditedMorph64.png,Stimuli/BlurLevel5/NumberedMorphs/BlurEditedMorph64.png,Stimuli/BlurLevel5/OriginalBlur/BlurEditedMorph64.png,Stimuli/BlurMorphTrio/EditedMorph64.png,020208right.gif,Stimuli/normal_thumbnails/64right.gif,,,,,1,0,1,0,0,55,55,63,,,,,,,,,,,,,,,,,,,,,,,48,56,2,139,-1.886773951,1.640147572,64,Experiment,,,,,,,,,143,50,14,14,,,,,,,,,,,,,,,1134.235149,1134.918945,1134.235149,1134.918945,80.95238095,1583448398,1583448399,1.316048145,1583448395,1583448398,,,HE,1,22,male,undergrad,2020_Mar_05_1428,AdjustEyeTrack,3.1.5,60.6067203
138,Stimuli/Morph138.JPG,Stimuli/Morph138.png,Stimuli/BlurLevel5/BlurEditedMorph138,Stimuli/BlurLevel5/BlurEditedMorph138.png,Stimuli/BlurLevel5/NumberedMorphs/BlurEditedMorph138.png,Stimuli/BlurLevel5/OriginalBlur/BlurEditedMorph138.png,Stimuli/BlurMorphTrio/EditedMorph138.png,None,None,,,,,1,0,1,0,0,56,56,137,,,,,,,,,,,,,,,,,,,,,,,73,57,2,279,0.391086163,-2.469220851,138,Experiment,,,,,,,,,138,143,-5,-5,,,,,,,,,,,,,,,1138.654211,1139.345188,1138.654211,1139.345188,93.19727891,1583448403,1583448405,2.419938087,1583448400,1583448403,,,HE,1,22,male,undergrad,2020_Mar_05_1428,AdjustEyeTrack,3.1.5,60.6067203
48,Stimuli/Morph48.JPG,Stimuli/Morph48.png,Stimuli/BlurLevel5/BlurEditedMorph48,Stimuli/BlurLevel5/BlurEditedMorph48.png,Stimuli/BlurLevel5/NumberedMorphs/BlurEditedMorph48.png,Stimuli/BlurLevel5/OriginalBlur/BlurEditedMorph48.png,Stimuli/BlurMorphTrio/EditedMorph48.png,010131right.gif,Stimuli/normal_thumbnails/48right.gif,,,,,1,0,1,0,0,57,57,47,,,,,,,,,,,,,,,,,,,,,,,53,58,2,280,0.434120444,-2.462019383,48,Experiment,,,,,,,,,83,49,-1,-1,,,,,,,,,,,,,,,1144.484853,1145.196231,1144.484853,1145.196231,98.63945578,1583448408,1583448411,2.249820948,1583448406,1583448408,,,HE,1,22,male,undergrad,2020_Mar_05_1428,AdjustEyeTrack,3.1.5,60.6067203
100,Stimuli/Morph100.JPG,Stimuli/Morph100.png,Stimuli/BlurLevel5/BlurEditedMorph100,Stimuli/BlurLevel5/BlurEditedMorph100.png,Stimuli/BlurLevel5/NumberedMorphs/BlurEditedMorph100.png,Stimuli/BlurLevel5/OriginalBlur/BlurEditedMorph100.png,Stimuli/BlurMorphTrio/EditedMorph100.png,020297right.gif,Stimuli/normal_thumbnails/100right.gif,,,,,1,0,1,0,0,58,58,99,,,,,,,,,,,,,,,,,,,,,,,38,59,2,207,-2.22751631,-1.134976249,100,Experiment,,,,,,,,,109,109,-9,-9,,,,,,,,,,,,,,,1150.092697,1150.782896,1150.092697,1150.782896,87.75510204,1583448414,1583448415,0.63722682,1583448411,1583448414,,,HE,1,22,male,undergrad,2020_Mar_05_1428,AdjustEyeTrack,3.1.5,60.6067203
