stimulusID,stimulus_JPG,stimulusPath,stimulusPath2,stimulusPath3,stimulusPath4,stimulusPath5,stimulusPath6,xRayOriginal,xRayPath,Blocks.thisRepN,Blocks.thisTrialN,Blocks.thisN,Blocks.thisIndex,Trials.thisRepN,Trials.thisTrialN,Trials.thisN,Trials.thisIndex,text_2.started,text_2.stopped,xrayID,blockNumber,trialNumber,stimLocationDeg,stimXCoord,stimYCoord,stimulusID,xray1.started,xray1.stopped,tumors.started,tumors.stopped,trialCorrect%,startRespTime,endRespTime,RT,morphTrack,morphID,errorRaw,errorCorrected,startStimTime,endStimTime,key_resp.keys,key_resp.rt,participant,session,age,gender,status,date,expName,psychopyVersion,frameRate,blockType
123,Stimuli/Morph123.JPG,Stimuli/Morph123.png,Stimuli/BlurLevel5/BlurEditedMorph123,Stimuli/BlurLevel5/BlurEditedMorph123.png,Stimuli/BlurLevel5/NumberedMorphs/BlurEditedMorph123.png,Stimuli/BlurLevel5/OriginalBlur/BlurEditedMorph123.png,Stimuli/BlurMorphTrio/EditedMorph123.png,None,None,0,0,0,0,0,0,0,122,42.70465702,None,85,1,1,265,-0.217889357,-2.490486745,123,61.66877539,62.17182617,61.66877539,62.17182617,82.31292517,1574464293,1574464296,3.300072908,50,110,13,13,1574464291,1574464293,,,HL,1,21,F,Undergrad,2019_Nov_22_1511,AdjustExp1,3.1.5,59.96149165,Experiment
133,Stimuli/Morph133.JPG,Stimuli/Morph133.png,Stimuli/BlurLevel5/BlurEditedMorph133,Stimuli/BlurLevel5/BlurEditedMorph133.png,Stimuli/BlurLevel5/NumberedMorphs/BlurEditedMorph133.png,Stimuli/BlurLevel5/OriginalBlur/BlurEditedMorph133.png,Stimuli/BlurMorphTrio/EditedMorph133.png,None,None,0,0,0,0,0,1,1,132,,,69,1,2,35,2.047880111,1.433941091,133,67.93856037,68.43786776,67.93856037,68.43786776,70.06802721,1574464299,1574464301,2.317329884,109,111,22,22,1574464297,1574464299,,,HL,1,21,F,Undergrad,2019_Nov_22_1511,AdjustExp1,3.1.5,59.96149165,Experiment
117,Stimuli/Morph117.JPG,Stimuli/Morph117.png,Stimuli/BlurLevel5/BlurEditedMorph117,Stimuli/BlurLevel5/BlurEditedMorph117.png,Stimuli/BlurLevel5/NumberedMorphs/BlurEditedMorph117.png,Stimuli/BlurLevel5/OriginalBlur/BlurEditedMorph117.png,Stimuli/BlurMorphTrio/EditedMorph117.png,None,None,0,0,0,0,0,2,2,116,,,60,1,3,48,1.672826516,1.857862064,117,72.73931909,73.23855703,72.73931909,73.23855703,78.23129252,1574464304,1574464305,1.616786242,83,101,16,16,1574464302,1574464304,,,HL,1,21,F,Undergrad,2019_Nov_22_1511,AdjustExp1,3.1.5,59.96149165,Experiment
44,Stimuli/Morph44.JPG,Stimuli/Morph44.png,Stimuli/BlurLevel5/BlurEditedMorph44,Stimuli/BlurLevel5/BlurEditedMorph44.png,Stimuli/BlurLevel5/NumberedMorphs/BlurEditedMorph44.png,Stimuli/BlurLevel5/OriginalBlur/BlurEditedMorph44.png,Stimuli/BlurMorphTrio/EditedMorph44.png,010126right.gif,Stimuli/normal_thumbnails/44right.gif,0,0,0,0,0,3,3,43,,,98,1,4,49,1.640147572,1.886773951,44,76.79459404,77.28786515,76.79459404,77.28786515,91.83673469,1574464308,1574464310,1.850393057,144,38,6,6,1574464306,1574464308,,,HL,1,21,F,Undergrad,2019_Nov_22_1511,AdjustExp1,3.1.5,59.96149165,Experiment
146,Stimuli/Morph146.JPG,Stimuli/Morph146.png,Stimuli/BlurLevel5/BlurEditedMorph146,Stimuli/BlurLevel5/BlurEditedMorph146.png,Stimuli/BlurLevel5/NumberedMorphs/BlurEditedMorph146.png,Stimuli/BlurLevel5/OriginalBlur/BlurEditedMorph146.png,Stimuli/BlurMorphTrio/EditedMorph146.png,None,None,0,0,0,0,0,4,4,145,,,45,1,5,254,-0.68909339,-2.40315424,146,80.85550005,81.35482786,80.85550005,81.35482786,98.63945578,1574464312,1574464314,2.566482067,84,147,-1,-1,1574464310,1574464312,,,HL,1,21,F,Undergrad,2019_Nov_22_1511,AdjustExp1,3.1.5,59.96149165,Experiment
30,Stimuli/Morph30.JPG,Stimuli/Morph30.png,Stimuli/BlurLevel5/BlurEditedMorph30,Stimuli/BlurLevel5/BlurEditedMorph30.png,Stimuli/BlurLevel5/NumberedMorphs/BlurEditedMorph30.png,Stimuli/BlurLevel5/OriginalBlur/BlurEditedMorph30.png,Stimuli/BlurMorphTrio/EditedMorph30.png,010076right.gif,Stimuli/normal_thumbnails/30right.gif,0,0,0,0,0,5,5,29,,,4,1,6,234,-1.469463131,-2.022542486,30,86.13773432,86.63764348,86.13773432,86.63764348,85.03401361,1574464317,1574464320,2.650411844,123,19,11,11,1574464315,1574464317,,,HL,1,21,F,Undergrad,2019_Nov_22_1511,AdjustExp1,3.1.5,59.96149165,Experiment
135,Stimuli/Morph135.JPG,Stimuli/Morph135.png,Stimuli/BlurLevel5/BlurEditedMorph135,Stimuli/BlurLevel5/BlurEditedMorph135.png,Stimuli/BlurLevel5/NumberedMorphs/BlurEditedMorph135.png,Stimuli/BlurLevel5/OriginalBlur/BlurEditedMorph135.png,Stimuli/BlurMorphTrio/EditedMorph135.png,None,None,0,0,0,0,0,6,6,134,,,61,1,7,146,-2.072593931,1.397982259,135,91.61239884,92.10469124,91.61239884,92.10469124,97.27891156,1574464323,1574464325,2.850497961,29,137,-2,-2,1574464320,1574464323,,,HL,1,21,F,Undergrad,2019_Nov_22_1511,AdjustExp1,3.1.5,59.96149165,Experiment
23,Stimuli/Morph23.JPG,Stimuli/Morph23.png,Stimuli/BlurLevel5/BlurEditedMorph23,Stimuli/BlurLevel5/BlurEditedMorph23.png,Stimuli/BlurLevel5/NumberedMorphs/BlurEditedMorph23.png,Stimuli/BlurLevel5/OriginalBlur/BlurEditedMorph23.png,Stimuli/BlurMorphTrio/EditedMorph23.png,010063right.gif,Stimuli/normal_thumbnails/23right.gif,0,0,0,0,0,7,7,22,,,30,1,8,264,-0.261321158,-2.486304738,23,97.09197492,97.58815654,97.09197492,97.58815654,97.27891156,1574464328,1574464333,4.583461046,107,25,-2,-2,1574464326,1574464328,,,HL,1,21,F,Undergrad,2019_Nov_22_1511,AdjustExp1,3.1.5,59.96149165,Experiment
142,Stimuli/Morph142.JPG,Stimuli/Morph142.png,Stimuli/BlurLevel5/BlurEditedMorph142,Stimuli/BlurLevel5/BlurEditedMorph142.png,Stimuli/BlurLevel5/NumberedMorphs/BlurEditedMorph142.png,Stimuli/BlurLevel5/OriginalBlur/BlurEditedMorph142.png,Stimuli/BlurMorphTrio/EditedMorph142.png,None,None,0,0,0,0,0,8,8,141,,,26,1,9,147,-2.09667642,1.361597588,142,103.9377125,104.4375817,103.9377125,104.4375817,97.27891156,1574464335,1574464337,2.283322096,62,140,2,2,1574464333,1574464335,,,HL,1,21,F,Undergrad,2019_Nov_22_1511,AdjustExp1,3.1.5,59.96149165,Experiment
110,Stimuli/Morph110.JPG,Stimuli/Morph110.png,Stimuli/BlurLevel5/BlurEditedMorph110,Stimuli/BlurLevel5/BlurEditedMorph110.png,Stimuli/BlurLevel5/NumberedMorphs/BlurEditedMorph110.png,Stimuli/BlurLevel5/OriginalBlur/BlurEditedMorph110.png,Stimuli/BlurMorphTrio/EditedMorph110.png,None,None,0,0,0,0,0,9,9,109,,,64,1,10,52,1.539153688,1.970026884,110,108.5044697,109.0038836,108.5044697,109.0038836,80.95238095,1574464340,1574464342,2.099830866,18,124,-14,-14,1574464337,1574464339,,,HL,1,21,F,Undergrad,2019_Nov_22_1511,AdjustExp1,3.1.5,59.96149165,Experiment
138,Stimuli/Morph138.JPG,Stimuli/Morph138.png,Stimuli/BlurLevel5/BlurEditedMorph138,Stimuli/BlurLevel5/BlurEditedMorph138.png,Stimuli/BlurLevel5/NumberedMorphs/BlurEditedMorph138.png,Stimuli/BlurLevel5/OriginalBlur/BlurEditedMorph138.png,Stimuli/BlurMorphTrio/EditedMorph138.png,None,None,0,0,0,0,0,10,10,137,,,53,1,11,242,-1.173678907,-2.207368982,138,113.2211423,113.7208337,113.2211423,113.7208337,94.55782313,1574464344,1574464348,4.017532349,145,142,-4,-4,1574464342,1574464344,,,HL,1,21,F,Undergrad,2019_Nov_22_1511,AdjustExp1,3.1.5,59.96149165,Experiment
88,Stimuli/Morph88.JPG,Stimuli/Morph88.png,Stimuli/BlurLevel5/BlurEditedMorph88,Stimuli/BlurLevel5/BlurEditedMorph88.png,Stimuli/BlurLevel5/NumberedMorphs/BlurEditedMorph88.png,Stimuli/BlurLevel5/OriginalBlur/BlurEditedMorph88.png,Stimuli/BlurMorphTrio/EditedMorph88.png,020271right.gif,Stimuli/normal_thumbnails/88right.gif,0,0,0,0,0,11,11,87,,,84,1,12,258,-0.519779227,-2.445369002,88,119.6872518,120.1873987,119.6872518,120.1873987,91.83673469,1574464351,1574464355,3.949364901,141,94,-6,-6,1574464349,1574464351,,,HL,1,21,F,Undergrad,2019_Nov_22_1511,AdjustExp1,3.1.5,59.96149165,Experiment
79,Stimuli/Morph79.JPG,Stimuli/Morph79.png,Stimuli/BlurLevel5/BlurEditedMorph79,Stimuli/BlurLevel5/BlurEditedMorph79.png,Stimuli/BlurLevel5/NumberedMorphs/BlurEditedMorph79.png,Stimuli/BlurLevel5/OriginalBlur/BlurEditedMorph79.png,Stimuli/BlurMorphTrio/EditedMorph79.png,020239right.gif,Stimuli/normal_thumbnails/79right.gif,0,0,0,0,0,12,12,78,,,75,1,13,187,-2.481365379,-0.304673359,79,126.0534949,126.5541077,126.0534949,126.5541077,71.42857143,1574464357,1574464361,3.683828831,34,100,-21,-21,1574464355,1574464357,,,HL,1,21,F,Undergrad,2019_Nov_22_1511,AdjustExp1,3.1.5,59.96149165,Experiment
81,Stimuli/Morph81.JPG,Stimuli/Morph81.png,Stimuli/BlurLevel5/BlurEditedMorph81,Stimuli/BlurLevel5/BlurEditedMorph81.png,Stimuli/BlurLevel5/NumberedMorphs/BlurEditedMorph81.png,Stimuli/BlurLevel5/OriginalBlur/BlurEditedMorph81.png,Stimuli/BlurMorphTrio/EditedMorph81.png,020245right.gif,Stimuli/normal_thumbnails/81right.gif,0,0,0,0,0,13,13,80,,,63,1,14,332,2.207368982,-1.173678907,81,132.3370287,132.8370229,132.3370287,132.8370229,98.63945578,1574464363,1574464366,3.084054947,41,82,-1,-1,1574464361,1574464363,,,HL,1,21,F,Undergrad,2019_Nov_22_1511,AdjustExp1,3.1.5,59.96149165,Experiment
118,Stimuli/Morph118.JPG,Stimuli/Morph118.png,Stimuli/BlurLevel5/BlurEditedMorph118,Stimuli/BlurLevel5/BlurEditedMorph118.png,Stimuli/BlurLevel5/NumberedMorphs/BlurEditedMorph118.png,Stimuli/BlurLevel5/OriginalBlur/BlurEditedMorph118.png,Stimuli/BlurMorphTrio/EditedMorph118.png,None,None,0,0,0,0,0,14,14,117,,,88,1,15,264,-0.261321158,-2.486304738,118,138.1202718,138.6204269,138.1202718,138.6204269,55.10204082,1574464369,1574464373,4.283463955,48,85,33,33,1574464367,1574464369,,,HL,1,21,F,Undergrad,2019_Nov_22_1511,AdjustExp1,3.1.5,59.96149165,Experiment
35,Stimuli/Morph35.JPG,Stimuli/Morph35.png,Stimuli/BlurLevel5/BlurEditedMorph35,Stimuli/BlurLevel5/BlurEditedMorph35.png,Stimuli/BlurLevel5/NumberedMorphs/BlurEditedMorph35.png,Stimuli/BlurLevel5/OriginalBlur/BlurEditedMorph35.png,Stimuli/BlurMorphTrio/EditedMorph35.png,010094right.gif,Stimuli/normal_thumbnails/35right.gif,0,0,0,0,0,15,15,34,,,29,1,16,38,1.970026884,1.539153688,35,145.422013,145.9204022,145.422013,145.9204022,97.27891156,1574464376,1574464379,2.833724022,83,33,2,2,1574464374,1574464376,,,HL,1,21,F,Undergrad,2019_Nov_22_1511,AdjustExp1,3.1.5,59.96149165,Experiment
41,Stimuli/Morph41.JPG,Stimuli/Morph41.png,Stimuli/BlurLevel5/BlurEditedMorph41,Stimuli/BlurLevel5/BlurEditedMorph41.png,Stimuli/BlurLevel5/NumberedMorphs/BlurEditedMorph41.png,Stimuli/BlurLevel5/OriginalBlur/BlurEditedMorph41.png,Stimuli/BlurMorphTrio/EditedMorph41.png,010112right.gif,Stimuli/normal_thumbnails/41right.gif,0,0,0,0,0,16,16,40,,,92,1,17,3,2.496573837,0.130839891,41,151.3870778,151.8872182,151.3870778,151.8872182,93.19727891,1574464382,1574464385,2.53335309,78,46,-5,-5,1574464380,1574464382,,,HL,1,21,F,Undergrad,2019_Nov_22_1511,AdjustExp1,3.1.5,59.96149165,Experiment
31,Stimuli/Morph31.JPG,Stimuli/Morph31.png,Stimuli/BlurLevel5/BlurEditedMorph31,Stimuli/BlurLevel5/BlurEditedMorph31.png,Stimuli/BlurLevel5/NumberedMorphs/BlurEditedMorph31.png,Stimuli/BlurLevel5/OriginalBlur/BlurEditedMorph31.png,Stimuli/BlurMorphTrio/EditedMorph31.png,010079right.gif,Stimuli/normal_thumbnails/31right.gif,0,0,0,0,0,17,17,30,,,28,1,18,177,-2.496573837,0.130839891,31,156.7600076,157.2537875,156.7600076,157.2537875,74.14965986,1574464388,1574464394,5.849199772,56,50,-19,-19,1574464385,1574464388,,,HL,1,21,F,Undergrad,2019_Nov_22_1511,AdjustExp1,3.1.5,59.96149165,Experiment
53,Stimuli/Morph53.JPG,Stimuli/Morph53.png,Stimuli/BlurLevel5/BlurEditedMorph53,Stimuli/BlurLevel5/BlurEditedMorph53.png,Stimuli/BlurLevel5/NumberedMorphs/BlurEditedMorph53.png,Stimuli/BlurLevel5/OriginalBlur/BlurEditedMorph53.png,Stimuli/BlurMorphTrio/EditedMorph53.png,010149right.gif,Stimuli/normal_thumbnails/53right.gif,0,0,0,0,0,18,18,52,,,16,1,19,236,-1.397982259,-2.072593931,53,164.970544,165.47036,164.970544,165.47036,95.91836735,1574464396,1574464399,2.733940125,29,56,-3,-3,1574464394,1574464396,,,HL,1,21,F,Undergrad,2019_Nov_22_1511,AdjustExp1,3.1.5,59.96149165,Experiment
94,Stimuli/Morph94.JPG,Stimuli/Morph94.png,Stimuli/BlurLevel5/BlurEditedMorph94,Stimuli/BlurLevel5/BlurEditedMorph94.png,Stimuli/BlurLevel5/NumberedMorphs/BlurEditedMorph94.png,Stimuli/BlurLevel5/OriginalBlur/BlurEditedMorph94.png,Stimuli/BlurMorphTrio/EditedMorph94.png,020286right.gif,Stimuli/normal_thumbnails/94right.gif,0,0,0,0,0,19,19,93,,,92,1,20,87,0.130839891,2.496573837,94,170.17188,170.6695932,170.17188,170.6695932,87.75510204,1574464401,1574464406,5.0670228,98,103,-9,-9,1574464399,1574464401,,,HL,1,21,F,Undergrad,2019_Nov_22_1511,AdjustExp1,3.1.5,59.96149165,Experiment
85,Stimuli/Morph85.JPG,Stimuli/Morph85.png,Stimuli/BlurLevel5/BlurEditedMorph85,Stimuli/BlurLevel5/BlurEditedMorph85.png,Stimuli/BlurLevel5/NumberedMorphs/BlurEditedMorph85.png,Stimuli/BlurLevel5/OriginalBlur/BlurEditedMorph85.png,Stimuli/BlurMorphTrio/EditedMorph85.png,020264right.gif,Stimuli/normal_thumbnails/85right.gif,0,0,0,0,0,20,20,84,,,50,1,21,220,-1.915111108,-1.606969024,85,177.6024638,178.1032986,177.6024638,178.1032986,89.11564626,1574464409,1574464412,3.083181143,146,93,-8,-8,1574464407,1574464409,,,HL,1,21,F,Undergrad,2019_Nov_22_1511,AdjustExp1,3.1.5,59.96149165,Experiment
95,Stimuli/Morph95.JPG,Stimuli/Morph95.png,Stimuli/BlurLevel5/BlurEditedMorph95,Stimuli/BlurLevel5/BlurEditedMorph95.png,Stimuli/BlurLevel5/NumberedMorphs/BlurEditedMorph95.png,Stimuli/BlurLevel5/OriginalBlur/BlurEditedMorph95.png,Stimuli/BlurMorphTrio/EditedMorph95.png,020287right.gif,Stimuli/normal_thumbnails/95right.gif,0,0,0,0,0,21,21,94,,,72,1,22,280,0.434120444,-2.462019383,95,183.1533107,183.6524958,183.1533107,183.6524958,80.95238095,1574464414,1574464416,2.118068218,21,109,-14,-14,1574464412,1574464414,,,HL,1,21,F,Undergrad,2019_Nov_22_1511,AdjustExp1,3.1.5,59.96149165,Experiment
122,Stimuli/Morph122.JPG,Stimuli/Morph122.png,Stimuli/BlurLevel5/BlurEditedMorph122,Stimuli/BlurLevel5/BlurEditedMorph122.png,Stimuli/BlurLevel5/NumberedMorphs/BlurEditedMorph122.png,Stimuli/BlurLevel5/OriginalBlur/BlurEditedMorph122.png,Stimuli/BlurMorphTrio/EditedMorph122.png,None,None,0,0,0,0,0,22,22,121,,,69,1,23,317,1.828384254,-1.7049959,122,188.1708651,188.669689,188.1708651,188.669689,90.47619048,1574464419,1574464421,1.532859087,9,115,7,7,1574464417,1574464419,,,HL,1,21,F,Undergrad,2019_Nov_22_1511,AdjustExp1,3.1.5,59.96149165,Experiment
5,Stimuli/Morph5.JPG,Stimuli/Morph5.png,Stimuli/BlurLevel5/BlurEditedMorph5,Stimuli/BlurLevel5/BlurEditedMorph5.png,Stimuli/BlurLevel5/NumberedMorphs/BlurEditedMorph5.png,Stimuli/BlurLevel5/OriginalBlur/BlurEditedMorph5.png,Stimuli/BlurMorphTrio/EditedMorph5.png,010011right.gif,Stimuli/normal_thumbnails/5right.gif,0,0,0,0,0,23,23,4,,,81,1,24,253,-0.730929262,-2.39076189,5,192.1527891,192.6530578,192.1527891,192.6530578,86.39455782,1574464423,1574464425,1.350528955,2,142,-137,10,1574464421,1574464423,,,HL,1,21,F,Undergrad,2019_Nov_22_1511,AdjustExp1,3.1.5,59.96149165,Experiment
139,Stimuli/Morph139.JPG,Stimuli/Morph139.png,Stimuli/BlurLevel5/BlurEditedMorph139,Stimuli/BlurLevel5/BlurEditedMorph139.png,Stimuli/BlurLevel5/NumberedMorphs/BlurEditedMorph139.png,Stimuli/BlurLevel5/OriginalBlur/BlurEditedMorph139.png,Stimuli/BlurMorphTrio/EditedMorph139.png,None,None,0,0,0,0,0,24,24,138,,,45,1,25,309,1.573300978,-1.942864904,139,195.8701237,196.3700884,195.8701237,196.3700884,98.63945578,1574464427,1574464432,4.683954,41,140,-1,-1,1574464425,1574464427,,,HL,1,21,F,Undergrad,2019_Nov_22_1511,AdjustExp1,3.1.5,59.96149165,Experiment
7,Stimuli/Morph7.JPG,Stimuli/Morph7.png,Stimuli/BlurLevel5/BlurEditedMorph7,Stimuli/BlurLevel5/BlurEditedMorph7.png,Stimuli/BlurLevel5/NumberedMorphs/BlurEditedMorph7.png,Stimuli/BlurLevel5/OriginalBlur/BlurEditedMorph7.png,Stimuli/BlurMorphTrio/EditedMorph7.png,010013right.gif,Stimuli/normal_thumbnails/7right.gif,0,0,0,0,0,25,25,6,,,60,1,26,235,-1.433941091,-2.047880111,7,203.4905822,203.9862363,203.4905822,203.9862363,93.19727891,1574464434,1574464440,5.932993889,35,12,-5,-5,1574464432,1574464434,,,HL,1,21,F,Undergrad,2019_Nov_22_1511,AdjustExp1,3.1.5,59.96149165,Experiment
101,Stimuli/Morph101.JPG,Stimuli/Morph101.png,Stimuli/BlurLevel5/BlurEditedMorph101,Stimuli/BlurLevel5/BlurEditedMorph101.png,Stimuli/BlurLevel5/NumberedMorphs/BlurEditedMorph101.png,Stimuli/BlurLevel5/OriginalBlur/BlurEditedMorph101.png,Stimuli/BlurMorphTrio/EditedMorph101.png,None,None,0,0,0,0,0,26,26,100,,,71,1,27,154,-2.246985116,1.095927867,101,211.8864703,212.3861602,211.8864703,212.3861602,82.31292517,1574464443,1574464445,2.450572729,28,114,-13,-13,1574464441,1574464443,,,HL,1,21,F,Undergrad,2019_Nov_22_1511,AdjustExp1,3.1.5,59.96149165,Experiment
127,Stimuli/Morph127.JPG,Stimuli/Morph127.png,Stimuli/BlurLevel5/BlurEditedMorph127,Stimuli/BlurLevel5/BlurEditedMorph127.png,Stimuli/BlurLevel5/NumberedMorphs/BlurEditedMorph127.png,Stimuli/BlurLevel5/OriginalBlur/BlurEditedMorph127.png,Stimuli/BlurMorphTrio/EditedMorph127.png,None,None,0,0,0,0,0,27,27,126,,,25,1,28,28,2.207368982,1.173678907,127,216.8689183,217.369465,216.8689183,217.369465,83.67346939,1574464448,1574464449,1.366731167,2,115,12,12,1574464446,1574464448,,,HL,1,21,F,Undergrad,2019_Nov_22_1511,AdjustExp1,3.1.5,59.96149165,Experiment
91,Stimuli/Morph91.JPG,Stimuli/Morph91.png,Stimuli/BlurLevel5/BlurEditedMorph91,Stimuli/BlurLevel5/BlurEditedMorph91.png,Stimuli/BlurLevel5/NumberedMorphs/BlurEditedMorph91.png,Stimuli/BlurLevel5/OriginalBlur/BlurEditedMorph91.png,Stimuli/BlurMorphTrio/EditedMorph91.png,020276right.gif,Stimuli/normal_thumbnails/91right.gif,0,0,0,0,0,28,28,90,,,65,1,29,357,2.496573837,-0.130839891,91,220.9526362,221.4527897,220.9526362,221.4527897,78.23129252,1574464452,1574464456,4.233540058,134,107,-16,-16,1574464450,1574464452,,,HL,1,21,F,Undergrad,2019_Nov_22_1511,AdjustExp1,3.1.5,59.96149165,Experiment
6,Stimuli/Morph6.JPG,Stimuli/Morph6.png,Stimuli/BlurLevel5/BlurEditedMorph6,Stimuli/BlurLevel5/BlurEditedMorph6.png,Stimuli/BlurLevel5/NumberedMorphs/BlurEditedMorph6.png,Stimuli/BlurLevel5/OriginalBlur/BlurEditedMorph6.png,Stimuli/BlurMorphTrio/EditedMorph6.png,010012right.gif,Stimuli/normal_thumbnails/6right.gif,0,0,0,0,0,29,29,5,,,6,1,30,45,1.767766953,1.767766953,6,227.6357169,228.1357347,227.6357169,228.1357347,74.14965986,1574464459,1574464465,6.133494139,68,25,-19,-19,1574464456,1574464459,,,HL,1,21,F,Undergrad,2019_Nov_22_1511,AdjustExp1,3.1.5,59.96149165,Experiment
144,Stimuli/Morph144.JPG,Stimuli/Morph144.png,Stimuli/BlurLevel5/BlurEditedMorph144,Stimuli/BlurLevel5/BlurEditedMorph144.png,Stimuli/BlurLevel5/NumberedMorphs/BlurEditedMorph144.png,Stimuli/BlurLevel5/OriginalBlur/BlurEditedMorph144.png,Stimuli/BlurMorphTrio/EditedMorph144.png,None,None,0,0,0,0,0,30,30,143,,,93,1,31,283,0.562377636,-2.435925162,144,236.8019057,237.3022853,236.8019057,237.3022853,91.83673469,1574464468,1574464470,2.249898911,47,138,6,6,1574464465,1574464468,,,HL,1,21,F,Undergrad,2019_Nov_22_1511,AdjustExp1,3.1.5,59.96149165,Experiment
60,Stimuli/Morph60.JPG,Stimuli/Morph60.png,Stimuli/BlurLevel5/BlurEditedMorph60,Stimuli/BlurLevel5/BlurEditedMorph60.png,Stimuli/BlurLevel5/NumberedMorphs/BlurEditedMorph60.png,Stimuli/BlurLevel5/OriginalBlur/BlurEditedMorph60.png,Stimuli/BlurMorphTrio/EditedMorph60.png,020200right.gif,Stimuli/normal_thumbnails/60right.gif,0,0,0,0,0,31,31,59,,,93,1,32,226,-1.736645926,-1.798349501,60,241.6021077,242.1021498,241.6021077,242.1021498,80.95238095,1574464473,1574464474,1.483368874,77,46,14,14,1574464470,1574464473,,,HL,1,21,F,Undergrad,2019_Nov_22_1511,AdjustExp1,3.1.5,59.96149165,Experiment
126,Stimuli/Morph126.JPG,Stimuli/Morph126.png,Stimuli/BlurLevel5/BlurEditedMorph126,Stimuli/BlurLevel5/BlurEditedMorph126.png,Stimuli/BlurLevel5/NumberedMorphs/BlurEditedMorph126.png,Stimuli/BlurLevel5/OriginalBlur/BlurEditedMorph126.png,Stimuli/BlurMorphTrio/EditedMorph126.png,None,None,0,0,0,0,0,32,32,125,,,57,1,33,68,0.936516484,2.317959636,126,245.751556,246.2520165,245.751556,246.2520165,86.39455782,1574464477,1574464478,1.183697224,9,116,10,10,1574464474,1574464477,,,HL,1,21,F,Undergrad,2019_Nov_22_1511,AdjustExp1,3.1.5,59.96149165,Experiment
112,Stimuli/Morph112.JPG,Stimuli/Morph112.png,Stimuli/BlurLevel5/BlurEditedMorph112,Stimuli/BlurLevel5/BlurEditedMorph112.png,Stimuli/BlurLevel5/NumberedMorphs/BlurEditedMorph112.png,Stimuli/BlurLevel5/OriginalBlur/BlurEditedMorph112.png,Stimuli/BlurMorphTrio/EditedMorph112.png,None,None,0,0,0,0,0,33,33,111,,,91,1,34,108,-0.772542486,2.377641291,112,249.6194162,250.1356286,249.6194162,250.1356286,82.31292517,1574464481,1574464482,1.200353146,97,99,13,13,1574464478,1574464481,,,HL,1,21,F,Undergrad,2019_Nov_22_1511,AdjustExp1,3.1.5,59.96149165,Experiment
132,Stimuli/Morph132.JPG,Stimuli/Morph132.png,Stimuli/BlurLevel5/BlurEditedMorph132,Stimuli/BlurLevel5/BlurEditedMorph132.png,Stimuli/BlurLevel5/NumberedMorphs/BlurEditedMorph132.png,Stimuli/BlurLevel5/OriginalBlur/BlurEditedMorph132.png,Stimuli/BlurMorphTrio/EditedMorph132.png,None,None,0,0,0,0,0,34,34,131,,,59,1,35,83,0.304673359,2.481365379,132,253.0218284,253.5193141,253.0218284,253.5193141,91.83673469,1574464484,1574464486,2.351204872,122,126,6,6,1574464482,1574464484,,,HL,1,21,F,Undergrad,2019_Nov_22_1511,AdjustExp1,3.1.5,59.96149165,Experiment
19,Stimuli/Morph19.JPG,Stimuli/Morph19.png,Stimuli/BlurLevel5/BlurEditedMorph19,Stimuli/BlurLevel5/BlurEditedMorph19.png,Stimuli/BlurLevel5/NumberedMorphs/BlurEditedMorph19.png,Stimuli/BlurLevel5/OriginalBlur/BlurEditedMorph19.png,Stimuli/BlurMorphTrio/EditedMorph19.png,010045right.gif,Stimuli/normal_thumbnails/19right.gif,0,0,0,0,0,35,35,18,,,2,1,36,232,-1.539153688,-1.970026884,19,257.9408429,258.4357744,257.9408429,258.4357744,80.95238095,1574464489,1574464493,4.367017031,67,5,14,14,1574464487,1574464489,,,HL,1,21,F,Undergrad,2019_Nov_22_1511,AdjustExp1,3.1.5,59.96149165,Experiment
16,Stimuli/Morph16.JPG,Stimuli/Morph16.png,Stimuli/BlurLevel5/BlurEditedMorph16,Stimuli/BlurLevel5/BlurEditedMorph16.png,Stimuli/BlurLevel5/NumberedMorphs/BlurEditedMorph16.png,Stimuli/BlurLevel5/OriginalBlur/BlurEditedMorph16.png,Stimuli/BlurMorphTrio/EditedMorph16.png,010034right.gif,Stimuli/normal_thumbnails/16right.gif,0,0,0,0,0,36,36,15,,,43,1,37,0,2.5,0,16,264.9519812,265.4523854,264.9519812,265.4523854,91.83673469,1574464496,1574464498,2.515733957,90,22,-6,-6,1574464494,1574464496,,,HL,1,21,F,Undergrad,2019_Nov_22_1511,AdjustExp1,3.1.5,59.96149165,Experiment
102,Stimuli/Morph102.JPG,Stimuli/Morph102.png,Stimuli/BlurLevel5/BlurEditedMorph102,Stimuli/BlurLevel5/BlurEditedMorph102.png,Stimuli/BlurLevel5/NumberedMorphs/BlurEditedMorph102.png,Stimuli/BlurLevel5/OriginalBlur/BlurEditedMorph102.png,Stimuli/BlurMorphTrio/EditedMorph102.png,None,None,0,0,0,0,0,37,37,101,,,15,1,38,190,-2.462019383,-0.434120444,102,270.0039711,270.5014746,270.0039711,270.5014746,97.27891156,1574464501,1574464502,1.350161791,138,100,2,2,1574464499,1574464501,,,HL,1,21,F,Undergrad,2019_Nov_22_1511,AdjustExp1,3.1.5,59.96149165,Experiment
36,Stimuli/Morph36.JPG,Stimuli/Morph36.png,Stimuli/BlurLevel5/BlurEditedMorph36,Stimuli/BlurLevel5/BlurEditedMorph36.png,Stimuli/BlurLevel5/NumberedMorphs/BlurEditedMorph36.png,Stimuli/BlurLevel5/OriginalBlur/BlurEditedMorph36.png,Stimuli/BlurMorphTrio/EditedMorph36.png,010095right.gif,Stimuli/normal_thumbnails/36right.gif,0,0,0,0,0,38,38,35,,,71,1,39,99,-0.391086163,2.469220851,36,273.901704,274.4024446,273.901704,274.4024446,80.95238095,1574464505,1574464507,1.883156061,76,22,14,14,1574464503,1574464505,,,HL,1,21,F,Undergrad,2019_Nov_22_1511,AdjustExp1,3.1.5,59.96149165,Experiment
141,Stimuli/Morph141.JPG,Stimuli/Morph141.png,Stimuli/BlurLevel5/BlurEditedMorph141,Stimuli/BlurLevel5/BlurEditedMorph141.png,Stimuli/BlurLevel5/NumberedMorphs/BlurEditedMorph141.png,Stimuli/BlurLevel5/OriginalBlur/BlurEditedMorph141.png,Stimuli/BlurMorphTrio/EditedMorph141.png,None,None,0,0,0,0,0,39,39,140,,,43,1,40,198,-2.377641291,-0.772542486,141,278.1258567,278.618017,278.1258567,278.618017,93.19727891,1574464509,1574464513,4.334069014,112,146,-5,-5,1574464507,1574464509,,,HL,1,21,F,Undergrad,2019_Nov_22_1511,AdjustExp1,3.1.5,59.96149165,Experiment
8,Stimuli/Morph8.JPG,Stimuli/Morph8.png,Stimuli/BlurLevel5/BlurEditedMorph8,Stimuli/BlurLevel5/BlurEditedMorph8.png,Stimuli/BlurLevel5/NumberedMorphs/BlurEditedMorph8.png,Stimuli/BlurLevel5/OriginalBlur/BlurEditedMorph8.png,Stimuli/BlurMorphTrio/EditedMorph8.png,010014right.gif,Stimuli/normal_thumbnails/8right.gif,0,0,0,0,0,40,40,7,,,83,1,41,118,-1.173678907,2.207368982,8,284.8513026,285.3515982,284.8513026,285.3515982,36.05442177,1574464516,1574464518,2.433264017,111,108,-100,47,1574464514,1574464516,,,HL,1,21,F,Undergrad,2019_Nov_22_1511,AdjustExp1,3.1.5,59.96149165,Experiment
70,Stimuli/Morph70.JPG,Stimuli/Morph70.png,Stimuli/BlurLevel5/BlurEditedMorph70,Stimuli/BlurLevel5/BlurEditedMorph70.png,Stimuli/BlurLevel5/NumberedMorphs/BlurEditedMorph70.png,Stimuli/BlurLevel5/OriginalBlur/BlurEditedMorph70.png,Stimuli/BlurMorphTrio/EditedMorph70.png,020221right.gif,Stimuli/normal_thumbnails/70right.gif,0,0,0,0,0,41,41,69,,,55,1,42,100,-0.434120444,2.462019383,70,289.5716793,290.0682436,289.5716793,290.0682436,93.19727891,1574464521,1574464523,2.233362913,13,65,5,5,1574464519,1574464521,,,HL,1,21,F,Undergrad,2019_Nov_22_1511,AdjustExp1,3.1.5,59.96149165,Experiment
11,Stimuli/Morph11.JPG,Stimuli/Morph11.png,Stimuli/BlurLevel5/BlurEditedMorph11,Stimuli/BlurLevel5/BlurEditedMorph11.png,Stimuli/BlurLevel5/NumberedMorphs/BlurEditedMorph11.png,Stimuli/BlurLevel5/OriginalBlur/BlurEditedMorph11.png,Stimuli/BlurMorphTrio/EditedMorph11.png,010024right.gif,Stimuli/normal_thumbnails/11right.gif,0,0,0,0,0,42,42,10,,,41,1,43,299,1.212024051,-2.186549268,11,294.1677951,294.6684319,294.1677951,294.6684319,68.70748299,1574464525,1574464529,4.116593838,63,135,-124,23,1574464523,1574464525,,,HL,1,21,F,Undergrad,2019_Nov_22_1511,AdjustExp1,3.1.5,59.96149165,Experiment
114,Stimuli/Morph114.JPG,Stimuli/Morph114.png,Stimuli/BlurLevel5/BlurEditedMorph114,Stimuli/BlurLevel5/BlurEditedMorph114.png,Stimuli/BlurLevel5/NumberedMorphs/BlurEditedMorph114.png,Stimuli/BlurLevel5/OriginalBlur/BlurEditedMorph114.png,Stimuli/BlurMorphTrio/EditedMorph114.png,None,None,0,0,0,0,0,43,43,113,,,90,1,44,44,1.798349501,1.736645926,114,300.8735895,301.3683285,300.8735895,301.3683285,74.14965986,1574464532,1574464537,4.817346096,86,95,19,19,1574464530,1574464532,,,HL,1,21,F,Undergrad,2019_Nov_22_1511,AdjustExp1,3.1.5,59.96149165,Experiment
50,Stimuli/Morph50.JPG,Stimuli/Morph50.png,Stimuli/BlurLevel5/BlurEditedMorph50,Stimuli/BlurLevel5/BlurEditedMorph50.png,Stimuli/BlurLevel5/NumberedMorphs/BlurEditedMorph50.png,Stimuli/BlurLevel5/OriginalBlur/BlurEditedMorph50.png,Stimuli/BlurMorphTrio/EditedMorph50.png,010142right.gif,Stimuli/normal_thumbnails/50right.gif,0,0,0,0,0,44,44,49,,,18,1,45,45,1.767766953,1.767766953,50,308.0568569,308.5517196,308.0568569,308.5517196,94.55782313,1574464539,1574464540,1.351270914,7,46,4,4,1574464537,1574464539,,,HL,1,21,F,Undergrad,2019_Nov_22_1511,AdjustExp1,3.1.5,59.96149165,Experiment
17,Stimuli/Morph17.JPG,Stimuli/Morph17.png,Stimuli/BlurLevel5/BlurEditedMorph17,Stimuli/BlurLevel5/BlurEditedMorph17.png,Stimuli/BlurLevel5/NumberedMorphs/BlurEditedMorph17.png,Stimuli/BlurLevel5/OriginalBlur/BlurEditedMorph17.png,Stimuli/BlurMorphTrio/EditedMorph17.png,010036right.gif,Stimuli/normal_thumbnails/17right.gif,0,0,0,0,0,45,45,16,,,77,1,46,311,1.640147572,-1.886773951,17,312.0174224,312.5186504,312.0174224,312.5186504,94.55782313,1574464543,1574464546,2.800268888,100,21,-4,-4,1574464541,1574464543,,,HL,1,21,F,Undergrad,2019_Nov_22_1511,AdjustExp1,3.1.5,59.96149165,Experiment
32,Stimuli/Morph32.JPG,Stimuli/Morph32.png,Stimuli/BlurLevel5/BlurEditedMorph32,Stimuli/BlurLevel5/BlurEditedMorph32.png,Stimuli/BlurLevel5/NumberedMorphs/BlurEditedMorph32.png,Stimuli/BlurLevel5/OriginalBlur/BlurEditedMorph32.png,Stimuli/BlurMorphTrio/EditedMorph32.png,010080right.gif,Stimuli/normal_thumbnails/32right.gif,0,0,0,0,0,46,46,31,,,25,1,47,136,-1.798349501,1.736645926,32,317.1683767,317.6681758,317.1683767,317.6681758,98.63945578,1574464548,1574464552,3.349988699,34,31,1,1,1574464546,1574464548,,,HL,1,21,F,Undergrad,2019_Nov_22_1511,AdjustExp1,3.1.5,59.96149165,Experiment
56,Stimuli/Morph56.JPG,Stimuli/Morph56.png,Stimuli/BlurLevel5/BlurEditedMorph56,Stimuli/BlurLevel5/BlurEditedMorph56.png,Stimuli/BlurLevel5/NumberedMorphs/BlurEditedMorph56.png,Stimuli/BlurLevel5/OriginalBlur/BlurEditedMorph56.png,Stimuli/BlurMorphTrio/EditedMorph56.png,010157right.gif,Stimuli/normal_thumbnails/56right.gif,0,0,0,0,0,47,47,55,,,63,1,48,310,1.606969024,-1.915111108,56,323.102397,323.6014167,323.102397,323.6014167,78.23129252,1574464554,1574464557,2.933409929,120,40,16,16,1574464552,1574464554,,,HL,1,21,F,Undergrad,2019_Nov_22_1511,AdjustExp1,3.1.5,59.96149165,Experiment
100,Stimuli/Morph100.JPG,Stimuli/Morph100.png,Stimuli/BlurLevel5/BlurEditedMorph100,Stimuli/BlurLevel5/BlurEditedMorph100.png,Stimuli/BlurLevel5/NumberedMorphs/BlurEditedMorph100.png,Stimuli/BlurLevel5/OriginalBlur/BlurEditedMorph100.png,Stimuli/BlurMorphTrio/EditedMorph100.png,020297right.gif,Stimuli/normal_thumbnails/100right.gif,0,0,0,0,0,48,48,99,,,69,1,49,69,0.895919874,2.333951066,100,329.0170054,329.5181683,329.0170054,329.5181683,90.47619048,1574464560,1574464561,1.382177114,107,107,-7,-7,1574464557,1574464560,,,HL,1,21,F,Undergrad,2019_Nov_22_1511,AdjustExp1,3.1.5,59.96149165,Experiment
131,Stimuli/Morph131.JPG,Stimuli/Morph131.png,Stimuli/BlurLevel5/BlurEditedMorph131,Stimuli/BlurLevel5/BlurEditedMorph131.png,Stimuli/BlurLevel5/NumberedMorphs/BlurEditedMorph131.png,Stimuli/BlurLevel5/OriginalBlur/BlurEditedMorph131.png,Stimuli/BlurMorphTrio/EditedMorph131.png,None,None,0,0,0,0,0,49,49,130,,,18,1,50,204,-2.283863644,-1.016841608,131,332.9034127,333.4006715,332.9034127,333.4006715,74.14965986,1574464564,1574464569,5.050480843,47,112,19,19,1574464562,1574464564,,,HL,1,21,F,Undergrad,2019_Nov_22_1511,AdjustExp1,3.1.5,59.96149165,Experiment
73,Stimuli/Morph73.JPG,Stimuli/Morph73.png,Stimuli/BlurLevel5/BlurEditedMorph73,Stimuli/BlurLevel5/BlurEditedMorph73.png,Stimuli/BlurLevel5/NumberedMorphs/BlurEditedMorph73.png,Stimuli/BlurLevel5/OriginalBlur/BlurEditedMorph73.png,Stimuli/BlurMorphTrio/EditedMorph73.png,020230right.gif,Stimuli/normal_thumbnails/73right.gif,0,0,0,0,0,50,50,72,,,22,1,51,40,1.915111108,1.606969024,73,340.3575186,340.8513127,340.3575186,340.8513127,98.63945578,1574464571,1574464575,3.865867138,19,74,-1,-1,1574464569,1574464571,,,HL,1,21,F,Undergrad,2019_Nov_22_1511,AdjustExp1,3.1.5,59.96149165,Experiment
82,Stimuli/Morph82.JPG,Stimuli/Morph82.png,Stimuli/BlurLevel5/BlurEditedMorph82,Stimuli/BlurLevel5/BlurEditedMorph82.png,Stimuli/BlurLevel5/NumberedMorphs/BlurEditedMorph82.png,Stimuli/BlurLevel5/OriginalBlur/BlurEditedMorph82.png,Stimuli/BlurMorphTrio/EditedMorph82.png,020247right.gif,Stimuli/normal_thumbnails/82right.gif,0,0,0,0,0,51,51,81,,,92,1,52,356,2.493910126,-0.174391184,82,346.8001837,347.300979,346.8001837,347.300979,60.54421769,1574464578,1574464579,1.183722019,142,111,-29,-29,1574464575,1574464578,,,HL,1,21,F,Undergrad,2019_Nov_22_1511,AdjustExp1,3.1.5,59.96149165,Experiment
21,Stimuli/Morph21.JPG,Stimuli/Morph21.png,Stimuli/BlurLevel5/BlurEditedMorph21,Stimuli/BlurLevel5/BlurEditedMorph21.png,Stimuli/BlurLevel5/NumberedMorphs/BlurEditedMorph21.png,Stimuli/BlurLevel5/OriginalBlur/BlurEditedMorph21.png,Stimuli/BlurMorphTrio/EditedMorph21.png,010049right.gif,Stimuli/normal_thumbnails/21right.gif,0,0,0,0,0,52,52,20,,,15,1,53,149,-2.142918252,1.287595187,21,350.3245856,350.8178661,350.3245856,350.8178661,91.83673469,1574464581,1574464588,7.066870213,55,15,6,6,1574464579,1574464581,,,HL,1,21,F,Undergrad,2019_Nov_22_1511,AdjustExp1,3.1.5,59.96149165,Experiment
46,Stimuli/Morph46.JPG,Stimuli/Morph46.png,Stimuli/BlurLevel5/BlurEditedMorph46,Stimuli/BlurLevel5/BlurEditedMorph46.png,Stimuli/BlurLevel5/NumberedMorphs/BlurEditedMorph46.png,Stimuli/BlurLevel5/OriginalBlur/BlurEditedMorph46.png,Stimuli/BlurMorphTrio/EditedMorph46.png,010128right.gif,Stimuli/normal_thumbnails/46right.gif,0,0,0,0,0,53,53,45,,,83,1,54,199,-2.363796439,-0.813920386,46,360.0335,360.5340712,360.0335,360.5340712,100,1574464591,1574464594,2.66643405,78,46,0,0,1574464589,1574464591,,,HL,1,21,F,Undergrad,2019_Nov_22_1511,AdjustExp1,3.1.5,59.96149165,Experiment
103,Stimuli/Morph103.JPG,Stimuli/Morph103.png,Stimuli/BlurLevel5/BlurEditedMorph103,Stimuli/BlurLevel5/BlurEditedMorph103.png,Stimuli/BlurLevel5/NumberedMorphs/BlurEditedMorph103.png,Stimuli/BlurLevel5/OriginalBlur/BlurEditedMorph103.png,Stimuli/BlurMorphTrio/EditedMorph103.png,None,None,0,0,0,0,0,54,54,102,,,28,1,55,72,0.772542486,2.377641291,103,365.5681503,366.0676524,365.5681503,366.0676524,78.23129252,1574464597,1574464598,1.050112963,123,119,-16,-16,1574464594,1574464597,,,HL,1,21,F,Undergrad,2019_Nov_22_1511,AdjustExp1,3.1.5,59.96149165,Experiment
62,Stimuli/Morph62.JPG,Stimuli/Morph62.png,Stimuli/BlurLevel5/BlurEditedMorph62,Stimuli/BlurLevel5/BlurEditedMorph62.png,Stimuli/BlurLevel5/NumberedMorphs/BlurEditedMorph62.png,Stimuli/BlurLevel5/OriginalBlur/BlurEditedMorph62.png,Stimuli/BlurMorphTrio/EditedMorph62.png,020205right.gif,Stimuli/normal_thumbnails/62right.gif,0,0,0,0,0,55,55,61,,,32,1,56,129,-1.573300978,1.942864904,62,369.36858,369.8671642,369.36858,369.8671642,87.75510204,1574464600,1574464601,1.082387924,53,53,9,9,1574464598,1574464600,,,HL,1,21,F,Undergrad,2019_Nov_22_1511,AdjustExp1,3.1.5,59.96149165,Experiment
134,Stimuli/Morph134.JPG,Stimuli/Morph134.png,Stimuli/BlurLevel5/BlurEditedMorph134,Stimuli/BlurLevel5/BlurEditedMorph134.png,Stimuli/BlurLevel5/NumberedMorphs/BlurEditedMorph134.png,Stimuli/BlurLevel5/OriginalBlur/BlurEditedMorph134.png,Stimuli/BlurMorphTrio/EditedMorph134.png,None,None,0,0,0,0,0,56,56,133,,,29,1,57,32,2.12012024,1.324798161,134,373.4182002,373.9172697,373.4182002,373.9172697,95.91836735,1574464604,1574464607,2.09915185,55,137,-3,-3,1574464602,1574464604,,,HL,1,21,F,Undergrad,2019_Nov_22_1511,AdjustExp1,3.1.5,59.96149165,Experiment
98,Stimuli/Morph98.JPG,Stimuli/Morph98.png,Stimuli/BlurLevel5/BlurEditedMorph98,Stimuli/BlurLevel5/BlurEditedMorph98.png,Stimuli/BlurLevel5/NumberedMorphs/BlurEditedMorph98.png,Stimuli/BlurLevel5/OriginalBlur/BlurEditedMorph98.png,Stimuli/BlurMorphTrio/EditedMorph98.png,020298right.gif,Stimuli/normal_thumbnails/98right.gif,0,0,0,0,0,57,57,97,,,7,1,58,20,2.349231552,0.855050358,98,378.1734199,378.6707465,378.1734199,378.6707465,74.14965986,1574464609,1574464611,1.550441027,23,117,-19,-19,1574464607,1574464609,,,HL,1,21,F,Undergrad,2019_Nov_22_1511,AdjustExp1,3.1.5,59.96149165,Experiment
89,Stimuli/Morph89.JPG,Stimuli/Morph89.png,Stimuli/BlurLevel5/BlurEditedMorph89,Stimuli/BlurLevel5/BlurEditedMorph89.png,Stimuli/BlurLevel5/NumberedMorphs/BlurEditedMorph89.png,Stimuli/BlurLevel5/OriginalBlur/BlurEditedMorph89.png,Stimuli/BlurMorphTrio/EditedMorph89.png,020273right.gif,Stimuli/normal_thumbnails/89right.gif,0,0,0,0,0,58,58,88,,,46,1,59,124,-1.397982259,2.072593931,89,382.1010715,382.6007736,382.1010715,382.6007736,65.98639456,1574464613,1574464614,1.233006954,144,114,-25,-25,1574464611,1574464613,,,HL,1,21,F,Undergrad,2019_Nov_22_1511,AdjustExp1,3.1.5,59.96149165,Experiment
2,Stimuli/Morph2.JPG,Stimuli/Morph2.png,Stimuli/BlurLevel5/BlurEditedMorph2,Stimuli/BlurLevel5/BlurEditedMorph2.png,Stimuli/BlurLevel5/NumberedMorphs/BlurEditedMorph2.png,Stimuli/BlurLevel5/OriginalBlur/BlurEditedMorph2.png,Stimuli/BlurMorphTrio/EditedMorph2.png,010006right.gif,Stimuli/normal_thumbnails/2right.gif,0,0,0,0,0,59,59,1,,,56,1,60,105,-0.647047613,2.414814566,2,386.2669556,386.7666803,386.2669556,386.7666803,86.39455782,1574464617,1574464623,5.450279951,71,139,-137,10,1574464615,1574464617,,,HL,1,21,F,Undergrad,2019_Nov_22_1511,AdjustExp1,3.1.5,59.96149165,Experiment
47,Stimuli/Morph47.JPG,Stimuli/Morph47.png,Stimuli/BlurLevel5/BlurEditedMorph47,Stimuli/BlurLevel5/BlurEditedMorph47.png,Stimuli/BlurLevel5/NumberedMorphs/BlurEditedMorph47.png,Stimuli/BlurLevel5/OriginalBlur/BlurEditedMorph47.png,Stimuli/BlurMorphTrio/EditedMorph47.png,010130right.gif,Stimuli/normal_thumbnails/47right.gif,0,0,0,0,0,60,60,46,,,70,1,61,355,2.490486745,-0.217889357,47,393.9891706,394.4836356,393.9891706,394.4836356,89.11564626,1574464625,1574464627,2.017350912,109,39,8,8,1574464623,1574464625,,,HL,1,21,F,Undergrad,2019_Nov_22_1511,AdjustExp1,3.1.5,59.96149165,Experiment
143,Stimuli/Morph143.JPG,Stimuli/Morph143.png,Stimuli/BlurLevel5/BlurEditedMorph143,Stimuli/BlurLevel5/BlurEditedMorph143.png,Stimuli/BlurLevel5/NumberedMorphs/BlurEditedMorph143.png,Stimuli/BlurLevel5/OriginalBlur/BlurEditedMorph143.png,Stimuli/BlurMorphTrio/EditedMorph143.png,None,None,0,0,0,0,0,61,61,142,,,60,1,62,336,2.283863644,-1.016841608,143,398.9667674,399.4668055,398.9667674,399.4668055,80.95238095,1574464630,1574464633,3.233330965,103,129,14,14,1574464627,1574464630,,,HL,1,21,F,Undergrad,2019_Nov_22_1511,AdjustExp1,3.1.5,59.96149165,Experiment
55,Stimuli/Morph55.JPG,Stimuli/Morph55.png,Stimuli/BlurLevel5/BlurEditedMorph55,Stimuli/BlurLevel5/BlurEditedMorph55.png,Stimuli/BlurLevel5/NumberedMorphs/BlurEditedMorph55.png,Stimuli/BlurLevel5/OriginalBlur/BlurEditedMorph55.png,Stimuli/BlurMorphTrio/EditedMorph55.png,010151right.gif,Stimuli/normal_thumbnails/55right.gif,0,0,0,0,0,62,62,54,,,84,1,63,42,1.857862064,1.672826516,55,404.4560204,404.9498756,404.4560204,404.9498756,98.63945578,1574464635,1574464638,2.050723791,67,54,1,1,1574464633,1574464635,,,HL,1,21,F,Undergrad,2019_Nov_22_1511,AdjustExp1,3.1.5,59.96149165,Experiment
128,Stimuli/Morph128.JPG,Stimuli/Morph128.png,Stimuli/BlurLevel5/BlurEditedMorph128,Stimuli/BlurLevel5/BlurEditedMorph128.png,Stimuli/BlurLevel5/NumberedMorphs/BlurEditedMorph128.png,Stimuli/BlurLevel5/OriginalBlur/BlurEditedMorph128.png,Stimuli/BlurMorphTrio/EditedMorph128.png,None,None,0,0,0,0,0,63,63,127,,,90,1,64,324,2.022542486,-1.469463131,128,408.7829155,409.2832111,408.7829155,409.2832111,97.27891156,1574464640,1574464642,2.350908995,8,130,-2,-2,1574464638,1574464640,,,HL,1,21,F,Undergrad,2019_Nov_22_1511,AdjustExp1,3.1.5,59.96149165,Experiment
113,Stimuli/Morph113.JPG,Stimuli/Morph113.png,Stimuli/BlurLevel5/BlurEditedMorph113,Stimuli/BlurLevel5/BlurEditedMorph113.png,Stimuli/BlurLevel5/NumberedMorphs/BlurEditedMorph113.png,Stimuli/BlurLevel5/OriginalBlur/BlurEditedMorph113.png,Stimuli/BlurMorphTrio/EditedMorph113.png,None,None,0,0,0,0,0,64,64,112,,,75,1,65,345,2.414814566,-0.647047613,113,413.3689021,413.8666104,413.3689021,413.8666104,83.67346939,1574464644,1574464646,1.833715916,36,125,-12,-12,1574464642,1574464644,,,HL,1,21,F,Undergrad,2019_Nov_22_1511,AdjustExp1,3.1.5,59.96149165,Experiment
54,Stimuli/Morph54.JPG,Stimuli/Morph54.png,Stimuli/BlurLevel5/BlurEditedMorph54,Stimuli/BlurLevel5/BlurEditedMorph54.png,Stimuli/BlurLevel5/NumberedMorphs/BlurEditedMorph54.png,Stimuli/BlurLevel5/OriginalBlur/BlurEditedMorph54.png,Stimuli/BlurMorphTrio/EditedMorph54.png,010150right.gif,Stimuli/normal_thumbnails/54right.gif,0,0,0,0,0,65,65,53,,,86,1,66,131,-1.640147572,1.886773951,54,417.7669581,418.2659003,417.7669581,418.2659003,100,1574464649,1574464651,1.899819136,67,54,0,0,1574464646,1574464649,,,HL,1,21,F,Undergrad,2019_Nov_22_1511,AdjustExp1,3.1.5,59.96149165,Experiment
20,Stimuli/Morph20.JPG,Stimuli/Morph20.png,Stimuli/BlurLevel5/BlurEditedMorph20,Stimuli/BlurLevel5/BlurEditedMorph20.png,Stimuli/BlurLevel5/NumberedMorphs/BlurEditedMorph20.png,Stimuli/BlurLevel5/OriginalBlur/BlurEditedMorph20.png,Stimuli/BlurMorphTrio/EditedMorph20.png,010046right.gif,Stimuli/normal_thumbnails/20right.gif,0,0,0,0,0,66,66,19,,,8,1,67,243,-1.134976249,-2.22751631,20,422.4506949,422.9499542,422.4506949,422.9499542,80.95238095,1574464653,1574464655,1.949455023,52,34,-14,-14,1574464651,1574464653,,,HL,1,21,F,Undergrad,2019_Nov_22_1511,AdjustExp1,3.1.5,59.96149165,Experiment
77,Stimuli/Morph77.JPG,Stimuli/Morph77.png,Stimuli/BlurLevel5/BlurEditedMorph77,Stimuli/BlurLevel5/BlurEditedMorph77.png,Stimuli/BlurLevel5/NumberedMorphs/BlurEditedMorph77.png,Stimuli/BlurLevel5/OriginalBlur/BlurEditedMorph77.png,Stimuli/BlurMorphTrio/EditedMorph77.png,020235right.gif,Stimuli/normal_thumbnails/77right.gif,0,0,0,0,0,67,67,76,,,78,1,68,252,-0.772542486,-2.377641291,77,426.7674289,427.2667783,426.7674289,427.2667783,31.97278912,1574464658,1574464661,3.566022873,126,127,-50,-50,1574464656,1574464658,,,HL,1,21,F,Undergrad,2019_Nov_22_1511,AdjustExp1,3.1.5,59.96149165,Experiment
140,Stimuli/Morph140.JPG,Stimuli/Morph140.png,Stimuli/BlurLevel5/BlurEditedMorph140,Stimuli/BlurLevel5/BlurEditedMorph140.png,Stimuli/BlurLevel5/NumberedMorphs/BlurEditedMorph140.png,Stimuli/BlurLevel5/OriginalBlur/BlurEditedMorph140.png,Stimuli/BlurMorphTrio/EditedMorph140.png,None,None,0,0,0,0,0,68,68,139,,,77,1,69,43,1.828384254,1.7049959,140,432.916723,433.4168864,432.916723,433.4168864,90.47619048,1574464664,1574464666,2.017021894,9,147,-7,-7,1574464662,1574464664,,,HL,1,21,F,Undergrad,2019_Nov_22_1511,AdjustExp1,3.1.5,59.96149165,Experiment
83,Stimuli/Morph83.JPG,Stimuli/Morph83.png,Stimuli/BlurLevel5/BlurEditedMorph83,Stimuli/BlurLevel5/BlurEditedMorph83.png,Stimuli/BlurLevel5/NumberedMorphs/BlurEditedMorph83.png,Stimuli/BlurLevel5/OriginalBlur/BlurEditedMorph83.png,Stimuli/BlurMorphTrio/EditedMorph83.png,020259right.gif,Stimuli/normal_thumbnails/83right.gif,0,0,0,0,0,69,69,82,,,35,1,70,5,2.490486745,0.217889357,83,437.5045502,438.0001067,437.5045502,438.0001067,55.10204082,1574464669,1574464671,2.250070095,6,116,-33,-33,1574464666,1574464668,,,HL,1,21,F,Undergrad,2019_Nov_22_1511,AdjustExp1,3.1.5,59.96149165,Experiment
38,Stimuli/Morph38.JPG,Stimuli/Morph38.png,Stimuli/BlurLevel5/BlurEditedMorph38,Stimuli/BlurLevel5/BlurEditedMorph38.png,Stimuli/BlurLevel5/NumberedMorphs/BlurEditedMorph38.png,Stimuli/BlurLevel5/OriginalBlur/BlurEditedMorph38.png,Stimuli/BlurMorphTrio/EditedMorph38.png,010108right.gif,Stimuli/normal_thumbnails/38right.gif,0,0,0,0,0,70,70,37,,,24,1,71,107,-0.730929262,2.39076189,38,442.1517067,442.6497086,442.1517067,442.6497086,98.63945578,1574464673,1574464675,2.067125082,109,37,1,1,1574464671,1574464673,,,HL,1,21,F,Undergrad,2019_Nov_22_1511,AdjustExp1,3.1.5,59.96149165,Experiment
68,Stimuli/Morph68.JPG,Stimuli/Morph68.png,Stimuli/BlurLevel5/BlurEditedMorph68,Stimuli/BlurLevel5/BlurEditedMorph68.png,Stimuli/BlurLevel5/NumberedMorphs/BlurEditedMorph68.png,Stimuli/BlurLevel5/OriginalBlur/BlurEditedMorph68.png,Stimuli/BlurMorphTrio/EditedMorph68.png,020218right.gif,Stimuli/normal_thumbnails/68right.gif,0,0,0,0,0,71,71,67,,,81,1,72,321,1.942864904,-1.573300978,68,446.4823132,446.9835182,446.4823132,446.9835182,100,1574464677,1574464680,2.566837311,10,68,0,0,1574464675,1574464677,,,HL,1,21,F,Undergrad,2019_Nov_22_1511,AdjustExp1,3.1.5,59.96149165,Experiment
12,Stimuli/Morph12.JPG,Stimuli/Morph12.png,Stimuli/BlurLevel5/BlurEditedMorph12,Stimuli/BlurLevel5/BlurEditedMorph12.png,Stimuli/BlurLevel5/NumberedMorphs/BlurEditedMorph12.png,Stimuli/BlurLevel5/OriginalBlur/BlurEditedMorph12.png,Stimuli/BlurMorphTrio/EditedMorph12.png,010026right.gif,Stimuli/normal_thumbnails/12right.gif,0,0,0,0,0,72,72,11,,,57,1,73,241,-1.212024051,-2.186549268,12,451.8669274,452.365921,451.8669274,452.365921,98.63945578,1574464683,1574464688,4.882836103,113,11,1,1,1574464680,1574464683,,,HL,1,21,F,Undergrad,2019_Nov_22_1511,AdjustExp1,3.1.5,59.96149165,Experiment
18,Stimuli/Morph18.JPG,Stimuli/Morph18.png,Stimuli/BlurLevel5/BlurEditedMorph18,Stimuli/BlurLevel5/BlurEditedMorph18.png,Stimuli/BlurLevel5/NumberedMorphs/BlurEditedMorph18.png,Stimuli/BlurLevel5/OriginalBlur/BlurEditedMorph18.png,Stimuli/BlurMorphTrio/EditedMorph18.png,010039right.gif,Stimuli/normal_thumbnails/18right.gif,0,0,0,0,0,73,73,17,,,63,1,74,155,-2.265769468,1.056545654,18,459.3720353,459.8659527,459.3720353,459.8659527,95.91836735,1574464690,1574464698,7.365879059,137,15,3,3,1574464688,1574464690,,,HL,1,21,F,Undergrad,2019_Nov_22_1511,AdjustExp1,3.1.5,59.96149165,Experiment
1,Stimuli/Morph1.JPG,Stimuli/Morph1.png,Stimuli/BlurLevel5/BlurEditedMorph1,Stimuli/BlurLevel5/BlurEditedMorph1.png,Stimuli/BlurLevel5/NumberedMorphs/BlurEditedMorph1.png,Stimuli/BlurLevel5/OriginalBlur/BlurEditedMorph1.png,Stimuli/BlurMorphTrio/EditedMorph1.png,010003right.gif,Stimuli/normal_thumbnails/1right.gif,0,0,0,0,0,74,74,0,,,38,1,75,245,-1.056545654,-2.265769468,1,469.100081,469.5989552,469.100081,469.5989552,94.55782313,1574464700,1574464701,1.283308029,144,144,-143,4,1574464698,1574464700,,,HL,1,21,F,Undergrad,2019_Nov_22_1511,AdjustExp1,3.1.5,59.96149165,Experiment
80,Stimuli/Morph80.JPG,Stimuli/Morph80.png,Stimuli/BlurLevel5/BlurEditedMorph80,Stimuli/BlurLevel5/BlurEditedMorph80.png,Stimuli/BlurLevel5/NumberedMorphs/BlurEditedMorph80.png,Stimuli/BlurLevel5/OriginalBlur/BlurEditedMorph80.png,Stimuli/BlurMorphTrio/EditedMorph80.png,020240right.gif,Stimuli/normal_thumbnails/80right.gif,0,0,0,0,0,75,75,79,,,88,1,76,170,-2.462019383,0.434120444,80,472.7668884,473.2660997,472.7668884,473.2660997,95.91836735,1574464704,1574464705,1.533331156,36,77,3,3,1574464702,1574464704,,,HL,1,21,F,Undergrad,2019_Nov_22_1511,AdjustExp1,3.1.5,59.96149165,Experiment
14,Stimuli/Morph14.JPG,Stimuli/Morph14.png,Stimuli/BlurLevel5/BlurEditedMorph14,Stimuli/BlurLevel5/BlurEditedMorph14.png,Stimuli/BlurLevel5/NumberedMorphs/BlurEditedMorph14.png,Stimuli/BlurLevel5/OriginalBlur/BlurEditedMorph14.png,Stimuli/BlurMorphTrio/EditedMorph14.png,010030right.gif,Stimuli/normal_thumbnails/14right.gif,0,0,0,0,0,76,76,13,,,34,1,77,125,-1.433941091,2.047880111,14,476.9819275,477.4824947,476.9819275,477.4824947,83.67346939,1574464708,1574464710,2.300857067,78,2,12,12,1574464706,1574464708,,,HL,1,21,F,Undergrad,2019_Nov_22_1511,AdjustExp1,3.1.5,59.96149165,Experiment
57,Stimuli/Morph57.JPG,Stimuli/Morph57.png,Stimuli/BlurLevel5/BlurEditedMorph57,Stimuli/BlurLevel5/BlurEditedMorph57.png,Stimuli/BlurLevel5/NumberedMorphs/BlurEditedMorph57.png,Stimuli/BlurLevel5/OriginalBlur/BlurEditedMorph57.png,Stimuli/BlurMorphTrio/EditedMorph57.png,010158right.gif,Stimuli/normal_thumbnails/57right.gif,0,0,0,0,0,77,77,56,,,19,1,78,326,2.072593931,-1.397982259,57,482.0815366,482.5823492,482.0815366,482.5823492,78.23129252,1574464713,1574464716,2.950387955,33,73,-16,-16,1574464711,1574464713,,,HL,1,21,F,Undergrad,2019_Nov_22_1511,AdjustExp1,3.1.5,59.96149165,Experiment
99,Stimuli/Morph99.JPG,Stimuli/Morph99.png,Stimuli/BlurLevel5/BlurEditedMorph99,Stimuli/BlurLevel5/BlurEditedMorph99.png,Stimuli/BlurLevel5/NumberedMorphs/BlurEditedMorph99.png,Stimuli/BlurLevel5/OriginalBlur/BlurEditedMorph99.png,Stimuli/BlurMorphTrio/EditedMorph99.png,020299right.gif,Stimuli/normal_thumbnails/99right.gif,0,0,0,0,0,78,78,98,,,61,1,79,228,-1.672826516,-1.857862064,99,487.8655548,488.3660465,487.8655548,488.3660465,68.70748299,1574464719,1574464720,1.332715988,122,122,-23,-23,1574464716,1574464719,,,HL,1,21,F,Undergrad,2019_Nov_22_1511,AdjustExp1,3.1.5,59.96149165,Experiment
111,Stimuli/Morph111.JPG,Stimuli/Morph111.png,Stimuli/BlurLevel5/BlurEditedMorph111,Stimuli/BlurLevel5/BlurEditedMorph111.png,Stimuli/BlurLevel5/NumberedMorphs/BlurEditedMorph111.png,Stimuli/BlurLevel5/OriginalBlur/BlurEditedMorph111.png,Stimuli/BlurMorphTrio/EditedMorph111.png,None,None,0,0,0,0,0,79,79,110,,,46,1,80,17,2.39076189,0.730929262,111,491.6486727,492.1490635,491.6486727,492.1490635,93.19727891,1574464723,1574464726,2.850190878,60,106,5,5,1574464720,1574464723,,,HL,1,21,F,Undergrad,2019_Nov_22_1511,AdjustExp1,3.1.5,59.96149165,Experiment
107,Stimuli/Morph107.JPG,Stimuli/Morph107.png,Stimuli/BlurLevel5/BlurEditedMorph107,Stimuli/BlurLevel5/BlurEditedMorph107.png,Stimuli/BlurLevel5/NumberedMorphs/BlurEditedMorph107.png,Stimuli/BlurLevel5/OriginalBlur/BlurEditedMorph107.png,Stimuli/BlurMorphTrio/EditedMorph107.png,None,None,0,0,0,0,0,80,80,106,,,76,1,81,61,1.212024051,2.186549268,107,496.6547768,497.1490297,496.6547768,497.1490297,82.31292517,1574464728,1574464730,2.566986084,27,94,13,13,1574464726,1574464728,,,HL,1,21,F,Undergrad,2019_Nov_22_1511,AdjustExp1,3.1.5,59.96149165,Experiment
125,Stimuli/Morph125.JPG,Stimuli/Morph125.png,Stimuli/BlurLevel5/BlurEditedMorph125,Stimuli/BlurLevel5/BlurEditedMorph125.png,Stimuli/BlurLevel5/NumberedMorphs/BlurEditedMorph125.png,Stimuli/BlurLevel5/OriginalBlur/BlurEditedMorph125.png,Stimuli/BlurMorphTrio/EditedMorph125.png,None,None,0,0,0,0,0,81,81,124,,,89,1,82,267,-0.130839891,-2.496573837,125,501.9319946,502.4323363,501.9319946,502.4323363,61.9047619,1574464733,1574464735,2.501405954,140,97,28,28,1574464730,1574464733,,,HL,1,21,F,Undergrad,2019_Nov_22_1511,AdjustExp1,3.1.5,59.96149165,Experiment
147,Stimuli/Morph147.JPG,Stimuli/Morph147.png,Stimuli/BlurLevel5/BlurEditedMorph147,Stimuli/BlurLevel5/BlurEditedMorph147.png,Stimuli/BlurLevel5/NumberedMorphs/BlurEditedMorph147.png,Stimuli/BlurLevel5/OriginalBlur/BlurEditedMorph147.png,Stimuli/BlurMorphTrio/EditedMorph147.png,None,None,0,0,0,0,0,82,82,146,,,97,1,83,203,-2.301262134,-0.976827821,147,507.2818761,507.7820077,507.2818761,507.7820077,93.19727891,1574464738,1574464747,8.783123016,37,142,5,5,1574464736,1574464738,,,HL,1,21,F,Undergrad,2019_Nov_22_1511,AdjustExp1,3.1.5,59.96149165,Experiment
67,Stimuli/Morph67.JPG,Stimuli/Morph67.png,Stimuli/BlurLevel5/BlurEditedMorph67,Stimuli/BlurLevel5/BlurEditedMorph67.png,Stimuli/BlurLevel5/NumberedMorphs/BlurEditedMorph67.png,Stimuli/BlurLevel5/OriginalBlur/BlurEditedMorph67.png,Stimuli/BlurMorphTrio/EditedMorph67.png,020217right.gif,Stimuli/normal_thumbnails/67right.gif,0,0,0,0,0,83,83,66,,,44,1,84,221,-1.886773951,-1.640147572,67,518.8495055,519.3489063,518.8495055,519.3489063,97.27891156,1574464750,1574464751,1.032864094,62,69,-2,-2,1574464747,1574464750,,,HL,1,21,F,Undergrad,2019_Nov_22_1511,AdjustExp1,3.1.5,59.96149165,Experiment
39,Stimuli/Morph39.JPG,Stimuli/Morph39.png,Stimuli/BlurLevel5/BlurEditedMorph39,Stimuli/BlurLevel5/BlurEditedMorph39.png,Stimuli/BlurLevel5/NumberedMorphs/BlurEditedMorph39.png,Stimuli/BlurLevel5/OriginalBlur/BlurEditedMorph39.png,Stimuli/BlurMorphTrio/EditedMorph39.png,010109right.gif,Stimuli/normal_thumbnails/39right.gif,0,0,0,0,0,84,84,38,,,37,1,85,346,2.425739316,-0.604804739,39,522.6518805,523.1486565,522.6518805,523.1486565,93.19727891,1574464754,1574464756,1.749691963,41,44,-5,-5,1574464751,1574464754,,,HL,1,21,F,Undergrad,2019_Nov_22_1511,AdjustExp1,3.1.5,59.96149165,Experiment
101,Stimuli/Morph101.JPG,Stimuli/Morph101.png,Stimuli/BlurLevel5/BlurEditedMorph101,Stimuli/BlurLevel5/BlurEditedMorph101.png,Stimuli/BlurLevel5/NumberedMorphs/BlurEditedMorph101.png,Stimuli/BlurLevel5/OriginalBlur/BlurEditedMorph101.png,Stimuli/BlurMorphTrio/EditedMorph101.png,None,None,1,0,1,0,0,0,0,100,,,95,2,1,7,2.481365379,0.304673359,101,560.0145731,560.5149444,560.0145731,560.5149444,83.67346939,1574464791,1574464792,1.284927368,146,113,-12,-12,1574464789,1574464791,space,32.20507321,HL,1,21,F,Undergrad,2019_Nov_22_1511,AdjustExp1,3.1.5,59.96149165,Experiment
74,Stimuli/Morph74.JPG,Stimuli/Morph74.png,Stimuli/BlurLevel5/BlurEditedMorph74,Stimuli/BlurLevel5/BlurEditedMorph74.png,Stimuli/BlurLevel5/NumberedMorphs/BlurEditedMorph74.png,Stimuli/BlurLevel5/OriginalBlur/BlurEditedMorph74.png,Stimuli/BlurMorphTrio/EditedMorph74.png,020232right.gif,Stimuli/normal_thumbnails/74right.gif,1,0,1,0,0,1,1,73,,,14,2,2,77,0.562377636,2.435925162,74,563.7505594,564.2483598,563.7505594,564.2483598,89.11564626,1574464795,1574464799,3.948544025,100,66,8,8,1574464793,1574464795,,,HL,1,21,F,Undergrad,2019_Nov_22_1511,AdjustExp1,3.1.5,59.96149165,Experiment
89,Stimuli/Morph89.JPG,Stimuli/Morph89.png,Stimuli/BlurLevel5/BlurEditedMorph89,Stimuli/BlurLevel5/BlurEditedMorph89.png,Stimuli/BlurLevel5/NumberedMorphs/BlurEditedMorph89.png,Stimuli/BlurLevel5/OriginalBlur/BlurEditedMorph89.png,Stimuli/BlurMorphTrio/EditedMorph89.png,020273right.gif,Stimuli/normal_thumbnails/89right.gif,1,0,1,0,0,2,2,88,,,17,2,3,323,1.996588775,-1.504537558,89,570.2137868,570.7142859,570.2137868,570.7142859,63.26530612,1574464801,1574464803,1.949914932,45,116,-27,-27,1574464799,1574464801,,,HL,1,21,F,Undergrad,2019_Nov_22_1511,AdjustExp1,3.1.5,59.96149165,Experiment
133,Stimuli/Morph133.JPG,Stimuli/Morph133.png,Stimuli/BlurLevel5/BlurEditedMorph133,Stimuli/BlurLevel5/BlurEditedMorph133.png,Stimuli/BlurLevel5/NumberedMorphs/BlurEditedMorph133.png,Stimuli/BlurLevel5/OriginalBlur/BlurEditedMorph133.png,Stimuli/BlurMorphTrio/EditedMorph133.png,None,None,1,0,1,0,0,3,3,132,,,38,2,4,112,-0.936516484,2.317959636,133,574.7975859,575.2981918,574.7975859,575.2981918,75.51020408,1574464806,1574464808,2.133036852,25,115,18,18,1574464803,1574464806,,,HL,1,21,F,Undergrad,2019_Nov_22_1511,AdjustExp1,3.1.5,59.96149165,Experiment
136,Stimuli/Morph136.JPG,Stimuli/Morph136.png,Stimuli/BlurLevel5/BlurEditedMorph136,Stimuli/BlurLevel5/BlurEditedMorph136.png,Stimuli/BlurLevel5/NumberedMorphs/BlurEditedMorph136.png,Stimuli/BlurLevel5/OriginalBlur/BlurEditedMorph136.png,Stimuli/BlurMorphTrio/EditedMorph136.png,None,None,1,0,1,0,0,4,4,135,,,65,2,5,186,-2.486304738,-0.261321158,136,579.6308506,580.1312761,579.6308506,580.1312761,94.55782313,1574464811,1574464815,3.899142265,64,140,-4,-4,1574464808,1574464811,,,HL,1,21,F,Undergrad,2019_Nov_22_1511,AdjustExp1,3.1.5,59.96149165,Experiment
10,Stimuli/Morph10.JPG,Stimuli/Morph10.png,Stimuli/BlurLevel5/BlurEditedMorph10,Stimuli/BlurLevel5/BlurEditedMorph10.png,Stimuli/BlurLevel5/NumberedMorphs/BlurEditedMorph10.png,Stimuli/BlurLevel5/OriginalBlur/BlurEditedMorph10.png,Stimuli/BlurMorphTrio/EditedMorph10.png,010016right.gif,Stimuli/normal_thumbnails/10right.gif,1,0,1,0,0,5,5,9,,,69,2,6,82,0.347932752,2.475670172,10,585.9640799,586.4646568,585.9640799,586.4646568,64.62585034,1574464817,1574464819,2.466088057,89,131,-121,26,1574464815,1574464817,,,HL,1,21,F,Undergrad,2019_Nov_22_1511,AdjustExp1,3.1.5,59.96149165,Experiment
94,Stimuli/Morph94.JPG,Stimuli/Morph94.png,Stimuli/BlurLevel5/BlurEditedMorph94,Stimuli/BlurLevel5/BlurEditedMorph94.png,Stimuli/BlurLevel5/NumberedMorphs/BlurEditedMorph94.png,Stimuli/BlurLevel5/OriginalBlur/BlurEditedMorph94.png,Stimuli/BlurMorphTrio/EditedMorph94.png,020286right.gif,Stimuli/normal_thumbnails/94right.gif,1,0,1,0,0,6,6,93,,,28,2,7,112,-0.936516484,2.317959636,94,590.8539511,591.3474093,590.8539511,591.3474093,91.83673469,1574464822,1574464823,1.265878916,99,100,-6,-6,1574464820,1574464822,,,HL,1,21,F,Undergrad,2019_Nov_22_1511,AdjustExp1,3.1.5,59.96149165,Experiment
110,Stimuli/Morph110.JPG,Stimuli/Morph110.png,Stimuli/BlurLevel5/BlurEditedMorph110,Stimuli/BlurLevel5/BlurEditedMorph110.png,Stimuli/BlurLevel5/NumberedMorphs/BlurEditedMorph110.png,Stimuli/BlurLevel5/OriginalBlur/BlurEditedMorph110.png,Stimuli/BlurMorphTrio/EditedMorph110.png,None,None,1,0,1,0,0,7,7,109,,,62,2,8,337,2.301262134,-0.976827821,110,594.7809746,595.281129,594.7809746,595.281129,94.55782313,1574464826,1574464827,0.750632048,114,114,-4,-4,1574464823,1574464826,,,HL,1,21,F,Undergrad,2019_Nov_22_1511,AdjustExp1,3.1.5,59.96149165,Experiment
122,Stimuli/Morph122.JPG,Stimuli/Morph122.png,Stimuli/BlurLevel5/BlurEditedMorph122,Stimuli/BlurLevel5/BlurEditedMorph122.png,Stimuli/BlurLevel5/NumberedMorphs/BlurEditedMorph122.png,Stimuli/BlurLevel5/OriginalBlur/BlurEditedMorph122.png,Stimuli/BlurMorphTrio/EditedMorph122.png,None,None,1,0,1,0,0,8,8,121,,,8,2,9,277,0.304673359,-2.481365379,122,598.1213958,598.6137657,598.1213958,598.6137657,79.59183673,1574464829,1574464831,2.216090918,27,107,15,15,1574464827,1574464829,,,HL,1,21,F,Undergrad,2019_Nov_22_1511,AdjustExp1,3.1.5,59.96149165,Experiment
31,Stimuli/Morph31.JPG,Stimuli/Morph31.png,Stimuli/BlurLevel5/BlurEditedMorph31,Stimuli/BlurLevel5/BlurEditedMorph31.png,Stimuli/BlurLevel5/NumberedMorphs/BlurEditedMorph31.png,Stimuli/BlurLevel5/OriginalBlur/BlurEditedMorph31.png,Stimuli/BlurMorphTrio/EditedMorph31.png,010079right.gif,Stimuli/normal_thumbnails/31right.gif,1,0,1,0,0,9,9,30,,,91,2,10,71,0.813920386,2.363796439,31,602.9024621,603.397395,602.9024621,603.397395,100,1574464834,1574464835,1.383240223,8,31,0,0,1574464832,1574464834,,,HL,1,21,F,Undergrad,2019_Nov_22_1511,AdjustExp1,3.1.5,59.96149165,Experiment
111,Stimuli/Morph111.JPG,Stimuli/Morph111.png,Stimuli/BlurLevel5/BlurEditedMorph111,Stimuli/BlurLevel5/BlurEditedMorph111.png,Stimuli/BlurLevel5/NumberedMorphs/BlurEditedMorph111.png,Stimuli/BlurLevel5/OriginalBlur/BlurEditedMorph111.png,Stimuli/BlurMorphTrio/EditedMorph111.png,None,None,1,0,1,0,0,10,10,110,,,83,2,11,260,-0.434120444,-2.462019383,111,607.09725,607.5975194,607.09725,607.5975194,76.8707483,1574464838,1574464840,1.532906055,29,128,-17,-17,1574464836,1574464838,,,HL,1,21,F,Undergrad,2019_Nov_22_1511,AdjustExp1,3.1.5,59.96149165,Experiment
137,Stimuli/Morph137.JPG,Stimuli/Morph137.png,Stimuli/BlurLevel5/BlurEditedMorph137,Stimuli/BlurLevel5/BlurEditedMorph137.png,Stimuli/BlurLevel5/NumberedMorphs/BlurEditedMorph137.png,Stimuli/BlurLevel5/OriginalBlur/BlurEditedMorph137.png,Stimuli/BlurMorphTrio/EditedMorph137.png,None,None,1,0,1,0,0,11,11,136,,,68,2,12,79,0.477022488,2.454067959,137,610.9986225,611.4970478,610.9986225,611.4970478,82.31292517,1574464842,1574464844,2.416829109,81,124,13,13,1574464840,1574464842,,,HL,1,21,F,Undergrad,2019_Nov_22_1511,AdjustExp1,3.1.5,59.96149165,Experiment
129,Stimuli/Morph129.JPG,Stimuli/Morph129.png,Stimuli/BlurLevel5/BlurEditedMorph129,Stimuli/BlurLevel5/BlurEditedMorph129.png,Stimuli/BlurLevel5/NumberedMorphs/BlurEditedMorph129.png,Stimuli/BlurLevel5/OriginalBlur/BlurEditedMorph129.png,Stimuli/BlurMorphTrio/EditedMorph129.png,None,None,1,0,1,0,0,12,12,128,,,30,2,13,165,-2.414814566,0.647047613,129,616.0974403,616.5972234,616.0974403,616.5972234,94.55782313,1574464847,1574464849,1.816971064,48,133,-4,-4,1574464845,1574464847,,,HL,1,21,F,Undergrad,2019_Nov_22_1511,AdjustExp1,3.1.5,59.96149165,Experiment
113,Stimuli/Morph113.JPG,Stimuli/Morph113.png,Stimuli/BlurLevel5/BlurEditedMorph113,Stimuli/BlurLevel5/BlurEditedMorph113.png,Stimuli/BlurLevel5/NumberedMorphs/BlurEditedMorph113.png,Stimuli/BlurLevel5/OriginalBlur/BlurEditedMorph113.png,Stimuli/BlurMorphTrio/EditedMorph113.png,None,None,1,0,1,0,0,13,13,112,,,7,2,14,334,2.246985116,-1.095927867,113,620.5974941,621.0975506,620.5974941,621.0975506,94.55782313,1574464852,1574464853,0.983515739,135,109,4,4,1574464849,1574464852,,,HL,1,21,F,Undergrad,2019_Nov_22_1511,AdjustExp1,3.1.5,59.96149165,Experiment
144,Stimuli/Morph144.JPG,Stimuli/Morph144.png,Stimuli/BlurLevel5/BlurEditedMorph144,Stimuli/BlurLevel5/BlurEditedMorph144.png,Stimuli/BlurLevel5/NumberedMorphs/BlurEditedMorph144.png,Stimuli/BlurLevel5/OriginalBlur/BlurEditedMorph144.png,Stimuli/BlurMorphTrio/EditedMorph144.png,None,None,1,0,1,0,0,14,14,143,,,39,2,15,286,0.68909339,-2.40315424,144,624.2976176,624.7974694,624.2976176,624.7974694,97.27891156,1574464855,1574464856,1.016789913,16,142,2,2,1574464853,1574464855,,,HL,1,21,F,Undergrad,2019_Nov_22_1511,AdjustExp1,3.1.5,59.96149165,Experiment
43,Stimuli/Morph43.JPG,Stimuli/Morph43.png,Stimuli/BlurLevel5/BlurEditedMorph43,Stimuli/BlurLevel5/BlurEditedMorph43.png,Stimuli/BlurLevel5/NumberedMorphs/BlurEditedMorph43.png,Stimuli/BlurLevel5/OriginalBlur/BlurEditedMorph43.png,Stimuli/BlurMorphTrio/EditedMorph43.png,010124right.gif,Stimuli/normal_thumbnails/43right.gif,1,0,1,0,0,15,15,42,,,90,2,16,250,-0.855050358,-2.349231552,43,627.7803878,628.2803649,627.7803878,628.2803649,86.39455782,1574464859,1574464861,2.566360235,88,33,10,10,1574464857,1574464859,,,HL,1,21,F,Undergrad,2019_Nov_22_1511,AdjustExp1,3.1.5,59.96149165,Experiment
71,Stimuli/Morph71.JPG,Stimuli/Morph71.png,Stimuli/BlurLevel5/BlurEditedMorph71,Stimuli/BlurLevel5/BlurEditedMorph71.png,Stimuli/BlurLevel5/NumberedMorphs/BlurEditedMorph71.png,Stimuli/BlurLevel5/OriginalBlur/BlurEditedMorph71.png,Stimuli/BlurMorphTrio/EditedMorph71.png,020225right.gif,Stimuli/normal_thumbnails/71right.gif,1,0,1,0,0,16,16,70,,,64,2,17,16,2.40315424,0.68909339,71,632.863262,633.3636415,632.863262,633.3636415,89.11564626,1574464864,1574464867,3.099475861,36,63,8,8,1574464862,1574464864,,,HL,1,21,F,Undergrad,2019_Nov_22_1511,AdjustExp1,3.1.5,59.96149165,Experiment
106,Stimuli/Morph106.JPG,Stimuli/Morph106.png,Stimuli/BlurLevel5/BlurEditedMorph106,Stimuli/BlurLevel5/BlurEditedMorph106.png,Stimuli/BlurLevel5/NumberedMorphs/BlurEditedMorph106.png,Stimuli/BlurLevel5/OriginalBlur/BlurEditedMorph106.png,Stimuli/BlurMorphTrio/EditedMorph106.png,None,None,1,0,1,0,0,17,17,105,,,40,2,18,323,1.996588775,-1.504537558,106,638.7849434,639.2806428,638.7849434,639.2806428,86.39455782,1574464870,1574464871,0.81656599,116,116,-10,-10,1574464867,1574464870,,,HL,1,21,F,Undergrad,2019_Nov_22_1511,AdjustExp1,3.1.5,59.96149165,Experiment
81,Stimuli/Morph81.JPG,Stimuli/Morph81.png,Stimuli/BlurLevel5/BlurEditedMorph81,Stimuli/BlurLevel5/BlurEditedMorph81.png,Stimuli/BlurLevel5/NumberedMorphs/BlurEditedMorph81.png,Stimuli/BlurLevel5/OriginalBlur/BlurEditedMorph81.png,Stimuli/BlurMorphTrio/EditedMorph81.png,020245right.gif,Stimuli/normal_thumbnails/81right.gif,1,0,1,0,0,18,18,80,,,20,2,19,102,-0.519779227,2.445369002,81,642.2970957,642.7971612,642.2970957,642.7971612,91.83673469,1574464873,1574464878,4.584070921,123,75,6,6,1574464871,1574464873,,,HL,1,21,F,Undergrad,2019_Nov_22_1511,AdjustExp1,3.1.5,59.96149165,Experiment
108,Stimuli/Morph108.JPG,Stimuli/Morph108.png,Stimuli/BlurLevel5/BlurEditedMorph108,Stimuli/BlurLevel5/BlurEditedMorph108.png,Stimuli/BlurLevel5/NumberedMorphs/BlurEditedMorph108.png,Stimuli/BlurLevel5/OriginalBlur/BlurEditedMorph108.png,Stimuli/BlurMorphTrio/EditedMorph108.png,None,None,1,0,1,0,0,19,19,107,,,6,2,20,211,-2.142918252,-1.287595187,108,649.3301027,649.8298906,649.3301027,649.8298906,91.83673469,1574464880,1574464882,1.967834234,35,114,-6,-6,1574464878,1574464880,,,HL,1,21,F,Undergrad,2019_Nov_22_1511,AdjustExp1,3.1.5,59.96149165,Experiment
25,Stimuli/Morph25.JPG,Stimuli/Morph25.png,Stimuli/BlurLevel5/BlurEditedMorph25,Stimuli/BlurLevel5/BlurEditedMorph25.png,Stimuli/BlurLevel5/NumberedMorphs/BlurEditedMorph25.png,Stimuli/BlurLevel5/OriginalBlur/BlurEditedMorph25.png,Stimuli/BlurMorphTrio/EditedMorph25.png,010069right.gif,Stimuli/normal_thumbnails/25right.gif,1,0,1,0,0,20,20,24,,,89,2,21,10,2.462019383,0.434120444,25,653.6632577,654.1635925,653.6632577,654.1635925,86.39455782,1574464885,1574464887,1.916648388,141,15,10,10,1574464883,1574464885,,,HL,1,21,F,Undergrad,2019_Nov_22_1511,AdjustExp1,3.1.5,59.96149165,Experiment
29,Stimuli/Morph29.JPG,Stimuli/Morph29.png,Stimuli/BlurLevel5/BlurEditedMorph29,Stimuli/BlurLevel5/BlurEditedMorph29.png,Stimuli/BlurLevel5/NumberedMorphs/BlurEditedMorph29.png,Stimuli/BlurLevel5/OriginalBlur/BlurEditedMorph29.png,Stimuli/BlurMorphTrio/EditedMorph29.png,010074right.gif,Stimuli/normal_thumbnails/29right.gif,1,0,1,0,0,21,21,28,,,61,2,22,163,-2.39076189,0.730929262,29,658.0533371,658.5470697,658.0533371,658.5470697,100,1574464889,1574464892,3.350328207,120,29,0,0,1574464887,1574464889,,,HL,1,21,F,Undergrad,2019_Nov_22_1511,AdjustExp1,3.1.5,59.96149165,Experiment
41,Stimuli/Morph41.JPG,Stimuli/Morph41.png,Stimuli/BlurLevel5/BlurEditedMorph41,Stimuli/BlurLevel5/BlurEditedMorph41.png,Stimuli/BlurLevel5/NumberedMorphs/BlurEditedMorph41.png,Stimuli/BlurLevel5/OriginalBlur/BlurEditedMorph41.png,Stimuli/BlurMorphTrio/EditedMorph41.png,010112right.gif,Stimuli/normal_thumbnails/41right.gif,1,0,1,0,0,22,22,40,,,45,2,23,164,-2.40315424,0.68909339,41,663.8309007,664.3293372,663.8309007,664.3293372,98.63945578,1574464895,1574464897,2.548340082,92,42,-1,-1,1574464893,1574464895,,,HL,1,21,F,Undergrad,2019_Nov_22_1511,AdjustExp1,3.1.5,59.96149165,Experiment
64,Stimuli/Morph64.JPG,Stimuli/Morph64.png,Stimuli/BlurLevel5/BlurEditedMorph64,Stimuli/BlurLevel5/BlurEditedMorph64.png,Stimuli/BlurLevel5/NumberedMorphs/BlurEditedMorph64.png,Stimuli/BlurLevel5/OriginalBlur/BlurEditedMorph64.png,Stimuli/BlurMorphTrio/EditedMorph64.png,020208right.gif,Stimuli/normal_thumbnails/64right.gif,1,0,1,0,0,23,23,63,,,90,2,24,123,-1.361597588,2.09667642,64,668.9967942,669.4965464,668.9967942,669.4965464,85.03401361,1574464900,1574464905,4.566684961,95,53,11,11,1574464898,1574464900,,,HL,1,21,F,Undergrad,2019_Nov_22_1511,AdjustExp1,3.1.5,59.96149165,Experiment
19,Stimuli/Morph19.JPG,Stimuli/Morph19.png,Stimuli/BlurLevel5/BlurEditedMorph19,Stimuli/BlurLevel5/BlurEditedMorph19.png,Stimuli/BlurLevel5/NumberedMorphs/BlurEditedMorph19.png,Stimuli/BlurLevel5/OriginalBlur/BlurEditedMorph19.png,Stimuli/BlurMorphTrio/EditedMorph19.png,010045right.gif,Stimuli/normal_thumbnails/19right.gif,1,0,1,0,0,24,24,18,,,18,2,25,120,-1.25,2.165063509,19,675.9150443,676.4134853,675.9150443,676.4134853,100,1574464907,1574464909,2.400789976,43,19,0,0,1574464905,1574464907,,,HL,1,21,F,Undergrad,2019_Nov_22_1511,AdjustExp1,3.1.5,59.96149165,Experiment
37,Stimuli/Morph37.JPG,Stimuli/Morph37.png,Stimuli/BlurLevel5/BlurEditedMorph37,Stimuli/BlurLevel5/BlurEditedMorph37.png,Stimuli/BlurLevel5/NumberedMorphs/BlurEditedMorph37.png,Stimuli/BlurLevel5/OriginalBlur/BlurEditedMorph37.png,Stimuli/BlurMorphTrio/EditedMorph37.png,010097right.gif,Stimuli/normal_thumbnails/37right.gif,1,0,1,0,0,25,25,36,,,97,2,26,125,-1.433941091,2.047880111,37,681.1958753,681.6968187,681.1958753,681.6968187,97.27891156,1574464912,1574464914,1.399281263,146,39,-2,-2,1574464910,1574464912,,,HL,1,21,F,Undergrad,2019_Nov_22_1511,AdjustExp1,3.1.5,59.96149165,Experiment
116,Stimuli/Morph116.JPG,Stimuli/Morph116.png,Stimuli/BlurLevel5/BlurEditedMorph116,Stimuli/BlurLevel5/BlurEditedMorph116.png,Stimuli/BlurLevel5/NumberedMorphs/BlurEditedMorph116.png,Stimuli/BlurLevel5/OriginalBlur/BlurEditedMorph116.png,Stimuli/BlurMorphTrio/EditedMorph116.png,None,None,1,0,1,0,0,26,26,115,,,70,2,27,200,-2.349231552,-0.855050358,116,685.0635052,685.5631756,685.0635052,685.5631756,93.19727891,1574464916,1574464917,1.382248163,147,111,5,5,1574464914,1574464916,,,HL,1,21,F,Undergrad,2019_Nov_22_1511,AdjustExp1,3.1.5,59.96149165,Experiment
18,Stimuli/Morph18.JPG,Stimuli/Morph18.png,Stimuli/BlurLevel5/BlurEditedMorph18,Stimuli/BlurLevel5/BlurEditedMorph18.png,Stimuli/BlurLevel5/NumberedMorphs/BlurEditedMorph18.png,Stimuli/BlurLevel5/OriginalBlur/BlurEditedMorph18.png,Stimuli/BlurMorphTrio/EditedMorph18.png,010039right.gif,Stimuli/normal_thumbnails/18right.gif,1,0,1,0,0,27,27,17,,,9,2,28,223,-1.828384254,-1.7049959,18,688.7984728,689.2959927,688.7984728,689.2959927,98.63945578,1574464920,1574464924,4.317195177,50,17,1,1,1574464918,1574464920,,,HL,1,21,F,Undergrad,2019_Nov_22_1511,AdjustExp1,3.1.5,59.96149165,Experiment
59,Stimuli/Morph59.JPG,Stimuli/Morph59.png,Stimuli/BlurLevel5/BlurEditedMorph59,Stimuli/BlurLevel5/BlurEditedMorph59.png,Stimuli/BlurLevel5/NumberedMorphs/BlurEditedMorph59.png,Stimuli/BlurLevel5/OriginalBlur/BlurEditedMorph59.png,Stimuli/BlurMorphTrio/EditedMorph59.png,010160right.gif,Stimuli/normal_thumbnails/59right.gif,1,0,1,0,0,28,28,58,,,64,2,29,177,-2.496573837,0.130839891,59,695.7791074,696.2798245,695.7791074,696.2798245,94.55782313,1574464927,1574464930,3.050050974,100,55,4,4,1574464924,1574464927,,,HL,1,21,F,Undergrad,2019_Nov_22_1511,AdjustExp1,3.1.5,59.96149165,Experiment
65,Stimuli/Morph65.JPG,Stimuli/Morph65.png,Stimuli/BlurLevel5/BlurEditedMorph65,Stimuli/BlurLevel5/BlurEditedMorph65.png,Stimuli/BlurLevel5/NumberedMorphs/BlurEditedMorph65.png,Stimuli/BlurLevel5/OriginalBlur/BlurEditedMorph65.png,Stimuli/BlurMorphTrio/EditedMorph65.png,020209right.gif,Stimuli/normal_thumbnails/65right.gif,1,0,1,0,0,29,29,64,,,57,2,30,76,0.604804739,2.425739316,65,701.5795453,702.0793744,701.5795453,702.0793744,97.27891156,1574464933,1574464936,3.531489849,99,67,-2,-2,1574464930,1574464933,,,HL,1,21,F,Undergrad,2019_Nov_22_1511,AdjustExp1,3.1.5,59.96149165,Experiment
42,Stimuli/Morph42.JPG,Stimuli/Morph42.png,Stimuli/BlurLevel5/BlurEditedMorph42,Stimuli/BlurLevel5/BlurEditedMorph42.png,Stimuli/BlurLevel5/NumberedMorphs/BlurEditedMorph42.png,Stimuli/BlurLevel5/OriginalBlur/BlurEditedMorph42.png,Stimuli/BlurMorphTrio/EditedMorph42.png,010121right.gif,Stimuli/normal_thumbnails/42right.gif,1,0,1,0,0,30,30,41,,,20,2,31,253,-0.730929262,-2.39076189,42,707.4128761,707.913377,707.4128761,707.913377,82.31292517,1574464938,1574464940,1.916453123,120,55,-13,-13,1574464936,1574464938,,,HL,1,21,F,Undergrad,2019_Nov_22_1511,AdjustExp1,3.1.5,59.96149165,Experiment
99,Stimuli/Morph99.JPG,Stimuli/Morph99.png,Stimuli/BlurLevel5/BlurEditedMorph99,Stimuli/BlurLevel5/BlurEditedMorph99.png,Stimuli/BlurLevel5/NumberedMorphs/BlurEditedMorph99.png,Stimuli/BlurLevel5/OriginalBlur/BlurEditedMorph99.png,Stimuli/BlurMorphTrio/EditedMorph99.png,020299right.gif,Stimuli/normal_thumbnails/99right.gif,1,0,1,0,0,31,31,98,,,54,2,32,136,-1.798349501,1.736645926,99,711.6294102,712.1295185,711.6294102,712.1295185,98.63945578,1574464943,1574464946,3.48341608,81,98,1,1,1574464941,1574464943,,,HL,1,21,F,Undergrad,2019_Nov_22_1511,AdjustExp1,3.1.5,59.96149165,Experiment
40,Stimuli/Morph40.JPG,Stimuli/Morph40.png,Stimuli/BlurLevel5/BlurEditedMorph40,Stimuli/BlurLevel5/BlurEditedMorph40.png,Stimuli/BlurLevel5/NumberedMorphs/BlurEditedMorph40.png,Stimuli/BlurLevel5/OriginalBlur/BlurEditedMorph40.png,Stimuli/BlurMorphTrio/EditedMorph40.png,010110right.gif,Stimuli/normal_thumbnails/40right.gif,1,0,1,0,0,32,32,39,,,57,2,33,6,2.486304738,0.261321158,40,717.4175239,717.9125249,717.4175239,717.9125249,31.97278912,1574464948,1574464952,3.298903704,67,90,-50,-50,1574464946,1574464948,,,HL,1,21,F,Undergrad,2019_Nov_22_1511,AdjustExp1,3.1.5,59.96149165,Experiment
21,Stimuli/Morph21.JPG,Stimuli/Morph21.png,Stimuli/BlurLevel5/BlurEditedMorph21,Stimuli/BlurLevel5/BlurEditedMorph21.png,Stimuli/BlurLevel5/NumberedMorphs/BlurEditedMorph21.png,Stimuli/BlurLevel5/OriginalBlur/BlurEditedMorph21.png,Stimuli/BlurMorphTrio/EditedMorph21.png,010049right.gif,Stimuli/normal_thumbnails/21right.gif,1,0,1,0,0,33,33,20,,,27,2,34,39,1.942864904,1.573300978,21,723.0840373,723.5794107,723.0840373,723.5794107,97.27891156,1574464954,1574464960,5.500396967,9,19,2,2,1574464952,1574464954,,,HL,1,21,F,Undergrad,2019_Nov_22_1511,AdjustExp1,3.1.5,59.96149165,Experiment
82,Stimuli/Morph82.JPG,Stimuli/Morph82.png,Stimuli/BlurLevel5/BlurEditedMorph82,Stimuli/BlurLevel5/BlurEditedMorph82.png,Stimuli/BlurLevel5/NumberedMorphs/BlurEditedMorph82.png,Stimuli/BlurLevel5/OriginalBlur/BlurEditedMorph82.png,Stimuli/BlurMorphTrio/EditedMorph82.png,020247right.gif,Stimuli/normal_thumbnails/82right.gif,1,0,1,0,0,34,34,81,,,9,2,35,171,-2.469220851,0.391086163,82,730.6960075,731.1961575,730.6960075,731.1961575,83.67346939,1574464962,1574464968,6.000589132,132,94,-12,-12,1574464960,1574464962,,,HL,1,21,F,Undergrad,2019_Nov_22_1511,AdjustExp1,3.1.5,59.96149165,Experiment
83,Stimuli/Morph83.JPG,Stimuli/Morph83.png,Stimuli/BlurLevel5/BlurEditedMorph83,Stimuli/BlurLevel5/BlurEditedMorph83.png,Stimuli/BlurLevel5/NumberedMorphs/BlurEditedMorph83.png,Stimuli/BlurLevel5/OriginalBlur/BlurEditedMorph83.png,Stimuli/BlurMorphTrio/EditedMorph83.png,020259right.gif,Stimuli/normal_thumbnails/83right.gif,1,0,1,0,0,35,35,82,,,25,2,36,332,2.207368982,-1.173678907,83,739.2126203,739.7123244,739.2126203,739.7123244,52.38095238,1574464970,1574464973,2.616361141,7,118,-35,-35,1574464968,1574464970,,,HL,1,21,F,Undergrad,2019_Nov_22_1511,AdjustExp1,3.1.5,59.96149165,Experiment
22,Stimuli/Morph22.JPG,Stimuli/Morph22.png,Stimuli/BlurLevel5/BlurEditedMorph22,Stimuli/BlurLevel5/BlurEditedMorph22.png,Stimuli/BlurLevel5/NumberedMorphs/BlurEditedMorph22.png,Stimuli/BlurLevel5/OriginalBlur/BlurEditedMorph22.png,Stimuli/BlurMorphTrio/EditedMorph22.png,010055right.gif,Stimuli/normal_thumbnails/22right.gif,1,0,1,0,0,36,36,21,,,40,2,37,8,2.475670172,0.347932752,22,744.5618656,745.0622515,744.5618656,745.0622515,91.83673469,1574464976,1574464978,2.583449841,104,16,6,6,1574464973,1574464976,,,HL,1,21,F,Undergrad,2019_Nov_22_1511,AdjustExp1,3.1.5,59.96149165,Experiment
38,Stimuli/Morph38.JPG,Stimuli/Morph38.png,Stimuli/BlurLevel5/BlurEditedMorph38,Stimuli/BlurLevel5/BlurEditedMorph38.png,Stimuli/BlurLevel5/NumberedMorphs/BlurEditedMorph38.png,Stimuli/BlurLevel5/OriginalBlur/BlurEditedMorph38.png,Stimuli/BlurMorphTrio/EditedMorph38.png,010108right.gif,Stimuli/normal_thumbnails/38right.gif,1,0,1,0,0,37,37,37,,,68,2,38,140,-1.915111108,1.606969024,38,749.7637418,750.2622719,749.7637418,750.2622719,100,1574464981,1574464983,2.449840069,78,38,0,0,1574464978,1574464981,,,HL,1,21,F,Undergrad,2019_Nov_22_1511,AdjustExp1,3.1.5,59.96149165,Experiment
142,Stimuli/Morph142.JPG,Stimuli/Morph142.png,Stimuli/BlurLevel5/BlurEditedMorph142,Stimuli/BlurLevel5/BlurEditedMorph142.png,Stimuli/BlurLevel5/NumberedMorphs/BlurEditedMorph142.png,Stimuli/BlurLevel5/OriginalBlur/BlurEditedMorph142.png,Stimuli/BlurMorphTrio/EditedMorph142.png,None,None,1,0,1,0,0,38,38,141,,,56,2,39,212,-2.12012024,-1.324798161,142,755.0792679,755.5784419,755.0792679,755.5784419,97.27891156,1574464986,1574464989,3.233557701,83,144,-2,-2,1574464983,1574464986,,,HL,1,21,F,Undergrad,2019_Nov_22_1511,AdjustExp1,3.1.5,59.96149165,Experiment
1,Stimuli/Morph1.JPG,Stimuli/Morph1.png,Stimuli/BlurLevel5/BlurEditedMorph1,Stimuli/BlurLevel5/BlurEditedMorph1.png,Stimuli/BlurLevel5/NumberedMorphs/BlurEditedMorph1.png,Stimuli/BlurLevel5/OriginalBlur/BlurEditedMorph1.png,Stimuli/BlurMorphTrio/EditedMorph1.png,010003right.gif,Stimuli/normal_thumbnails/1right.gif,1,0,1,0,0,39,39,0,,,38,2,40,128,-1.539153688,1.970026884,1,760.9447047,761.4455456,760.9447047,761.4455456,85.03401361,1574464992,1574464998,5.583355904,30,137,-136,11,1574464990,1574464992,,,HL,1,21,F,Undergrad,2019_Nov_22_1511,AdjustExp1,3.1.5,59.96149165,Experiment
127,Stimuli/Morph127.JPG,Stimuli/Morph127.png,Stimuli/BlurLevel5/BlurEditedMorph127,Stimuli/BlurLevel5/BlurEditedMorph127.png,Stimuli/BlurLevel5/NumberedMorphs/BlurEditedMorph127.png,Stimuli/BlurLevel5/OriginalBlur/BlurEditedMorph127.png,Stimuli/BlurMorphTrio/EditedMorph127.png,None,None,1,0,1,0,0,40,40,126,,,50,2,41,309,1.573300978,-1.942864904,127,768.8623386,769.3621759,768.8623386,769.3621759,97.27891156,1574465000,1574465002,1.900789022,109,129,-2,-2,1574464998,1574465000,,,HL,1,21,F,Undergrad,2019_Nov_22_1511,AdjustExp1,3.1.5,59.96149165,Experiment
125,Stimuli/Morph125.JPG,Stimuli/Morph125.png,Stimuli/BlurLevel5/BlurEditedMorph125,Stimuli/BlurLevel5/BlurEditedMorph125.png,Stimuli/BlurLevel5/NumberedMorphs/BlurEditedMorph125.png,Stimuli/BlurLevel5/OriginalBlur/BlurEditedMorph125.png,Stimuli/BlurMorphTrio/EditedMorph125.png,None,None,1,0,1,0,0,41,41,124,,,66,2,42,183,-2.496573837,-0.130839891,125,773.0151668,773.5116915,773.0151668,773.5116915,95.91836735,1574465004,1574465006,1.750286102,99,128,-3,-3,1574465002,1574465004,,,HL,1,21,F,Undergrad,2019_Nov_22_1511,AdjustExp1,3.1.5,59.96149165,Experiment
95,Stimuli/Morph95.JPG,Stimuli/Morph95.png,Stimuli/BlurLevel5/BlurEditedMorph95,Stimuli/BlurLevel5/BlurEditedMorph95.png,Stimuli/BlurLevel5/NumberedMorphs/BlurEditedMorph95.png,Stimuli/BlurLevel5/OriginalBlur/BlurEditedMorph95.png,Stimuli/BlurMorphTrio/EditedMorph95.png,020287right.gif,Stimuli/normal_thumbnails/95right.gif,1,0,1,0,0,42,42,94,,,74,2,43,347,2.435925162,-0.562377636,95,777.1169549,777.6117463,777.1169549,777.6117463,71.42857143,1574465008,1574465011,2.466871262,55,116,-21,-21,1574465006,1574465008,,,HL,1,21,F,Undergrad,2019_Nov_22_1511,AdjustExp1,3.1.5,59.96149165,Experiment
114,Stimuli/Morph114.JPG,Stimuli/Morph114.png,Stimuli/BlurLevel5/BlurEditedMorph114,Stimuli/BlurLevel5/BlurEditedMorph114.png,Stimuli/BlurLevel5/NumberedMorphs/BlurEditedMorph114.png,Stimuli/BlurLevel5/OriginalBlur/BlurEditedMorph114.png,Stimuli/BlurMorphTrio/EditedMorph114.png,None,None,1,0,1,0,0,43,43,113,,,10,2,44,285,0.647047613,-2.414814566,114,782.144717,782.6447565,782.144717,782.6447565,100,1574465013,1574465015,2.066992998,72,114,0,0,1574465011,1574465013,,,HL,1,21,F,Undergrad,2019_Nov_22_1511,AdjustExp1,3.1.5,59.96149165,Experiment
131,Stimuli/Morph131.JPG,Stimuli/Morph131.png,Stimuli/BlurLevel5/BlurEditedMorph131,Stimuli/BlurLevel5/BlurEditedMorph131.png,Stimuli/BlurLevel5/NumberedMorphs/BlurEditedMorph131.png,Stimuli/BlurLevel5/OriginalBlur/BlurEditedMorph131.png,Stimuli/BlurMorphTrio/EditedMorph131.png,None,None,1,0,1,0,0,44,44,130,,,92,2,45,25,2.265769468,1.056545654,131,787.3635907,787.8619085,787.3635907,787.8619085,74.14965986,1574465018,1574465020,1.766698599,87,112,19,19,1574465015,1574465018,,,HL,1,21,F,Undergrad,2019_Nov_22_1511,AdjustExp1,3.1.5,59.96149165,Experiment
107,Stimuli/Morph107.JPG,Stimuli/Morph107.png,Stimuli/BlurLevel5/BlurEditedMorph107,Stimuli/BlurLevel5/BlurEditedMorph107.png,Stimuli/BlurLevel5/NumberedMorphs/BlurEditedMorph107.png,Stimuli/BlurLevel5/OriginalBlur/BlurEditedMorph107.png,Stimuli/BlurMorphTrio/EditedMorph107.png,None,None,1,0,1,0,0,45,45,106,,,87,2,46,241,-1.212024051,-2.186549268,107,791.7331165,792.2281395,791.7331165,792.2281395,94.55782313,1574465023,1574465025,1.883220196,35,103,4,4,1574465020,1574465023,,,HL,1,21,F,Undergrad,2019_Nov_22_1511,AdjustExp1,3.1.5,59.96149165,Experiment
52,Stimuli/Morph52.JPG,Stimuli/Morph52.png,Stimuli/BlurLevel5/BlurEditedMorph52,Stimuli/BlurLevel5/BlurEditedMorph52.png,Stimuli/BlurLevel5/NumberedMorphs/BlurEditedMorph52.png,Stimuli/BlurLevel5/OriginalBlur/BlurEditedMorph52.png,Stimuli/BlurMorphTrio/EditedMorph52.png,010148right.gif,Stimuli/normal_thumbnails/52right.gif,1,0,1,0,0,46,46,51,,,69,2,47,303,1.361597588,-2.09667642,52,796.1618745,796.6615752,796.1618745,796.6615752,83.67346939,1574465027,1574465029,1.600278139,72,40,12,12,1574465025,1574465027,,,HL,1,21,F,Undergrad,2019_Nov_22_1511,AdjustExp1,3.1.5,59.96149165,Experiment
2,Stimuli/Morph2.JPG,Stimuli/Morph2.png,Stimuli/BlurLevel5/BlurEditedMorph2,Stimuli/BlurLevel5/BlurEditedMorph2.png,Stimuli/BlurLevel5/NumberedMorphs/BlurEditedMorph2.png,Stimuli/BlurLevel5/OriginalBlur/BlurEditedMorph2.png,Stimuli/BlurMorphTrio/EditedMorph2.png,010006right.gif,Stimuli/normal_thumbnails/2right.gif,1,0,1,0,0,47,47,1,,,26,2,48,296,1.095927867,-2.246985116,2,800.4515597,800.9447425,800.4515597,800.9447425,89.11564626,1574465031,1574465034,2.467294931,59,141,-139,8,1574465029,1574465031,,,HL,1,21,F,Undergrad,2019_Nov_22_1511,AdjustExp1,3.1.5,59.96149165,Experiment
67,Stimuli/Morph67.JPG,Stimuli/Morph67.png,Stimuli/BlurLevel5/BlurEditedMorph67,Stimuli/BlurLevel5/BlurEditedMorph67.png,Stimuli/BlurLevel5/NumberedMorphs/BlurEditedMorph67.png,Stimuli/BlurLevel5/OriginalBlur/BlurEditedMorph67.png,Stimuli/BlurMorphTrio/EditedMorph67.png,020217right.gif,Stimuli/normal_thumbnails/67right.gif,1,0,1,0,0,48,48,66,,,97,2,49,320,1.915111108,-1.606969024,67,805.7280213,806.2282717,805.7280213,806.2282717,95.91836735,1574465037,1574465040,2.86597991,134,70,-3,-3,1574465034,1574465037,,,HL,1,21,F,Undergrad,2019_Nov_22_1511,AdjustExp1,3.1.5,59.96149165,Experiment
128,Stimuli/Morph128.JPG,Stimuli/Morph128.png,Stimuli/BlurLevel5/BlurEditedMorph128,Stimuli/BlurLevel5/BlurEditedMorph128.png,Stimuli/BlurLevel5/NumberedMorphs/BlurEditedMorph128.png,Stimuli/BlurLevel5/OriginalBlur/BlurEditedMorph128.png,Stimuli/BlurMorphTrio/EditedMorph128.png,None,None,1,0,1,0,0,49,49,127,,,100,2,50,162,-2.377641291,0.772542486,128,811.1787629,811.6783099,811.1787629,811.6783099,98.63945578,1574465042,1574465044,1.732952833,36,129,-1,-1,1574465040,1574465042,,,HL,1,21,F,Undergrad,2019_Nov_22_1511,AdjustExp1,3.1.5,59.96149165,Experiment
20,Stimuli/Morph20.JPG,Stimuli/Morph20.png,Stimuli/BlurLevel5/BlurEditedMorph20,Stimuli/BlurLevel5/BlurEditedMorph20.png,Stimuli/BlurLevel5/NumberedMorphs/BlurEditedMorph20.png,Stimuli/BlurLevel5/OriginalBlur/BlurEditedMorph20.png,Stimuli/BlurMorphTrio/EditedMorph20.png,010046right.gif,Stimuli/normal_thumbnails/20right.gif,1,0,1,0,0,50,50,19,,,2,2,51,110,-0.855050358,2.349231552,20,815.4782525,815.9779529,815.4782525,815.9779529,98.63945578,1574465046,1574465048,1.216877937,146,19,1,1,1574465044,1574465046,,,HL,1,21,F,Undergrad,2019_Nov_22_1511,AdjustExp1,3.1.5,59.96149165,Experiment
23,Stimuli/Morph23.JPG,Stimuli/Morph23.png,Stimuli/BlurLevel5/BlurEditedMorph23,Stimuli/BlurLevel5/BlurEditedMorph23.png,Stimuli/BlurLevel5/NumberedMorphs/BlurEditedMorph23.png,Stimuli/BlurLevel5/OriginalBlur/BlurEditedMorph23.png,Stimuli/BlurMorphTrio/EditedMorph23.png,010063right.gif,Stimuli/normal_thumbnails/23right.gif,1,0,1,0,0,51,51,22,,,79,2,52,193,-2.435925162,-0.562377636,23,819.2128159,819.711586,819.2128159,819.711586,85.03401361,1574465050,1574465054,4.03455019,2,34,-11,-11,1574465048,1574465050,,,HL,1,21,F,Undergrad,2019_Nov_22_1511,AdjustExp1,3.1.5,59.96149165,Experiment
141,Stimuli/Morph141.JPG,Stimuli/Morph141.png,Stimuli/BlurLevel5/BlurEditedMorph141,Stimuli/BlurLevel5/BlurEditedMorph141.png,Stimuli/BlurLevel5/NumberedMorphs/BlurEditedMorph141.png,Stimuli/BlurLevel5/OriginalBlur/BlurEditedMorph141.png,Stimuli/BlurMorphTrio/EditedMorph141.png,None,None,1,0,1,0,0,52,52,140,,,75,2,53,215,-2.047880111,-1.433941091,141,825.478044,825.9781777,825.478044,825.9781777,91.83673469,1574465056,1574465059,2.284098148,70,147,-6,-6,1574465055,1574465056,,,HL,1,21,F,Undergrad,2019_Nov_22_1511,AdjustExp1,3.1.5,59.96149165,Experiment
49,Stimuli/Morph49.JPG,Stimuli/Morph49.png,Stimuli/BlurLevel5/BlurEditedMorph49,Stimuli/BlurLevel5/BlurEditedMorph49.png,Stimuli/BlurLevel5/NumberedMorphs/BlurEditedMorph49.png,Stimuli/BlurLevel5/OriginalBlur/BlurEditedMorph49.png,Stimuli/BlurMorphTrio/EditedMorph49.png,010135right.gif,Stimuli/normal_thumbnails/49right.gif,1,0,1,0,0,53,53,48,,,94,2,54,268,-0.087248742,-2.498477068,49,830.2612251,830.7613226,830.2612251,830.7613226,100,1574465061,1574465063,1.483654022,36,49,0,0,1574465059,1574465061,,,HL,1,21,F,Undergrad,2019_Nov_22_1511,AdjustExp1,3.1.5,59.96149165,Experiment
79,Stimuli/Morph79.JPG,Stimuli/Morph79.png,Stimuli/BlurLevel5/BlurEditedMorph79,Stimuli/BlurLevel5/BlurEditedMorph79.png,Stimuli/BlurLevel5/NumberedMorphs/BlurEditedMorph79.png,Stimuli/BlurLevel5/OriginalBlur/BlurEditedMorph79.png,Stimuli/BlurMorphTrio/EditedMorph79.png,020239right.gif,Stimuli/normal_thumbnails/79right.gif,1,0,1,0,0,54,54,78,,,39,2,55,6,2.486304738,0.261321158,79,834.3107129,834.8109203,834.3107129,834.8109203,90.47619048,1574465065,1574465068,2.216917992,61,72,7,7,1574465063,1574465065,,,HL,1,21,F,Undergrad,2019_Nov_22_1511,AdjustExp1,3.1.5,59.96149165,Experiment
56,Stimuli/Morph56.JPG,Stimuli/Morph56.png,Stimuli/BlurLevel5/BlurEditedMorph56,Stimuli/BlurLevel5/BlurEditedMorph56.png,Stimuli/BlurLevel5/NumberedMorphs/BlurEditedMorph56.png,Stimuli/BlurLevel5/OriginalBlur/BlurEditedMorph56.png,Stimuli/BlurMorphTrio/EditedMorph56.png,010157right.gif,Stimuli/normal_thumbnails/56right.gif,1,0,1,0,0,55,55,55,,,40,2,56,252,-0.772542486,-2.377641291,56,839.110655,839.6111489,839.110655,839.6111489,71.42857143,1574465070,1574465072,2.249641895,28,77,-21,-21,1574465068,1574465070,,,HL,1,21,F,Undergrad,2019_Nov_22_1511,AdjustExp1,3.1.5,59.96149165,Experiment
39,Stimuli/Morph39.JPG,Stimuli/Morph39.png,Stimuli/BlurLevel5/BlurEditedMorph39,Stimuli/BlurLevel5/BlurEditedMorph39.png,Stimuli/BlurLevel5/NumberedMorphs/BlurEditedMorph39.png,Stimuli/BlurLevel5/OriginalBlur/BlurEditedMorph39.png,Stimuli/BlurMorphTrio/EditedMorph39.png,010109right.gif,Stimuli/normal_thumbnails/39right.gif,1,0,1,0,0,56,56,38,,,66,2,57,91,-0.043631016,2.499619238,39,843.6280132,844.1280836,843.6280132,844.1280836,97.27891156,1574465075,1574465076,1.38350606,35,41,-2,-2,1574465073,1574465075,,,HL,1,21,F,Undergrad,2019_Nov_22_1511,AdjustExp1,3.1.5,59.96149165,Experiment
68,Stimuli/Morph68.JPG,Stimuli/Morph68.png,Stimuli/BlurLevel5/BlurEditedMorph68,Stimuli/BlurLevel5/BlurEditedMorph68.png,Stimuli/BlurLevel5/NumberedMorphs/BlurEditedMorph68.png,Stimuli/BlurLevel5/OriginalBlur/BlurEditedMorph68.png,Stimuli/BlurMorphTrio/EditedMorph68.png,020218right.gif,Stimuli/normal_thumbnails/68right.gif,1,0,1,0,0,57,57,67,,,64,2,58,104,-0.604804739,2.425739316,68,847.4607545,847.9610961,847.4607545,847.9610961,98.63945578,1574465078,1574465082,3.416841984,100,69,-1,-1,1574465076,1574465078,,,HL,1,21,F,Undergrad,2019_Nov_22_1511,AdjustExp1,3.1.5,59.96149165,Experiment
139,Stimuli/Morph139.JPG,Stimuli/Morph139.png,Stimuli/BlurLevel5/BlurEditedMorph139,Stimuli/BlurLevel5/BlurEditedMorph139.png,Stimuli/BlurLevel5/NumberedMorphs/BlurEditedMorph139.png,Stimuli/BlurLevel5/OriginalBlur/BlurEditedMorph139.png,Stimuli/BlurMorphTrio/EditedMorph139.png,None,None,1,0,1,0,0,58,58,138,,,82,2,59,105,-0.647047613,2.414814566,139,853.4822238,853.9774187,853.4822238,853.9774187,91.83673469,1574465084,1574465086,1.233308792,124,133,6,6,1574465082,1574465084,,,HL,1,21,F,Undergrad,2019_Nov_22_1511,AdjustExp1,3.1.5,59.96149165,Experiment
61,Stimuli/Morph61.JPG,Stimuli/Morph61.png,Stimuli/BlurLevel5/BlurEditedMorph61,Stimuli/BlurLevel5/BlurEditedMorph61.png,Stimuli/BlurLevel5/NumberedMorphs/BlurEditedMorph61.png,Stimuli/BlurLevel5/OriginalBlur/BlurEditedMorph61.png,Stimuli/BlurMorphTrio/EditedMorph61.png,020201right.gif,Stimuli/normal_thumbnails/61right.gif,1,0,1,0,0,59,59,60,,,37,2,60,181,-2.499619238,-0.043631016,61,857.5287593,858.0269168,857.5287593,858.0269168,97.27891156,1574465089,1574465094,5.283880949,99,63,-2,-2,1574465086,1574465089,,,HL,1,21,F,Undergrad,2019_Nov_22_1511,AdjustExp1,3.1.5,59.96149165,Experiment
57,Stimuli/Morph57.JPG,Stimuli/Morph57.png,Stimuli/BlurLevel5/BlurEditedMorph57,Stimuli/BlurLevel5/BlurEditedMorph57.png,Stimuli/BlurLevel5/NumberedMorphs/BlurEditedMorph57.png,Stimuli/BlurLevel5/OriginalBlur/BlurEditedMorph57.png,Stimuli/BlurMorphTrio/EditedMorph57.png,010158right.gif,Stimuli/normal_thumbnails/57right.gif,1,0,1,0,0,60,60,56,,,55,2,61,177,-2.496573837,0.130839891,57,865.3328553,865.8275099,865.3328553,865.8275099,83.67346939,1574465096,1574465097,0.800725937,45,45,12,12,1574465094,1574465096,,,HL,1,21,F,Undergrad,2019_Nov_22_1511,AdjustExp1,3.1.5,59.96149165,Experiment
53,Stimuli/Morph53.JPG,Stimuli/Morph53.png,Stimuli/BlurLevel5/BlurEditedMorph53,Stimuli/BlurLevel5/BlurEditedMorph53.png,Stimuli/BlurLevel5/NumberedMorphs/BlurEditedMorph53.png,Stimuli/BlurLevel5/OriginalBlur/BlurEditedMorph53.png,Stimuli/BlurMorphTrio/EditedMorph53.png,010149right.gif,Stimuli/normal_thumbnails/53right.gif,1,0,1,0,0,61,61,52,,,100,2,62,106,-0.68909339,2.40315424,53,868.8127447,869.310688,868.8127447,869.310688,97.27891156,1574465100,1574465104,3.966763973,93,55,-2,-2,1574465097,1574465100,,,HL,1,21,F,Undergrad,2019_Nov_22_1511,AdjustExp1,3.1.5,59.96149165,Experiment
15,Stimuli/Morph15.JPG,Stimuli/Morph15.png,Stimuli/BlurLevel5/BlurEditedMorph15,Stimuli/BlurLevel5/BlurEditedMorph15.png,Stimuli/BlurLevel5/NumberedMorphs/BlurEditedMorph15.png,Stimuli/BlurLevel5/OriginalBlur/BlurEditedMorph15.png,Stimuli/BlurMorphTrio/EditedMorph15.png,010031right.gif,Stimuli/normal_thumbnails/15right.gif,1,0,1,0,0,62,62,14,,,57,2,63,204,-2.283863644,-1.016841608,15,875.3804573,875.8768167,875.3804573,875.8768167,100,1574465106,1574465108,1.666630745,57,15,0,0,1574465104,1574465106,,,HL,1,21,F,Undergrad,2019_Nov_22_1511,AdjustExp1,3.1.5,59.96149165,Experiment
73,Stimuli/Morph73.JPG,Stimuli/Morph73.png,Stimuli/BlurLevel5/BlurEditedMorph73,Stimuli/BlurLevel5/BlurEditedMorph73.png,Stimuli/BlurLevel5/NumberedMorphs/BlurEditedMorph73.png,Stimuli/BlurLevel5/OriginalBlur/BlurEditedMorph73.png,Stimuli/BlurMorphTrio/EditedMorph73.png,020230right.gif,Stimuli/normal_thumbnails/73right.gif,1,0,1,0,0,63,63,72,,,67,2,64,31,2.142918252,1.287595187,73,879.8816618,880.3770694,879.8816618,880.3770694,90.47619048,1574465111,1574465114,3.299864054,14,66,7,7,1574465108,1574465111,,,HL,1,21,F,Undergrad,2019_Nov_22_1511,AdjustExp1,3.1.5,59.96149165,Experiment
47,Stimuli/Morph47.JPG,Stimuli/Morph47.png,Stimuli/BlurLevel5/BlurEditedMorph47,Stimuli/BlurLevel5/BlurEditedMorph47.png,Stimuli/BlurLevel5/NumberedMorphs/BlurEditedMorph47.png,Stimuli/BlurLevel5/OriginalBlur/BlurEditedMorph47.png,Stimuli/BlurMorphTrio/EditedMorph47.png,010130right.gif,Stimuli/normal_thumbnails/47right.gif,1,0,1,0,0,64,64,46,,,21,2,65,346,2.425739316,-0.604804739,47,885.6335131,886.1273061,885.6335131,886.1273061,89.11564626,1574465117,1574465120,3.550234318,120,55,-8,-8,1574465114,1574465117,,,HL,1,21,F,Undergrad,2019_Nov_22_1511,AdjustExp1,3.1.5,59.96149165,Experiment
112,Stimuli/Morph112.JPG,Stimuli/Morph112.png,Stimuli/BlurLevel5/BlurEditedMorph112,Stimuli/BlurLevel5/BlurEditedMorph112.png,Stimuli/BlurLevel5/NumberedMorphs/BlurEditedMorph112.png,Stimuli/BlurLevel5/OriginalBlur/BlurEditedMorph112.png,Stimuli/BlurMorphTrio/EditedMorph112.png,None,None,1,0,1,0,0,65,65,111,,,89,2,66,210,-2.165063509,-1.25,112,891.5322799,892.0266039,891.5322799,892.0266039,83.67346939,1574465123,1574465124,1.766866922,23,124,-12,-12,1574465120,1574465123,,,HL,1,21,F,Undergrad,2019_Nov_22_1511,AdjustExp1,3.1.5,59.96149165,Experiment
140,Stimuli/Morph140.JPG,Stimuli/Morph140.png,Stimuli/BlurLevel5/BlurEditedMorph140,Stimuli/BlurLevel5/BlurEditedMorph140.png,Stimuli/BlurLevel5/NumberedMorphs/BlurEditedMorph140.png,Stimuli/BlurLevel5/OriginalBlur/BlurEditedMorph140.png,Stimuli/BlurMorphTrio/EditedMorph140.png,None,None,1,0,1,0,0,66,66,139,,,70,2,67,33,2.09667642,1.361597588,140,895.5617971,896.0600921,895.5617971,896.0600921,100,1574465127,1574465129,2.399725914,41,140,0,0,1574465125,1574465127,,,HL,1,21,F,Undergrad,2019_Nov_22_1511,AdjustExp1,3.1.5,59.96149165,Experiment
91,Stimuli/Morph91.JPG,Stimuli/Morph91.png,Stimuli/BlurLevel5/BlurEditedMorph91,Stimuli/BlurLevel5/BlurEditedMorph91.png,Stimuli/BlurLevel5/NumberedMorphs/BlurEditedMorph91.png,Stimuli/BlurLevel5/OriginalBlur/BlurEditedMorph91.png,Stimuli/BlurMorphTrio/EditedMorph91.png,020276right.gif,Stimuli/normal_thumbnails/91right.gif,1,0,1,0,0,67,67,90,,,20,2,68,169,-2.454067959,0.477022488,91,900.5266448,901.0265837,900.5266448,901.0265837,59.18367347,1574465132,1574465133,1.583169937,27,121,-30,-30,1574465129,1574465132,,,HL,1,21,F,Undergrad,2019_Nov_22_1511,AdjustExp1,3.1.5,59.96149165,Experiment
46,Stimuli/Morph46.JPG,Stimuli/Morph46.png,Stimuli/BlurLevel5/BlurEditedMorph46,Stimuli/BlurLevel5/BlurEditedMorph46.png,Stimuli/BlurLevel5/NumberedMorphs/BlurEditedMorph46.png,Stimuli/BlurLevel5/OriginalBlur/BlurEditedMorph46.png,Stimuli/BlurMorphTrio/EditedMorph46.png,010128right.gif,Stimuli/normal_thumbnails/46right.gif,1,0,1,0,0,68,68,45,,,13,2,69,42,1.857862064,1.672826516,46,905.0593705,905.5598847,905.0593705,905.5598847,86.39455782,1574465136,1574465137,1.30071497,34,56,-10,-10,1574465133,1574465136,,,HL,1,21,F,Undergrad,2019_Nov_22_1511,AdjustExp1,3.1.5,59.96149165,Experiment
32,Stimuli/Morph32.JPG,Stimuli/Morph32.png,Stimuli/BlurLevel5/BlurEditedMorph32,Stimuli/BlurLevel5/BlurEditedMorph32.png,Stimuli/BlurLevel5/NumberedMorphs/BlurEditedMorph32.png,Stimuli/BlurLevel5/OriginalBlur/BlurEditedMorph32.png,Stimuli/BlurMorphTrio/EditedMorph32.png,010080right.gif,Stimuli/normal_thumbnails/32right.gif,1,0,1,0,0,69,69,31,,,79,2,70,331,2.186549268,-1.212024051,32,908.9105547,909.4102846,908.9105547,909.4102846,86.39455782,1574465140,1574465144,4.433491945,63,42,-10,-10,1574465138,1574465140,,,HL,1,21,F,Undergrad,2019_Nov_22_1511,AdjustExp1,3.1.5,59.96149165,Experiment
75,Stimuli/Morph75.JPG,Stimuli/Morph75.png,Stimuli/BlurLevel5/BlurEditedMorph75,Stimuli/BlurLevel5/BlurEditedMorph75.png,Stimuli/BlurLevel5/NumberedMorphs/BlurEditedMorph75.png,Stimuli/BlurLevel5/OriginalBlur/BlurEditedMorph75.png,Stimuli/BlurMorphTrio/EditedMorph75.png,020233right.gif,Stimuli/normal_thumbnails/75right.gif,1,0,1,0,0,70,70,74,,,18,2,71,26,2.246985116,1.095927867,75,915.8767293,916.3768698,915.8767293,916.3768698,94.55782313,1574465147,1574465148,1.483712912,85,71,4,4,1574465145,1574465147,,,HL,1,21,F,Undergrad,2019_Nov_22_1511,AdjustExp1,3.1.5,59.96149165,Experiment
28,Stimuli/Morph28.JPG,Stimuli/Morph28.png,Stimuli/BlurLevel5/BlurEditedMorph28,Stimuli/BlurLevel5/BlurEditedMorph28.png,Stimuli/BlurLevel5/NumberedMorphs/BlurEditedMorph28.png,Stimuli/BlurLevel5/OriginalBlur/BlurEditedMorph28.png,Stimuli/BlurMorphTrio/EditedMorph28.png,010073right.gif,Stimuli/normal_thumbnails/28right.gif,1,0,1,0,0,71,71,27,,,42,2,72,16,2.40315424,0.68909339,28,920.4104867,920.9098407,920.4104867,920.9098407,94.55782313,1574465151,1574465153,1.416621923,4,32,-4,-4,1574465149,1574465151,,,HL,1,21,F,Undergrad,2019_Nov_22_1511,AdjustExp1,3.1.5,59.96149165,Experiment
97,Stimuli/Morph97.JPG,Stimuli/Morph97.png,Stimuli/BlurLevel5/BlurEditedMorph97,Stimuli/BlurLevel5/BlurEditedMorph97.png,Stimuli/BlurLevel5/NumberedMorphs/BlurEditedMorph97.png,Stimuli/BlurLevel5/OriginalBlur/BlurEditedMorph97.png,Stimuli/BlurMorphTrio/EditedMorph97.png,020294right.gif,Stimuli/normal_thumbnails/97right.gif,1,0,1,0,0,72,72,96,,,23,2,73,325,2.047880111,-1.433941091,97,924.2096028,924.7093242,924.2096028,924.7093242,78.23129252,1574465155,1574465157,2.216264963,55,113,-16,-16,1574465153,1574465155,,,HL,1,21,F,Undergrad,2019_Nov_22_1511,AdjustExp1,3.1.5,59.96149165,Experiment
90,Stimuli/Morph90.JPG,Stimuli/Morph90.png,Stimuli/BlurLevel5/BlurEditedMorph90,Stimuli/BlurLevel5/BlurEditedMorph90.png,Stimuli/BlurLevel5/NumberedMorphs/BlurEditedMorph90.png,Stimuli/BlurLevel5/OriginalBlur/BlurEditedMorph90.png,Stimuli/BlurMorphTrio/EditedMorph90.png,020275right.gif,Stimuli/normal_thumbnails/90right.gif,1,0,1,0,0,73,73,89,,,11,2,74,311,1.640147572,-1.886773951,90,929.5604963,930.0592262,929.5604963,930.0592262,72.78911565,1574465161,1574465162,1.299914837,106,110,-20,-20,1574465158,1574465161,,,HL,1,21,F,Undergrad,2019_Nov_22_1511,AdjustExp1,3.1.5,59.96149165,Experiment
58,Stimuli/Morph58.JPG,Stimuli/Morph58.png,Stimuli/BlurLevel5/BlurEditedMorph58,Stimuli/BlurLevel5/BlurEditedMorph58.png,Stimuli/BlurLevel5/NumberedMorphs/BlurEditedMorph58.png,Stimuli/BlurLevel5/OriginalBlur/BlurEditedMorph58.png,Stimuli/BlurMorphTrio/EditedMorph58.png,010159right.gif,Stimuli/normal_thumbnails/58right.gif,1,0,1,0,0,74,74,57,,,58,2,75,26,2.246985116,1.095927867,58,933.4785063,933.9765663,933.4785063,933.9765663,63.26530612,1574465164,1574465166,1.549710035,131,31,27,27,1574465162,1574465164,,,HL,1,21,F,Undergrad,2019_Nov_22_1511,AdjustExp1,3.1.5,59.96149165,Experiment
105,Stimuli/Morph105.JPG,Stimuli/Morph105.png,Stimuli/BlurLevel5/BlurEditedMorph105,Stimuli/BlurLevel5/BlurEditedMorph105.png,Stimuli/BlurLevel5/NumberedMorphs/BlurEditedMorph105.png,Stimuli/BlurLevel5/OriginalBlur/BlurEditedMorph105.png,Stimuli/BlurMorphTrio/EditedMorph105.png,None,None,1,0,1,0,0,75,75,104,,,32,2,76,291,0.895919874,-2.333951066,105,937.6629972,938.1593203,937.6629972,938.1593203,87.75510204,1574465169,1574465172,3.116457224,3,96,9,9,1574465166,1574465169,,,HL,1,21,F,Undergrad,2019_Nov_22_1511,AdjustExp1,3.1.5,59.96149165,Experiment
26,Stimuli/Morph26.JPG,Stimuli/Morph26.png,Stimuli/BlurLevel5/BlurEditedMorph26,Stimuli/BlurLevel5/BlurEditedMorph26.png,Stimuli/BlurLevel5/NumberedMorphs/BlurEditedMorph26.png,Stimuli/BlurLevel5/OriginalBlur/BlurEditedMorph26.png,Stimuli/BlurMorphTrio/EditedMorph26.png,010070right.gif,Stimuli/normal_thumbnails/26right.gif,1,0,1,0,0,76,76,25,,,40,2,77,10,2.462019383,0.434120444,26,943.4938948,943.9928959,943.4938948,943.9928959,87.75510204,1574465174,1574465177,2.333346844,102,17,9,9,1574465172,1574465174,,,HL,1,21,F,Undergrad,2019_Nov_22_1511,AdjustExp1,3.1.5,59.96149165,Experiment
104,Stimuli/Morph104.JPG,Stimuli/Morph104.png,Stimuli/BlurLevel5/BlurEditedMorph104,Stimuli/BlurLevel5/BlurEditedMorph104.png,Stimuli/BlurLevel5/NumberedMorphs/BlurEditedMorph104.png,Stimuli/BlurLevel5/OriginalBlur/BlurEditedMorph104.png,Stimuli/BlurMorphTrio/EditedMorph104.png,None,None,1,0,1,0,0,77,77,103,,,99,2,78,66,1.016841608,2.283863644,104,948.0098108,948.5097097,948.0098108,948.5097097,75.51020408,1574465179,1574465181,2.233613968,34,122,-18,-18,1574465177,1574465179,,,HL,1,21,F,Undergrad,2019_Nov_22_1511,AdjustExp1,3.1.5,59.96149165,Experiment
17,Stimuli/Morph17.JPG,Stimuli/Morph17.png,Stimuli/BlurLevel5/BlurEditedMorph17,Stimuli/BlurLevel5/BlurEditedMorph17.png,Stimuli/BlurLevel5/NumberedMorphs/BlurEditedMorph17.png,Stimuli/BlurLevel5/OriginalBlur/BlurEditedMorph17.png,Stimuli/BlurMorphTrio/EditedMorph17.png,010036right.gif,Stimuli/normal_thumbnails/17right.gif,1,0,1,0,0,78,78,16,,,61,2,79,211,-2.142918252,-1.287595187,17,952.6769471,953.1753019,952.6769471,953.1753019,98.63945578,1574465184,1574465186,2.582836151,60,18,-1,-1,1574465182,1574465184,,,HL,1,21,F,Undergrad,2019_Nov_22_1511,AdjustExp1,3.1.5,59.96149165,Experiment
109,Stimuli/Morph109.JPG,Stimuli/Morph109.png,Stimuli/BlurLevel5/BlurEditedMorph109,Stimuli/BlurLevel5/BlurEditedMorph109.png,Stimuli/BlurLevel5/NumberedMorphs/BlurEditedMorph109.png,Stimuli/BlurLevel5/OriginalBlur/BlurEditedMorph109.png,Stimuli/BlurMorphTrio/EditedMorph109.png,None,None,1,0,1,0,0,79,79,108,,,69,2,80,116,-1.095927867,2.246985116,109,957.7586795,958.2592337,957.7586795,958.2592337,90.47619048,1574465189,1574465190,1.683835745,33,116,-7,-7,1574465187,1574465189,,,HL,1,21,F,Undergrad,2019_Nov_22_1511,AdjustExp1,3.1.5,59.96149165,Experiment
123,Stimuli/Morph123.JPG,Stimuli/Morph123.png,Stimuli/BlurLevel5/BlurEditedMorph123,Stimuli/BlurLevel5/BlurEditedMorph123.png,Stimuli/BlurLevel5/NumberedMorphs/BlurEditedMorph123.png,Stimuli/BlurLevel5/OriginalBlur/BlurEditedMorph123.png,Stimuli/BlurMorphTrio/EditedMorph123.png,None,None,1,0,1,0,0,80,80,122,,,69,2,81,301,1.287595187,-2.142918252,123,961.8333527,962.3261195,961.8333527,962.3261195,68.70748299,1574465193,1574465198,4.850093126,56,100,23,23,1574465191,1574465193,,,HL,1,21,F,Undergrad,2019_Nov_22_1511,AdjustExp1,3.1.5,59.96149165,Experiment
7,Stimuli/Morph7.JPG,Stimuli/Morph7.png,Stimuli/BlurLevel5/BlurEditedMorph7,Stimuli/BlurLevel5/BlurEditedMorph7.png,Stimuli/BlurLevel5/NumberedMorphs/BlurEditedMorph7.png,Stimuli/BlurLevel5/OriginalBlur/BlurEditedMorph7.png,Stimuli/BlurMorphTrio/EditedMorph7.png,010013right.gif,Stimuli/normal_thumbnails/7right.gif,1,0,1,0,0,81,81,6,,,30,2,82,170,-2.462019383,0.434120444,7,969.1931952,969.6926457,969.1931952,969.6926457,83.67346939,1574465200,1574465202,1.533790827,136,142,-135,12,1574465198,1574465200,,,HL,1,21,F,Undergrad,2019_Nov_22_1511,AdjustExp1,3.1.5,59.96149165,Experiment
98,Stimuli/Morph98.JPG,Stimuli/Morph98.png,Stimuli/BlurLevel5/BlurEditedMorph98,Stimuli/BlurLevel5/BlurEditedMorph98.png,Stimuli/BlurLevel5/NumberedMorphs/BlurEditedMorph98.png,Stimuli/BlurLevel5/OriginalBlur/BlurEditedMorph98.png,Stimuli/BlurMorphTrio/EditedMorph98.png,020298right.gif,Stimuli/normal_thumbnails/98right.gif,1,0,1,0,0,82,82,97,,,93,2,83,171,-2.469220851,0.391086163,98,973.8916219,974.3921126,973.8916219,974.3921126,98.63945578,1574465205,1574465206,1.416693926,105,99,-1,-1,1574465202,1574465205,,,HL,1,21,F,Undergrad,2019_Nov_22_1511,AdjustExp1,3.1.5,59.96149165,Experiment
16,Stimuli/Morph16.JPG,Stimuli/Morph16.png,Stimuli/BlurLevel5/BlurEditedMorph16,Stimuli/BlurLevel5/BlurEditedMorph16.png,Stimuli/BlurLevel5/NumberedMorphs/BlurEditedMorph16.png,Stimuli/BlurLevel5/OriginalBlur/BlurEditedMorph16.png,Stimuli/BlurMorphTrio/EditedMorph16.png,010034right.gif,Stimuli/normal_thumbnails/16right.gif,1,0,1,0,0,83,83,15,,,12,2,84,220,-1.915111108,-1.606969024,16,978.0819482,978.5759337,978.0819482,978.5759337,97.27891156,1574465209,1574465211,2.099391937,77,18,-2,-2,1574465207,1574465209,,,HL,1,21,F,Undergrad,2019_Nov_22_1511,AdjustExp1,3.1.5,59.96149165,Experiment
103,Stimuli/Morph103.JPG,Stimuli/Morph103.png,Stimuli/BlurLevel5/BlurEditedMorph103,Stimuli/BlurLevel5/BlurEditedMorph103.png,Stimuli/BlurLevel5/NumberedMorphs/BlurEditedMorph103.png,Stimuli/BlurLevel5/OriginalBlur/BlurEditedMorph103.png,Stimuli/BlurMorphTrio/EditedMorph103.png,None,None,1,0,1,0,0,84,84,102,,,36,2,85,220,-1.915111108,-1.606969024,103,982.9119615,983.4093723,982.9119615,983.4093723,93.19727891,1574465214,1574465215,1.233642817,104,98,5,5,1574465211,1574465214,,,HL,1,21,F,Undergrad,2019_Nov_22_1511,AdjustExp1,3.1.5,59.96149165,Experiment
7,Stimuli/Morph7.JPG,Stimuli/Morph7.png,Stimuli/BlurLevel5/BlurEditedMorph7,Stimuli/BlurLevel5/BlurEditedMorph7.png,Stimuli/BlurLevel5/NumberedMorphs/BlurEditedMorph7.png,Stimuli/BlurLevel5/OriginalBlur/BlurEditedMorph7.png,Stimuli/BlurMorphTrio/EditedMorph7.png,010013right.gif,Stimuli/normal_thumbnails/7right.gif,2,0,2,0,0,0,0,6,,,21,3,1,20,2.349231552,0.855050358,7,1007.974991,1008.474873,1007.974991,1008.474873,70.06802721,1574465239,1574465242,2.601233006,41,132,-125,22,1574465237,1574465239,space,21.26770343,HL,1,21,F,Undergrad,2019_Nov_22_1511,AdjustExp1,3.1.5,59.96149165,Experiment
