stimulusID,stimulus_JPG,stimulusPath,stimulusPath2,stimulusPath3,stimulusPath4,stimulusPath5,stimulusPath6,xRayOriginal,xRayPath,Training.thisRepN,Training.thisTrialN,Training.thisN,Training.thisIndex,Blocks.thisRepN,Blocks.thisTrialN,Blocks.thisN,Blocks.thisIndex,Trials.thisRepN,Trials.thisTrialN,Trials.thisN,Trials.thisIndex,text_2.started,text_2.stopped,image.started,image.stopped,image_2.started,image_2.stopped,image_3.started,image_3.stopped,image_4.started,image_4.stopped,image_6.started,image_6.stopped,image_7.started,image_7.stopped,image_8.started,image_8.stopped,image_9.started,image_9.stopped,image_10.started,image_10.stopped,image_12.started,image_12.stopped,xrayID,trialNumber,blockNumber,stimLocationDeg,stimXCoord,stimYCoord,stimulusID,blockType,trainingXray.started,trainingXray.stopped,trainingTumors.started,trainingTumors.stopped,trainingScore%,startTrainingRespTime,endTrainingRespTime,trainingRT,morphTrack,morphID,errorRaw,errorCorrected,startTrainingStimTime,endTrainingStimTime,key_resp_3.keys,key_resp_3.rt,text.started,text.stopped,text_3.started,text_3.stopped,text_4.started,text_4.stopped,key_resp_5.keys,key_resp_5.rt,key_resp_5.started,key_resp_5.stopped,xray1.started,xray1.stopped,tumors.started,tumors.stopped,trialCorrect%,startRespTime,endRespTime,RT,startStimTime,endStimTime,key_resp.keys,key_resp.rt,participant,session,age,gender,status,date,expName,psychopyVersion,frameRate
133,Stimuli/Morph133.JPG,Stimuli/Morph133.png,Stimuli/BlurLevel5/BlurEditedMorph133,Stimuli/BlurLevel5/BlurEditedMorph133.png,Stimuli/BlurLevel5/NumberedMorphs/BlurEditedMorph133.png,Stimuli/BlurLevel5/OriginalBlur/BlurEditedMorph133.png,Stimuli/BlurMorphTrio/EditedMorph133.png,None,None,0,0,0,132,,,,,,,,,58.00122274,None,58.00122274,None,58.00122274,None,58.00122274,None,58.00122274,None,58.00122274,None,58.00122274,None,58.00122274,None,58.00122274,None,58.00122274,None,58.00122274,None,61,-100,-100,11,2.454067959,0.477022488,133,training,128.1737716,128.8882562,128.1737716,128.8882562,65.98639456,1583860860,1583860867,7.615850925,15,108,25,25,1583860857,1583860860,space,2.432717969,,,,,,,,,,,,,,,,,,,,,,,HY,1,20,male,undergrad,2020_Mar_10_1019,AdjustEyeTrack,3.1.5,59.80971921
57,Stimuli/Morph57.JPG,Stimuli/Morph57.png,Stimuli/BlurLevel5/BlurEditedMorph57,Stimuli/BlurLevel5/BlurEditedMorph57.png,Stimuli/BlurLevel5/NumberedMorphs/BlurEditedMorph57.png,Stimuli/BlurLevel5/OriginalBlur/BlurEditedMorph57.png,Stimuli/BlurMorphTrio/EditedMorph57.png,010158right.gif,Stimuli/normal_thumbnails/57right.gif,0,1,1,56,,,,,,,,,,,,,,,,,,,,,,,,,,,,,,,41,-100,-100,143,-1.996588775,1.504537558,57,training,141.7506843,142.4380415,141.7506843,142.4380415,89.11564626,1583860873,1583860877,3.333228827,77,49,8,8,1583860871,1583860873,space,1.518706561,,,,,,,,,,,,,,,,,,,,,,,HY,1,20,male,undergrad,2020_Mar_10_1019,AdjustEyeTrack,3.1.5,59.80971921
47,Stimuli/Morph47.JPG,Stimuli/Morph47.png,Stimuli/BlurLevel5/BlurEditedMorph47,Stimuli/BlurLevel5/BlurEditedMorph47.png,Stimuli/BlurLevel5/NumberedMorphs/BlurEditedMorph47.png,Stimuli/BlurLevel5/OriginalBlur/BlurEditedMorph47.png,Stimuli/BlurMorphTrio/EditedMorph47.png,010130right.gif,Stimuli/normal_thumbnails/47right.gif,0,2,2,46,,,,,,,,,,,,,,,,,,,,,,,,,,,,,,,56,-100,-100,188,-2.475670172,-0.347932752,47,training,150.4171233,151.1076631,150.4171233,151.1076631,87.75510204,1583860882,1583860884,1.701352835,28,56,-9,-9,1583860879,1583860882,space,11.49135737,,,,,,,,,,,,,,,,,,,,,,,HY,1,20,male,undergrad,2020_Mar_10_1019,AdjustEyeTrack,3.1.5,59.80971921
142,Stimuli/Morph142.JPG,Stimuli/Morph142.png,Stimuli/BlurLevel5/BlurEditedMorph142,Stimuli/BlurLevel5/BlurEditedMorph142.png,Stimuli/BlurLevel5/NumberedMorphs/BlurEditedMorph142.png,Stimuli/BlurLevel5/OriginalBlur/BlurEditedMorph142.png,Stimuli/BlurMorphTrio/EditedMorph142.png,None,None,0,3,3,141,,,,,,,,,,,,,,,,,,,,,,,,,,,,,,,61,-100,-100,16,2.40315424,0.68909339,142,training,167.2306619,167.9336917,167.2306619,167.9336917,90.47619048,1583860899,1583860902,2.883805752,55,135,7,7,1583860896,1583860899,space,5.218633347,,,,,,,,,,,,,,,,,,,,,,,HY,1,20,male,undergrad,2020_Mar_10_1019,AdjustEyeTrack,3.1.5,59.80971921
114,Stimuli/Morph114.JPG,Stimuli/Morph114.png,Stimuli/BlurLevel5/BlurEditedMorph114,Stimuli/BlurLevel5/BlurEditedMorph114.png,Stimuli/BlurLevel5/NumberedMorphs/BlurEditedMorph114.png,Stimuli/BlurLevel5/OriginalBlur/BlurEditedMorph114.png,Stimuli/BlurMorphTrio/EditedMorph114.png,None,None,0,4,4,113,,,,,,,,,,,,,,,,,,,,,,,,,,,,,,,22,-100,-100,214,-2.072593931,-1.397982259,114,training,178.7328131,179.4137159,178.7328131,179.4137159,83.67346939,1583860910,1583860914,3.21610117,125,102,12,12,1583860908,1583860910,space,0.74499532,,,,,,,,,,,,,,,,,,,,,,,HY,1,20,male,undergrad,2020_Mar_10_1019,AdjustEyeTrack,3.1.5,59.80971921
44,Stimuli/Morph44.JPG,Stimuli/Morph44.png,Stimuli/BlurLevel5/BlurEditedMorph44,Stimuli/BlurLevel5/BlurEditedMorph44.png,Stimuli/BlurLevel5/NumberedMorphs/BlurEditedMorph44.png,Stimuli/BlurLevel5/OriginalBlur/BlurEditedMorph44.png,Stimuli/BlurMorphTrio/EditedMorph44.png,010126right.gif,Stimuli/normal_thumbnails/44right.gif,0,5,5,43,,,,,,,,,,,,,,,,,,,,,,,,,,,,,,,1,-100,-100,100,-0.434120444,2.462019383,44,training,185.4962224,186.1454327,185.4962224,186.1454327,79.59183673,1583860917,1583860920,3.296617031,104,59,-15,-15,1583860915,1583860917,space,1.159321847,,,,,,,,,,,,,,,,,,,,,,,HY,1,20,male,undergrad,2020_Mar_10_1019,AdjustEyeTrack,3.1.5,59.80971921
43,Stimuli/Morph43.JPG,Stimuli/Morph43.png,Stimuli/BlurLevel5/BlurEditedMorph43,Stimuli/BlurLevel5/BlurEditedMorph43.png,Stimuli/BlurLevel5/NumberedMorphs/BlurEditedMorph43.png,Stimuli/BlurLevel5/OriginalBlur/BlurEditedMorph43.png,Stimuli/BlurMorphTrio/EditedMorph43.png,010124right.gif,Stimuli/normal_thumbnails/43right.gif,0,6,6,42,,,,,,,,,,,,,,,,,,,,,,,,,,,,,,,7,-100,-100,301,1.287595187,-2.142918252,43,training,193.1578999,193.850991,193.1578999,193.850991,93.19727891,1583860925,1583860931,6.300741673,108,48,-5,-5,1583860922,1583860925,space,0.686132612,,,,,,,,,,,,,,,,,,,,,,,HY,1,20,male,undergrad,2020_Mar_10_1019,AdjustEyeTrack,3.1.5,59.80971921
129,Stimuli/Morph129.JPG,Stimuli/Morph129.png,Stimuli/BlurLevel5/BlurEditedMorph129,Stimuli/BlurLevel5/BlurEditedMorph129.png,Stimuli/BlurLevel5/NumberedMorphs/BlurEditedMorph129.png,Stimuli/BlurLevel5/OriginalBlur/BlurEditedMorph129.png,Stimuli/BlurMorphTrio/EditedMorph129.png,None,None,0,7,7,128,,,,,,,,,,,,,,,,,,,,,,,,,,,,,,,75,-100,-100,276,0.261321158,-2.486304738,129,training,203.3397479,204.0178211,203.3397479,204.0178211,31.97278912,1583860935,1583860942,6.792605162,102,79,50,50,1583860932,1583860935,space,1.139845002,,,,,,,,,,,,,,,,,,,,,,,HY,1,20,male,undergrad,2020_Mar_10_1019,AdjustEyeTrack,3.1.5,59.80971921
126,Stimuli/Morph126.JPG,Stimuli/Morph126.png,Stimuli/BlurLevel5/BlurEditedMorph126,Stimuli/BlurLevel5/BlurEditedMorph126.png,Stimuli/BlurLevel5/NumberedMorphs/BlurEditedMorph126.png,Stimuli/BlurLevel5/OriginalBlur/BlurEditedMorph126.png,Stimuli/BlurMorphTrio/EditedMorph126.png,None,None,0,8,8,125,,,,,,,,,,,,,,,,,,,,,,,,,,,,,,,30,-100,-100,119,-1.212024051,2.186549268,126,training,214.696249,215.3904634,214.696249,215.3904634,89.11564626,1583860946,1583860950,3.917133808,121,134,-8,-8,1583860944,1583860946,space,0.959091915,,,,,,,,,,,,,,,,,,,,,,,HY,1,20,male,undergrad,2020_Mar_10_1019,AdjustEyeTrack,3.1.5,59.80971921
144,Stimuli/Morph144.JPG,Stimuli/Morph144.png,Stimuli/BlurLevel5/BlurEditedMorph144,Stimuli/BlurLevel5/BlurEditedMorph144.png,Stimuli/BlurLevel5/NumberedMorphs/BlurEditedMorph144.png,Stimuli/BlurLevel5/OriginalBlur/BlurEditedMorph144.png,Stimuli/BlurMorphTrio/EditedMorph144.png,None,None,0,9,9,143,,,,,,,,,,,,,,,,,,,,,,,,,,,,,,,34,-100,-100,311,1.640147572,-1.886773951,144,training,223.1295253,223.8294195,223.1295253,223.8294195,87.75510204,1583860955,1583860963,8.182781219,41,135,9,9,1583860952,1583860955,space,2.961211932,,,,,,,,,,,,,,,,,,,,,,,HY,1,20,male,undergrad,2020_Mar_10_1019,AdjustEyeTrack,3.1.5,59.80971921
,,,,,,,,,,,,,,,,,,,,,,,,,,,,,,,,,,,,,,,,,,,,,-100,-100,,,,,training,,,,,,,,,,,,,,,,,237.4623027,None,237.4623027,None,237.4623027,None,space,86.04170656,237.4623027,None,,,,,,,,,,,,,HY,1,20,male,undergrad,2020_Mar_10_1019,AdjustEyeTrack,3.1.5,59.80971921
95,Stimuli/Morph95.JPG,Stimuli/Morph95.png,Stimuli/BlurLevel5/BlurEditedMorph95,Stimuli/BlurLevel5/BlurEditedMorph95.png,Stimuli/BlurLevel5/NumberedMorphs/BlurEditedMorph95.png,Stimuli/BlurLevel5/OriginalBlur/BlurEditedMorph95.png,Stimuli/BlurMorphTrio/EditedMorph95.png,020287right.gif,Stimuli/normal_thumbnails/95right.gif,,,,,0,0,0,0,0,0,0,94,,,,,,,,,,,,,,,,,,,,,,,56,1,1,83,0.304673359,2.481365379,95,Experiment,,,,,,,,,9,100,-5,-5,,,,,,,,,,,,,,,324.9279635,325.6278641,324.9279635,325.6278641,93.19727891,1583861057,1583861061,3.951544762,1583861054,1583861057,,,HY,1,20,male,undergrad,2020_Mar_10_1019,AdjustEyeTrack,3.1.5,59.80971921
4,Stimuli/Morph4.JPG,Stimuli/Morph4.png,Stimuli/BlurLevel5/BlurEditedMorph4,Stimuli/BlurLevel5/BlurEditedMorph4.png,Stimuli/BlurLevel5/NumberedMorphs/BlurEditedMorph4.png,Stimuli/BlurLevel5/OriginalBlur/BlurEditedMorph4.png,Stimuli/BlurMorphTrio/EditedMorph4.png,010010right.gif,Stimuli/normal_thumbnails/4right.gif,,,,,0,0,0,0,0,1,1,3,,,,,,,,,,,,,,,,,,,,,,,19,2,1,64,1.095927867,2.246985116,4,Experiment,,,,,,,,,37,139,-135,12,,,,,,,,,,,,,,,332.6931994,333.3932519,332.6931994,333.3932519,83.67346939,1583861064,1583861067,3.014436007,1583861061,1583861064,,,HY,1,20,male,undergrad,2020_Mar_10_1019,AdjustEyeTrack,3.1.5,59.80971921
8,Stimuli/Morph8.JPG,Stimuli/Morph8.png,Stimuli/BlurLevel5/BlurEditedMorph8,Stimuli/BlurLevel5/BlurEditedMorph8.png,Stimuli/BlurLevel5/NumberedMorphs/BlurEditedMorph8.png,Stimuli/BlurLevel5/OriginalBlur/BlurEditedMorph8.png,Stimuli/BlurMorphTrio/EditedMorph8.png,010014right.gif,Stimuli/normal_thumbnails/8right.gif,,,,,0,0,0,0,0,2,2,7,,,,,,,,,,,,,,,,,,,,,,,83,3,1,140,-1.915111108,1.606969024,8,Experiment,,,,,,,,,140,4,4,4,,,,,,,,,,,,,,,339.1403878,339.8264746,339.1403878,339.8264746,94.55782313,1583861071,1583861073,1.849017143,1583861068,1583861071,,,HY,1,20,male,undergrad,2020_Mar_10_1019,AdjustEyeTrack,3.1.5,59.80971921
91,Stimuli/Morph91.JPG,Stimuli/Morph91.png,Stimuli/BlurLevel5/BlurEditedMorph91,Stimuli/BlurLevel5/BlurEditedMorph91.png,Stimuli/BlurLevel5/NumberedMorphs/BlurEditedMorph91.png,Stimuli/BlurLevel5/OriginalBlur/BlurEditedMorph91.png,Stimuli/BlurMorphTrio/EditedMorph91.png,020276right.gif,Stimuli/normal_thumbnails/91right.gif,,,,,0,0,0,0,0,3,3,90,,,,,,,,,,,,,,,,,,,,,,,93,4,1,81,0.391086163,2.469220851,91,Experiment,,,,,,,,,95,95,-4,-4,,,,,,,,,,,,,,,345.3665453,346.085024,345.3665453,346.085024,94.55782313,1583861077,1583861078,0.919680119,1583861073,1583861077,,,HY,1,20,male,undergrad,2020_Mar_10_1019,AdjustEyeTrack,3.1.5,59.80971921
123,Stimuli/Morph123.JPG,Stimuli/Morph123.png,Stimuli/BlurLevel5/BlurEditedMorph123,Stimuli/BlurLevel5/BlurEditedMorph123.png,Stimuli/BlurLevel5/NumberedMorphs/BlurEditedMorph123.png,Stimuli/BlurLevel5/OriginalBlur/BlurEditedMorph123.png,Stimuli/BlurMorphTrio/EditedMorph123.png,None,None,,,,,0,0,0,0,0,4,4,122,,,,,,,,,,,,,,,,,,,,,,,93,5,1,38,1.970026884,1.539153688,123,Experiment,,,,,,,,,15,104,19,19,,,,,,,,,,,,,,,349.8931383,350.6267002,349.8931383,350.6267002,74.14965986,1583861082,1583861084,2.687985897,1583861079,1583861082,,,HY,1,20,male,undergrad,2020_Mar_10_1019,AdjustEyeTrack,3.1.5,59.80971921
65,Stimuli/Morph65.JPG,Stimuli/Morph65.png,Stimuli/BlurLevel5/BlurEditedMorph65,Stimuli/BlurLevel5/BlurEditedMorph65.png,Stimuli/BlurLevel5/NumberedMorphs/BlurEditedMorph65.png,Stimuli/BlurLevel5/OriginalBlur/BlurEditedMorph65.png,Stimuli/BlurMorphTrio/EditedMorph65.png,020209right.gif,Stimuli/normal_thumbnails/65right.gif,,,,,0,0,0,0,0,5,5,64,,,,,,,,,,,,,,,,,,,,,,,69,6,1,21,2.333951066,0.895919874,65,Experiment,,,,,,,,,71,71,-6,-6,,,,,,,,,,,,,,,356.183211,356.881336,356.183211,356.881336,91.83673469,1583861088,1583861089,0.916432142,1583861085,1583861088,,,HY,1,20,male,undergrad,2020_Mar_10_1019,AdjustEyeTrack,3.1.5,59.80971921
78,Stimuli/Morph78.JPG,Stimuli/Morph78.png,Stimuli/BlurLevel5/BlurEditedMorph78,Stimuli/BlurLevel5/BlurEditedMorph78.png,Stimuli/BlurLevel5/NumberedMorphs/BlurEditedMorph78.png,Stimuli/BlurLevel5/OriginalBlur/BlurEditedMorph78.png,Stimuli/BlurMorphTrio/EditedMorph78.png,020238right.gif,Stimuli/normal_thumbnails/78right.gif,,,,,0,0,0,0,0,6,6,77,,,,,,,,,,,,,,,,,,,,,,,65,7,1,183,-2.496573837,-0.130839891,78,Experiment,,,,,,,,,80,67,11,11,,,,,,,,,,,,,,,360.5884936,361.2702493,360.5884936,361.2702493,85.03401361,1583861092,1583861095,2.5822258,1583861089,1583861092,,,HY,1,20,male,undergrad,2020_Mar_10_1019,AdjustEyeTrack,3.1.5,59.80971921
26,Stimuli/Morph26.JPG,Stimuli/Morph26.png,Stimuli/BlurLevel5/BlurEditedMorph26,Stimuli/BlurLevel5/BlurEditedMorph26.png,Stimuli/BlurLevel5/NumberedMorphs/BlurEditedMorph26.png,Stimuli/BlurLevel5/OriginalBlur/BlurEditedMorph26.png,Stimuli/BlurMorphTrio/EditedMorph26.png,010070right.gif,Stimuli/normal_thumbnails/26right.gif,,,,,0,0,0,0,0,7,7,25,,,,,,,,,,,,,,,,,,,,,,,23,8,1,182,-2.498477068,-0.087248742,26,Experiment,,,,,,,,,145,21,5,5,,,,,,,,,,,,,,,366.424572,367.0935614,366.424572,367.0935614,93.19727891,1583861098,1583861100,1.46807909,1583861095,1583861098,,,HY,1,20,male,undergrad,2020_Mar_10_1019,AdjustEyeTrack,3.1.5,59.80971921
63,Stimuli/Morph63.JPG,Stimuli/Morph63.png,Stimuli/BlurLevel5/BlurEditedMorph63,Stimuli/BlurLevel5/BlurEditedMorph63.png,Stimuli/BlurLevel5/NumberedMorphs/BlurEditedMorph63.png,Stimuli/BlurLevel5/OriginalBlur/BlurEditedMorph63.png,Stimuli/BlurMorphTrio/EditedMorph63.png,020206right.gif,Stimuli/normal_thumbnails/63right.gif,,,,,0,0,0,0,0,8,8,62,,,,,,,,,,,,,,,,,,,,,,,49,9,1,319,1.886773951,-1.640147572,63,Experiment,,,,,,,,,117,58,5,5,,,,,,,,,,,,,,,371.2262035,371.9132271,371.2262035,371.9132271,93.19727891,1583861103,1583861113,9.800456285,1583861100,1583861103,,,HY,1,20,male,undergrad,2020_Mar_10_1019,AdjustEyeTrack,3.1.5,59.80971921
115,Stimuli/Morph115.JPG,Stimuli/Morph115.png,Stimuli/BlurLevel5/BlurEditedMorph115,Stimuli/BlurLevel5/BlurEditedMorph115.png,Stimuli/BlurLevel5/NumberedMorphs/BlurEditedMorph115.png,Stimuli/BlurLevel5/OriginalBlur/BlurEditedMorph115.png,Stimuli/BlurMorphTrio/EditedMorph115.png,None,None,,,,,0,0,0,0,0,9,9,114,,,,,,,,,,,,,,,,,,,,,,,85,10,1,323,1.996588775,-1.504537558,115,Experiment,,,,,,,,,6,95,20,20,,,,,,,,,,,,,,,384.1828481,384.8769957,384.1828481,384.8769957,72.78911565,1583861116,1583861119,2.75306201,1583861113,1583861116,,,HY,1,20,male,undergrad,2020_Mar_10_1019,AdjustEyeTrack,3.1.5,59.80971921
86,Stimuli/Morph86.JPG,Stimuli/Morph86.png,Stimuli/BlurLevel5/BlurEditedMorph86,Stimuli/BlurLevel5/BlurEditedMorph86.png,Stimuli/BlurLevel5/NumberedMorphs/BlurEditedMorph86.png,Stimuli/BlurLevel5/OriginalBlur/BlurEditedMorph86.png,Stimuli/BlurMorphTrio/EditedMorph86.png,020266right.gif,Stimuli/normal_thumbnails/86right.gif,,,,,0,0,0,0,0,10,10,85,,,,,,,,,,,,,,,,,,,,,,,67,11,1,249,-0.895919874,-2.333951066,86,Experiment,,,,,,,,,120,120,-34,-34,,,,,,,,,,,,,,,390.2837497,390.9826027,390.2837497,390.9826027,53.7414966,1583861122,1583861123,0.782382011,1583861119,1583861122,,,HY,1,20,male,undergrad,2020_Mar_10_1019,AdjustEyeTrack,3.1.5,59.80971921
34,Stimuli/Morph34.JPG,Stimuli/Morph34.png,Stimuli/BlurLevel5/BlurEditedMorph34,Stimuli/BlurLevel5/BlurEditedMorph34.png,Stimuli/BlurLevel5/NumberedMorphs/BlurEditedMorph34.png,Stimuli/BlurLevel5/OriginalBlur/BlurEditedMorph34.png,Stimuli/BlurMorphTrio/EditedMorph34.png,010090right.gif,Stimuli/normal_thumbnails/34right.gif,,,,,0,0,0,0,0,11,11,33,,,,,,,,,,,,,,,,,,,,,,,24,12,1,80,0.434120444,2.462019383,34,Experiment,,,,,,,,,63,44,-10,-10,,,,,,,,,,,,,,,394.3829199,395.0999399,394.3829199,395.0999399,86.39455782,1583861126,1583861141,14.48731899,1583861123,1583861126,,,HY,1,20,male,undergrad,2020_Mar_10_1019,AdjustEyeTrack,3.1.5,59.80971921
137,Stimuli/Morph137.JPG,Stimuli/Morph137.png,Stimuli/BlurLevel5/BlurEditedMorph137,Stimuli/BlurLevel5/BlurEditedMorph137.png,Stimuli/BlurLevel5/NumberedMorphs/BlurEditedMorph137.png,Stimuli/BlurLevel5/OriginalBlur/BlurEditedMorph137.png,Stimuli/BlurMorphTrio/EditedMorph137.png,None,None,,,,,0,0,0,0,0,12,12,136,,,,,,,,,,,,,,,,,,,,,,,41,13,1,265,-0.217889357,-2.490486745,137,Experiment,,,,,,,,,34,146,-9,-9,,,,,,,,,,,,,,,412.2134064,412.9043193,412.2134064,412.9043193,87.75510204,1583861144,1583861147,2.870086908,1583861141,1583861144,,,HY,1,20,male,undergrad,2020_Mar_10_1019,AdjustEyeTrack,3.1.5,59.80971921
113,Stimuli/Morph113.JPG,Stimuli/Morph113.png,Stimuli/BlurLevel5/BlurEditedMorph113,Stimuli/BlurLevel5/BlurEditedMorph113.png,Stimuli/BlurLevel5/NumberedMorphs/BlurEditedMorph113.png,Stimuli/BlurLevel5/OriginalBlur/BlurEditedMorph113.png,Stimuli/BlurMorphTrio/EditedMorph113.png,None,None,,,,,0,0,0,0,0,13,13,112,,,,,,,,,,,,,,,,,,,,,,,30,14,1,187,-2.481365379,-0.304673359,113,Experiment,,,,,,,,,129,107,6,6,,,,,,,,,,,,,,,418.4024913,419.0829059,418.4024913,419.0829059,91.83673469,1583861150,1583861152,1.869283915,1583861147,1583861150,,,HY,1,20,male,undergrad,2020_Mar_10_1019,AdjustEyeTrack,3.1.5,59.80971921
44,Stimuli/Morph44.JPG,Stimuli/Morph44.png,Stimuli/BlurLevel5/BlurEditedMorph44,Stimuli/BlurLevel5/BlurEditedMorph44.png,Stimuli/BlurLevel5/NumberedMorphs/BlurEditedMorph44.png,Stimuli/BlurLevel5/OriginalBlur/BlurEditedMorph44.png,Stimuli/BlurMorphTrio/EditedMorph44.png,010126right.gif,Stimuli/normal_thumbnails/44right.gif,,,,,0,0,0,0,0,14,14,43,,,,,,,,,,,,,,,,,,,,,,,18,15,1,248,-0.936516484,-2.317959636,44,Experiment,,,,,,,,,72,52,-8,-8,,,,,,,,,,,,,,,423.3054255,423.9799084,423.3054255,423.9799084,89.11564626,1583861155,1583861158,3.097827196,1583861152,1583861155,,,HY,1,20,male,undergrad,2020_Mar_10_1019,AdjustEyeTrack,3.1.5,59.80971921
18,Stimuli/Morph18.JPG,Stimuli/Morph18.png,Stimuli/BlurLevel5/BlurEditedMorph18,Stimuli/BlurLevel5/BlurEditedMorph18.png,Stimuli/BlurLevel5/NumberedMorphs/BlurEditedMorph18.png,Stimuli/BlurLevel5/OriginalBlur/BlurEditedMorph18.png,Stimuli/BlurMorphTrio/EditedMorph18.png,010039right.gif,Stimuli/normal_thumbnails/18right.gif,,,,,0,0,0,0,0,15,15,17,,,,,,,,,,,,,,,,,,,,,,,21,16,1,154,-2.246985116,1.095927867,18,Experiment,,,,,,,,,137,14,4,4,,,,,,,,,,,,,,,429.5643774,430.2534069,429.5643774,430.2534069,94.55782313,1583861161,1583861166,4.364136934,1583861159,1583861161,,,HY,1,20,male,undergrad,2020_Mar_10_1019,AdjustEyeTrack,3.1.5,59.80971921
68,Stimuli/Morph68.JPG,Stimuli/Morph68.png,Stimuli/BlurLevel5/BlurEditedMorph68,Stimuli/BlurLevel5/BlurEditedMorph68.png,Stimuli/BlurLevel5/NumberedMorphs/BlurEditedMorph68.png,Stimuli/BlurLevel5/OriginalBlur/BlurEditedMorph68.png,Stimuli/BlurMorphTrio/EditedMorph68.png,020218right.gif,Stimuli/normal_thumbnails/68right.gif,,,,,0,0,0,0,0,16,16,67,,,,,,,,,,,,,,,,,,,,,,,68,17,1,167,-2.435925162,0.562377636,68,Experiment,,,,,,,,,99,64,4,4,,,,,,,,,,,,,,,437.2199379,437.901669,437.2199379,437.901669,94.55782313,1583861169,1583861171,1.853345633,1583861166,1583861169,,,HY,1,20,male,undergrad,2020_Mar_10_1019,AdjustEyeTrack,3.1.5,59.80971921
132,Stimuli/Morph132.JPG,Stimuli/Morph132.png,Stimuli/BlurLevel5/BlurEditedMorph132,Stimuli/BlurLevel5/BlurEditedMorph132.png,Stimuli/BlurLevel5/NumberedMorphs/BlurEditedMorph132.png,Stimuli/BlurLevel5/OriginalBlur/BlurEditedMorph132.png,Stimuli/BlurMorphTrio/EditedMorph132.png,None,None,,,,,0,0,0,0,0,17,17,131,,,,,,,,,,,,,,,,,,,,,,,59,18,1,143,-1.996588775,1.504537558,132,Experiment,,,,,,,,,74,74,58,58,,,,,,,,,,,,,,,442.0937175,442.7620789,442.0937175,442.7620789,21.08843537,1583861174,1583861175,1.350643158,1583861171,1583861174,,,HY,1,20,male,undergrad,2020_Mar_10_1019,AdjustEyeTrack,3.1.5,59.80971921
38,Stimuli/Morph38.JPG,Stimuli/Morph38.png,Stimuli/BlurLevel5/BlurEditedMorph38,Stimuli/BlurLevel5/BlurEditedMorph38.png,Stimuli/BlurLevel5/NumberedMorphs/BlurEditedMorph38.png,Stimuli/BlurLevel5/OriginalBlur/BlurEditedMorph38.png,Stimuli/BlurMorphTrio/EditedMorph38.png,010108right.gif,Stimuli/normal_thumbnails/38right.gif,,,,,0,0,0,0,0,18,18,37,,,,,,,,,,,,,,,,,,,,,,,51,19,1,323,1.996588775,-1.504537558,38,Experiment,,,,,,,,,73,49,-11,-11,,,,,,,,,,,,,,,446.8130092,447.5125391,446.8130092,447.5125391,85.03401361,1583861178,1583861181,2.983428955,1583861176,1583861178,,,HY,1,20,male,undergrad,2020_Mar_10_1019,AdjustEyeTrack,3.1.5,59.80971921
112,Stimuli/Morph112.JPG,Stimuli/Morph112.png,Stimuli/BlurLevel5/BlurEditedMorph112,Stimuli/BlurLevel5/BlurEditedMorph112.png,Stimuli/BlurLevel5/NumberedMorphs/BlurEditedMorph112.png,Stimuli/BlurLevel5/OriginalBlur/BlurEditedMorph112.png,Stimuli/BlurMorphTrio/EditedMorph112.png,None,None,,,,,0,0,0,0,0,19,19,111,,,,,,,,,,,,,,,,,,,,,,,31,20,1,178,-2.498477068,0.087248742,112,Experiment,,,,,,,,,142,103,9,9,,,,,,,,,,,,,,,453.1687993,453.8781951,453.1687993,453.8781951,87.75510204,1583861185,1583861187,1.883205891,1583861182,1583861185,,,HY,1,20,male,undergrad,2020_Mar_10_1019,AdjustEyeTrack,3.1.5,59.80971921
114,Stimuli/Morph114.JPG,Stimuli/Morph114.png,Stimuli/BlurLevel5/BlurEditedMorph114,Stimuli/BlurLevel5/BlurEditedMorph114.png,Stimuli/BlurLevel5/NumberedMorphs/BlurEditedMorph114.png,Stimuli/BlurLevel5/OriginalBlur/BlurEditedMorph114.png,Stimuli/BlurMorphTrio/EditedMorph114.png,None,None,,,,,0,0,0,0,0,20,20,113,,,,,,,,,,,,,,,,,,,,,,,51,21,1,236,-1.397982259,-2.072593931,114,Experiment,,,,,,,,,19,108,6,6,,,,,,,,,,,,,,,458.4113845,459.1267194,458.4113845,459.1267194,91.83673469,1583861190,1583861192,2.16642499,1583861187,1583861190,,,HY,1,20,male,undergrad,2020_Mar_10_1019,AdjustEyeTrack,3.1.5,59.80971921
85,Stimuli/Morph85.JPG,Stimuli/Morph85.png,Stimuli/BlurLevel5/BlurEditedMorph85,Stimuli/BlurLevel5/BlurEditedMorph85.png,Stimuli/BlurLevel5/NumberedMorphs/BlurEditedMorph85.png,Stimuli/BlurLevel5/OriginalBlur/BlurEditedMorph85.png,Stimuli/BlurMorphTrio/EditedMorph85.png,020264right.gif,Stimuli/normal_thumbnails/85right.gif,,,,,0,0,0,0,0,21,21,84,,,,,,,,,,,,,,,,,,,,,,,83,22,1,356,2.493910126,-0.174391184,85,Experiment,,,,,,,,,58,103,-18,-18,,,,,,,,,,,,,,,464.0076254,464.7091251,464.0076254,464.7091251,75.51020408,1583861196,1583861199,3.117157221,1583861193,1583861196,,,HY,1,20,male,undergrad,2020_Mar_10_1019,AdjustEyeTrack,3.1.5,59.80971921
61,Stimuli/Morph61.JPG,Stimuli/Morph61.png,Stimuli/BlurLevel5/BlurEditedMorph61,Stimuli/BlurLevel5/BlurEditedMorph61.png,Stimuli/BlurLevel5/NumberedMorphs/BlurEditedMorph61.png,Stimuli/BlurLevel5/OriginalBlur/BlurEditedMorph61.png,Stimuli/BlurMorphTrio/EditedMorph61.png,020201right.gif,Stimuli/normal_thumbnails/61right.gif,,,,,0,0,0,0,0,22,22,60,,,,,,,,,,,,,,,,,,,,,,,63,23,1,72,0.772542486,2.377641291,61,Experiment,,,,,,,,,44,56,5,5,,,,,,,,,,,,,,,470.3908923,471.0658078,470.3908923,471.0658078,93.19727891,1583861202,1583861205,2.800266981,1583861199,1583861202,,,HY,1,20,male,undergrad,2020_Mar_10_1019,AdjustEyeTrack,3.1.5,59.80971921
58,Stimuli/Morph58.JPG,Stimuli/Morph58.png,Stimuli/BlurLevel5/BlurEditedMorph58,Stimuli/BlurLevel5/BlurEditedMorph58.png,Stimuli/BlurLevel5/NumberedMorphs/BlurEditedMorph58.png,Stimuli/BlurLevel5/OriginalBlur/BlurEditedMorph58.png,Stimuli/BlurMorphTrio/EditedMorph58.png,010159right.gif,Stimuli/normal_thumbnails/58right.gif,,,,,0,0,0,0,0,23,23,57,,,,,,,,,,,,,,,,,,,,,,,68,24,1,318,1.857862064,-1.672826516,58,Experiment,,,,,,,,,136,57,1,1,,,,,,,,,,,,,,,476.4810228,477.1749166,476.4810228,477.1749166,98.63945578,1583861208,1583861211,2.965193987,1583861205,1583861208,,,HY,1,20,male,undergrad,2020_Mar_10_1019,AdjustEyeTrack,3.1.5,59.80971921
47,Stimuli/Morph47.JPG,Stimuli/Morph47.png,Stimuli/BlurLevel5/BlurEditedMorph47,Stimuli/BlurLevel5/BlurEditedMorph47.png,Stimuli/BlurLevel5/NumberedMorphs/BlurEditedMorph47.png,Stimuli/BlurLevel5/OriginalBlur/BlurEditedMorph47.png,Stimuli/BlurMorphTrio/EditedMorph47.png,010130right.gif,Stimuli/normal_thumbnails/47right.gif,,,,,0,0,0,0,0,24,24,46,,,,,,,,,,,,,,,,,,,,,,,10,25,1,43,1.828384254,1.7049959,47,Experiment,,,,,,,,,9,47,0,0,,,,,,,,,,,,,,,482.7477862,483.4439706,482.7477862,483.4439706,100,1583861214,1583861223,8.429293871,1583861212,1583861214,,,HY,1,20,male,undergrad,2020_Mar_10_1019,AdjustEyeTrack,3.1.5,59.80971921
99,Stimuli/Morph99.JPG,Stimuli/Morph99.png,Stimuli/BlurLevel5/BlurEditedMorph99,Stimuli/BlurLevel5/BlurEditedMorph99.png,Stimuli/BlurLevel5/NumberedMorphs/BlurEditedMorph99.png,Stimuli/BlurLevel5/OriginalBlur/BlurEditedMorph99.png,Stimuli/BlurMorphTrio/EditedMorph99.png,020299right.gif,Stimuli/normal_thumbnails/99right.gif,,,,,0,0,0,0,0,25,25,98,,,,,,,,,,,,,,,,,,,,,,,42,26,1,108,-0.772542486,2.377641291,99,Experiment,,,,,,,,,67,116,-17,-17,,,,,,,,,,,,,,,494.7235971,495.4282719,494.7235971,495.4282719,76.8707483,1583861226,1583861228,2.013900995,1583861223,1583861226,,,HY,1,20,male,undergrad,2020_Mar_10_1019,AdjustEyeTrack,3.1.5,59.80971921
141,Stimuli/Morph141.JPG,Stimuli/Morph141.png,Stimuli/BlurLevel5/BlurEditedMorph141,Stimuli/BlurLevel5/BlurEditedMorph141.png,Stimuli/BlurLevel5/NumberedMorphs/BlurEditedMorph141.png,Stimuli/BlurLevel5/OriginalBlur/BlurEditedMorph141.png,Stimuli/BlurMorphTrio/EditedMorph141.png,None,None,,,,,0,0,0,0,0,26,26,140,,,,,,,,,,,,,,,,,,,,,,,40,27,1,249,-0.895919874,-2.333951066,141,Experiment,,,,,,,,,68,141,0,0,,,,,,,,,,,,,,,500.0960125,500.7914764,500.0960125,500.7914764,100,1583861232,1583861235,3.001291037,1583861229,1583861232,,,HY,1,20,male,undergrad,2020_Mar_10_1019,AdjustEyeTrack,3.1.5,59.80971921
10,Stimuli/Morph10.JPG,Stimuli/Morph10.png,Stimuli/BlurLevel5/BlurEditedMorph10,Stimuli/BlurLevel5/BlurEditedMorph10.png,Stimuli/BlurLevel5/NumberedMorphs/BlurEditedMorph10.png,Stimuli/BlurLevel5/OriginalBlur/BlurEditedMorph10.png,Stimuli/BlurMorphTrio/EditedMorph10.png,010016right.gif,Stimuli/normal_thumbnails/10right.gif,,,,,0,0,0,0,0,27,27,9,,,,,,,,,,,,,,,,,,,,,,,44,28,1,339,2.333951066,-0.895919874,10,Experiment,,,,,,,,,75,22,-12,-12,,,,,,,,,,,,,,,506.4664261,507.1683611,506.4664261,507.1683611,83.67346939,1583861238,1583861241,3.116472006,1583861235,1583861238,,,HY,1,20,male,undergrad,2020_Mar_10_1019,AdjustEyeTrack,3.1.5,59.80971921
48,Stimuli/Morph48.JPG,Stimuli/Morph48.png,Stimuli/BlurLevel5/BlurEditedMorph48,Stimuli/BlurLevel5/BlurEditedMorph48.png,Stimuli/BlurLevel5/NumberedMorphs/BlurEditedMorph48.png,Stimuli/BlurLevel5/OriginalBlur/BlurEditedMorph48.png,Stimuli/BlurMorphTrio/EditedMorph48.png,010131right.gif,Stimuli/normal_thumbnails/48right.gif,,,,,0,0,0,0,0,28,28,47,,,,,,,,,,,,,,,,,,,,,,,31,29,1,336,2.283863644,-1.016841608,48,Experiment,,,,,,,,,102,45,3,3,,,,,,,,,,,,,,,512.9366312,513.6411695,512.9366312,513.6411695,95.91836735,1583861245,1583861247,2.515700817,1583861242,1583861245,,,HY,1,20,male,undergrad,2020_Mar_10_1019,AdjustEyeTrack,3.1.5,59.80971921
125,Stimuli/Morph125.JPG,Stimuli/Morph125.png,Stimuli/BlurLevel5/BlurEditedMorph125,Stimuli/BlurLevel5/BlurEditedMorph125.png,Stimuli/BlurLevel5/NumberedMorphs/BlurEditedMorph125.png,Stimuli/BlurLevel5/OriginalBlur/BlurEditedMorph125.png,Stimuli/BlurMorphTrio/EditedMorph125.png,None,None,,,,,0,0,0,0,0,29,29,124,,,,,,,,,,,,,,,,,,,,,,,75,30,1,319,1.886773951,-1.640147572,125,Experiment,,,,,,,,,29,124,1,1,,,,,,,,,,,,,,,518.6092095,519.2958397,518.6092095,519.2958397,98.63945578,1583861250,1583861253,2.599582911,1583861248,1583861250,,,HY,1,20,male,undergrad,2020_Mar_10_1019,AdjustEyeTrack,3.1.5,59.80971921
134,Stimuli/Morph134.JPG,Stimuli/Morph134.png,Stimuli/BlurLevel5/BlurEditedMorph134,Stimuli/BlurLevel5/BlurEditedMorph134.png,Stimuli/BlurLevel5/NumberedMorphs/BlurEditedMorph134.png,Stimuli/BlurLevel5/OriginalBlur/BlurEditedMorph134.png,Stimuli/BlurMorphTrio/EditedMorph134.png,None,None,,,,,0,0,0,0,0,30,30,133,,,,,,,,,,,,,,,,,,,,,,,7,31,1,12,2.445369002,0.519779227,134,Experiment,,,,,,,,,24,130,4,4,,,,,,,,,,,,,,,524.4850986,525.1922682,524.4850986,525.1922682,94.55782313,1583861256,1583861259,2.664206266,1583861253,1583861256,,,HY,1,20,male,undergrad,2020_Mar_10_1019,AdjustEyeTrack,3.1.5,59.80971921
56,Stimuli/Morph56.JPG,Stimuli/Morph56.png,Stimuli/BlurLevel5/BlurEditedMorph56,Stimuli/BlurLevel5/BlurEditedMorph56.png,Stimuli/BlurLevel5/NumberedMorphs/BlurEditedMorph56.png,Stimuli/BlurLevel5/OriginalBlur/BlurEditedMorph56.png,Stimuli/BlurMorphTrio/EditedMorph56.png,010157right.gif,Stimuli/normal_thumbnails/56right.gif,,,,,0,0,0,0,0,31,31,55,,,,,,,,,,,,,,,,,,,,,,,26,32,1,139,-1.886773951,1.640147572,56,Experiment,,,,,,,,,56,56,0,0,,,,,,,,,,,,,,,530.4050262,531.0847747,530.4050262,531.0847747,100,1583861262,1583861263,0.980932713,1583861259,1583861262,,,HY,1,20,male,undergrad,2020_Mar_10_1019,AdjustEyeTrack,3.1.5,59.80971921
144,Stimuli/Morph144.JPG,Stimuli/Morph144.png,Stimuli/BlurLevel5/BlurEditedMorph144,Stimuli/BlurLevel5/BlurEditedMorph144.png,Stimuli/BlurLevel5/NumberedMorphs/BlurEditedMorph144.png,Stimuli/BlurLevel5/OriginalBlur/BlurEditedMorph144.png,Stimuli/BlurMorphTrio/EditedMorph144.png,None,None,,,,,0,0,0,0,0,32,32,143,,,,,,,,,,,,,,,,,,,,,,,80,33,1,43,1.828384254,1.7049959,144,Experiment,,,,,,,,,75,128,16,16,,,,,,,,,,,,,,,534.555171,535.2575293,534.555171,535.2575293,78.23129252,1583861266,1583861273,6.679261923,1583861264,1583861266,,,HY,1,20,male,undergrad,2020_Mar_10_1019,AdjustEyeTrack,3.1.5,59.80971921
16,Stimuli/Morph16.JPG,Stimuli/Morph16.png,Stimuli/BlurLevel5/BlurEditedMorph16,Stimuli/BlurLevel5/BlurEditedMorph16.png,Stimuli/BlurLevel5/NumberedMorphs/BlurEditedMorph16.png,Stimuli/BlurLevel5/OriginalBlur/BlurEditedMorph16.png,Stimuli/BlurMorphTrio/EditedMorph16.png,010034right.gif,Stimuli/normal_thumbnails/16right.gif,,,,,0,0,0,0,0,33,33,15,,,,,,,,,,,,,,,,,,,,,,,53,34,1,301,1.287595187,-2.142918252,16,Experiment,,,,,,,,,70,21,-5,-5,,,,,,,,,,,,,,,544.6816703,545.3839761,544.6816703,545.3839761,93.19727891,1583861276,1583861278,1.866360188,1583861273,1583861276,,,HY,1,20,male,undergrad,2020_Mar_10_1019,AdjustEyeTrack,3.1.5,59.80971921
111,Stimuli/Morph111.JPG,Stimuli/Morph111.png,Stimuli/BlurLevel5/BlurEditedMorph111,Stimuli/BlurLevel5/BlurEditedMorph111.png,Stimuli/BlurLevel5/NumberedMorphs/BlurEditedMorph111.png,Stimuli/BlurLevel5/OriginalBlur/BlurEditedMorph111.png,Stimuli/BlurMorphTrio/EditedMorph111.png,None,None,,,,,0,0,0,0,0,34,34,110,,,,,,,,,,,,,,,,,,,,,,,5,35,1,153,-2.22751631,1.134976249,111,Experiment,,,,,,,,,109,109,2,2,,,,,,,,,,,,,,,549.8372897,550.517566,549.8372897,550.517566,97.27891156,1583861281,1583861282,0.949223042,1583861279,1583861281,,,HY,1,20,male,undergrad,2020_Mar_10_1019,AdjustEyeTrack,3.1.5,59.80971921
41,Stimuli/Morph41.JPG,Stimuli/Morph41.png,Stimuli/BlurLevel5/BlurEditedMorph41,Stimuli/BlurLevel5/BlurEditedMorph41.png,Stimuli/BlurLevel5/NumberedMorphs/BlurEditedMorph41.png,Stimuli/BlurLevel5/OriginalBlur/BlurEditedMorph41.png,Stimuli/BlurMorphTrio/EditedMorph41.png,010112right.gif,Stimuli/normal_thumbnails/41right.gif,,,,,0,0,0,0,0,35,35,40,,,,,,,,,,,,,,,,,,,,,,,64,36,1,55,1.433941091,2.047880111,41,Experiment,,,,,,,,,86,48,-7,-7,,,,,,,,,,,,,,,554.0164536,554.6966412,554.0164536,554.6966412,90.47619048,1583861286,1583861287,1.832452059,1583861283,1583861286,,,HY,1,20,male,undergrad,2020_Mar_10_1019,AdjustEyeTrack,3.1.5,59.80971921
29,Stimuli/Morph29.JPG,Stimuli/Morph29.png,Stimuli/BlurLevel5/BlurEditedMorph29,Stimuli/BlurLevel5/BlurEditedMorph29.png,Stimuli/BlurLevel5/NumberedMorphs/BlurEditedMorph29.png,Stimuli/BlurLevel5/OriginalBlur/BlurEditedMorph29.png,Stimuli/BlurMorphTrio/EditedMorph29.png,010074right.gif,Stimuli/normal_thumbnails/29right.gif,,,,,0,0,0,0,0,36,36,28,,,,,,,,,,,,,,,,,,,,,,,63,37,1,112,-0.936516484,2.317959636,29,Experiment,,,,,,,,,66,20,9,9,,,,,,,,,,,,,,,559.1185148,559.7947601,559.1185148,559.7947601,87.75510204,1583861291,1583861293,1.881174088,1583861288,1583861291,,,HY,1,20,male,undergrad,2020_Mar_10_1019,AdjustEyeTrack,3.1.5,59.80971921
67,Stimuli/Morph67.JPG,Stimuli/Morph67.png,Stimuli/BlurLevel5/BlurEditedMorph67,Stimuli/BlurLevel5/BlurEditedMorph67.png,Stimuli/BlurLevel5/NumberedMorphs/BlurEditedMorph67.png,Stimuli/BlurLevel5/OriginalBlur/BlurEditedMorph67.png,Stimuli/BlurMorphTrio/EditedMorph67.png,020217right.gif,Stimuli/normal_thumbnails/67right.gif,,,,,0,0,0,0,0,37,37,66,,,,,,,,,,,,,,,,,,,,,,,28,38,1,285,0.647047613,-2.414814566,67,Experiment,,,,,,,,,106,53,14,14,,,,,,,,,,,,,,,564.3668573,565.0508254,564.3668573,565.0508254,80.95238095,1583861296,1583861298,1.9495399,1583861293,1583861296,,,HY,1,20,male,undergrad,2020_Mar_10_1019,AdjustEyeTrack,3.1.5,59.80971921
79,Stimuli/Morph79.JPG,Stimuli/Morph79.png,Stimuli/BlurLevel5/BlurEditedMorph79,Stimuli/BlurLevel5/BlurEditedMorph79.png,Stimuli/BlurLevel5/NumberedMorphs/BlurEditedMorph79.png,Stimuli/BlurLevel5/OriginalBlur/BlurEditedMorph79.png,Stimuli/BlurMorphTrio/EditedMorph79.png,020239right.gif,Stimuli/normal_thumbnails/79right.gif,,,,,0,0,0,0,0,38,38,78,,,,,,,,,,,,,,,,,,,,,,,9,39,1,169,-2.454067959,0.477022488,79,Experiment,,,,,,,,,95,63,16,16,,,,,,,,,,,,,,,569.3394783,570.0130076,569.3394783,570.0130076,78.23129252,1583861301,1583861303,2.499201059,1583861298,1583861301,,,HY,1,20,male,undergrad,2020_Mar_10_1019,AdjustEyeTrack,3.1.5,59.80971921
96,Stimuli/Morph96.JPG,Stimuli/Morph96.png,Stimuli/BlurLevel5/BlurEditedMorph96,Stimuli/BlurLevel5/BlurEditedMorph96.png,Stimuli/BlurLevel5/NumberedMorphs/BlurEditedMorph96.png,Stimuli/BlurLevel5/OriginalBlur/BlurEditedMorph96.png,Stimuli/BlurMorphTrio/EditedMorph96.png,020292right.gif,Stimuli/normal_thumbnails/96right.gif,,,,,0,0,0,0,0,39,39,95,,,,,,,,,,,,,,,,,,,,,,,53,40,1,169,-2.454067959,0.477022488,96,Experiment,,,,,,,,,46,113,-17,-17,,,,,,,,,,,,,,,575.2315374,575.9236358,575.2315374,575.9236358,76.8707483,1583861307,1583861309,2.400099039,1583861304,1583861307,,,HY,1,20,male,undergrad,2020_Mar_10_1019,AdjustEyeTrack,3.1.5,59.80971921
37,Stimuli/Morph37.JPG,Stimuli/Morph37.png,Stimuli/BlurLevel5/BlurEditedMorph37,Stimuli/BlurLevel5/BlurEditedMorph37.png,Stimuli/BlurLevel5/NumberedMorphs/BlurEditedMorph37.png,Stimuli/BlurLevel5/OriginalBlur/BlurEditedMorph37.png,Stimuli/BlurMorphTrio/EditedMorph37.png,010097right.gif,Stimuli/normal_thumbnails/37right.gif,,,,,0,0,0,0,0,40,40,36,,,,,,,,,,,,,,,,,,,,,,,88,41,1,57,1.361597588,2.09667642,37,Experiment,,,,,,,,,124,63,-26,-26,,,,,,,,,,,,,,,580.9778589,581.6671799,580.9778589,581.6671799,64.62585034,1583861313,1583861317,4.515552044,1583861310,1583861313,,,HY,1,20,male,undergrad,2020_Mar_10_1019,AdjustEyeTrack,3.1.5,59.80971921
133,Stimuli/Morph133.JPG,Stimuli/Morph133.png,Stimuli/BlurLevel5/BlurEditedMorph133,Stimuli/BlurLevel5/BlurEditedMorph133.png,Stimuli/BlurLevel5/NumberedMorphs/BlurEditedMorph133.png,Stimuli/BlurLevel5/OriginalBlur/BlurEditedMorph133.png,Stimuli/BlurMorphTrio/EditedMorph133.png,None,None,,,,,0,0,0,0,0,41,41,132,,,,,,,,,,,,,,,,,,,,,,,84,42,1,333,2.22751631,-1.134976249,133,Experiment,,,,,,,,,81,108,25,25,,,,,,,,,,,,,,,588.6832058,589.3656921,588.6832058,589.3656921,65.98639456,1583861320,1583861324,3.416432858,1583861318,1583861320,,,HY,1,20,male,undergrad,2020_Mar_10_1019,AdjustEyeTrack,3.1.5,59.80971921
77,Stimuli/Morph77.JPG,Stimuli/Morph77.png,Stimuli/BlurLevel5/BlurEditedMorph77,Stimuli/BlurLevel5/BlurEditedMorph77.png,Stimuli/BlurLevel5/NumberedMorphs/BlurEditedMorph77.png,Stimuli/BlurLevel5/OriginalBlur/BlurEditedMorph77.png,Stimuli/BlurMorphTrio/EditedMorph77.png,020235right.gif,Stimuli/normal_thumbnails/77right.gif,,,,,0,0,0,0,0,42,42,76,,,,,,,,,,,,,,,,,,,,,,,8,43,1,58,1.324798161,2.12012024,77,Experiment,,,,,,,,,40,84,-7,-7,,,,,,,,,,,,,,,595.441155,596.1255145,595.441155,596.1255145,90.47619048,1583861327,1583861329,2.265722752,1583861324,1583861327,,,HY,1,20,male,undergrad,2020_Mar_10_1019,AdjustEyeTrack,3.1.5,59.80971921
75,Stimuli/Morph75.JPG,Stimuli/Morph75.png,Stimuli/BlurLevel5/BlurEditedMorph75,Stimuli/BlurLevel5/BlurEditedMorph75.png,Stimuli/BlurLevel5/NumberedMorphs/BlurEditedMorph75.png,Stimuli/BlurLevel5/OriginalBlur/BlurEditedMorph75.png,Stimuli/BlurMorphTrio/EditedMorph75.png,020233right.gif,Stimuli/normal_thumbnails/75right.gif,,,,,0,0,0,0,0,43,43,74,,,,,,,,,,,,,,,,,,,,,,,67,44,1,144,-2.022542486,1.469463131,75,Experiment,,,,,,,,,144,81,-6,-6,,,,,,,,,,,,,,,601.0743053,601.7649877,601.0743053,601.7649877,91.83673469,1583861333,1583861336,3.396042824,1583861330,1583861333,,,HY,1,20,male,undergrad,2020_Mar_10_1019,AdjustEyeTrack,3.1.5,59.80971921
21,Stimuli/Morph21.JPG,Stimuli/Morph21.png,Stimuli/BlurLevel5/BlurEditedMorph21,Stimuli/BlurLevel5/BlurEditedMorph21.png,Stimuli/BlurLevel5/NumberedMorphs/BlurEditedMorph21.png,Stimuli/BlurLevel5/OriginalBlur/BlurEditedMorph21.png,Stimuli/BlurMorphTrio/EditedMorph21.png,010049right.gif,Stimuli/normal_thumbnails/21right.gif,,,,,0,0,0,0,0,44,44,20,,,,,,,,,,,,,,,,,,,,,,,84,45,1,286,0.68909339,-2.40315424,21,Experiment,,,,,,,,,104,14,7,7,,,,,,,,,,,,,,,607.5826774,608.272961,607.5826774,608.272961,90.47619048,1583861339,1583861342,2.749777794,1583861337,1583861339,,,HY,1,20,male,undergrad,2020_Mar_10_1019,AdjustEyeTrack,3.1.5,59.80971921
116,Stimuli/Morph116.JPG,Stimuli/Morph116.png,Stimuli/BlurLevel5/BlurEditedMorph116,Stimuli/BlurLevel5/BlurEditedMorph116.png,Stimuli/BlurLevel5/NumberedMorphs/BlurEditedMorph116.png,Stimuli/BlurLevel5/OriginalBlur/BlurEditedMorph116.png,Stimuli/BlurMorphTrio/EditedMorph116.png,None,None,,,,,0,0,0,0,0,45,45,115,,,,,,,,,,,,,,,,,,,,,,,14,46,1,194,-2.425739316,-0.604804739,116,Experiment,,,,,,,,,91,97,19,19,,,,,,,,,,,,,,,613.7223988,614.4131132,613.7223988,614.4131132,74.14965986,1583861345,1583861348,2.582920313,1583861342,1583861345,,,HY,1,20,male,undergrad,2020_Mar_10_1019,AdjustEyeTrack,3.1.5,59.80971921
36,Stimuli/Morph36.JPG,Stimuli/Morph36.png,Stimuli/BlurLevel5/BlurEditedMorph36,Stimuli/BlurLevel5/BlurEditedMorph36.png,Stimuli/BlurLevel5/NumberedMorphs/BlurEditedMorph36.png,Stimuli/BlurLevel5/OriginalBlur/BlurEditedMorph36.png,Stimuli/BlurMorphTrio/EditedMorph36.png,010095right.gif,Stimuli/normal_thumbnails/36right.gif,,,,,0,0,0,0,0,46,46,35,,,,,,,,,,,,,,,,,,,,,,,18,47,1,277,0.304673359,-2.481365379,36,Experiment,,,,,,,,,55,28,8,8,,,,,,,,,,,,,,,619.3735689,620.0559681,619.3735689,620.0559681,89.11564626,1583861351,1583861353,2.48342514,1583861348,1583861351,,,HY,1,20,male,undergrad,2020_Mar_10_1019,AdjustEyeTrack,3.1.5,59.80971921
24,Stimuli/Morph24.JPG,Stimuli/Morph24.png,Stimuli/BlurLevel5/BlurEditedMorph24,Stimuli/BlurLevel5/BlurEditedMorph24.png,Stimuli/BlurLevel5/NumberedMorphs/BlurEditedMorph24.png,Stimuli/BlurLevel5/OriginalBlur/BlurEditedMorph24.png,Stimuli/BlurMorphTrio/EditedMorph24.png,010068right.gif,Stimuli/normal_thumbnails/24right.gif,,,,,0,0,0,0,0,47,47,23,,,,,,,,,,,,,,,,,,,,,,,36,48,1,80,0.434120444,2.462019383,24,Experiment,,,,,,,,,80,23,1,1,,,,,,,,,,,,,,,625.2593819,625.9495876,625.2593819,625.9495876,98.63945578,1583861357,1583861363,6.099532843,1583861354,1583861357,,,HY,1,20,male,undergrad,2020_Mar_10_1019,AdjustEyeTrack,3.1.5,59.80971921
143,Stimuli/Morph143.JPG,Stimuli/Morph143.png,Stimuli/BlurLevel5/BlurEditedMorph143,Stimuli/BlurLevel5/BlurEditedMorph143.png,Stimuli/BlurLevel5/NumberedMorphs/BlurEditedMorph143.png,Stimuli/BlurLevel5/OriginalBlur/BlurEditedMorph143.png,Stimuli/BlurMorphTrio/EditedMorph143.png,None,None,,,,,0,0,0,0,0,48,48,142,,,,,,,,,,,,,,,,,,,,,,,45,49,1,42,1.857862064,1.672826516,143,Experiment,,,,,,,,,144,130,13,13,,,,,,,,,,,,,,,634.4891284,635.1651458,634.4891284,635.1651458,82.31292517,1583861366,1583861368,1.915599108,1583861364,1583861366,,,HY,1,20,male,undergrad,2020_Mar_10_1019,AdjustEyeTrack,3.1.5,59.80971921
124,Stimuli/Morph124.JPG,Stimuli/Morph124.png,Stimuli/BlurLevel5/BlurEditedMorph124,Stimuli/BlurLevel5/BlurEditedMorph124.png,Stimuli/BlurLevel5/NumberedMorphs/BlurEditedMorph124.png,Stimuli/BlurLevel5/OriginalBlur/BlurEditedMorph124.png,Stimuli/BlurMorphTrio/EditedMorph124.png,None,None,,,,,0,0,0,0,0,49,49,123,,,,,,,,,,,,,,,,,,,,,,,6,50,1,10,2.462019383,0.434120444,124,Experiment,,,,,,,,,143,122,2,2,,,,,,,,,,,,,,,639.877843,640.6122571,639.877843,640.6122571,97.27891156,1583861372,1583861373,1.487515926,1583861369,1583861372,,,HY,1,20,male,undergrad,2020_Mar_10_1019,AdjustEyeTrack,3.1.5,59.80971921
119,Stimuli/Morph119.JPG,Stimuli/Morph119.png,Stimuli/BlurLevel5/BlurEditedMorph119,Stimuli/BlurLevel5/BlurEditedMorph119.png,Stimuli/BlurLevel5/NumberedMorphs/BlurEditedMorph119.png,Stimuli/BlurLevel5/OriginalBlur/BlurEditedMorph119.png,Stimuli/BlurMorphTrio/EditedMorph119.png,None,None,,,,,0,0,0,0,0,50,50,118,,,,,,,,,,,,,,,,,,,,,,,71,51,1,12,2.445369002,0.519779227,119,Experiment,,,,,,,,,105,105,14,14,,,,,,,,,,,,,,,644.5851435,645.2725584,644.5851435,645.2725584,80.95238095,1583861376,1583861377,0.923786879,1583861374,1583861376,,,HY,1,20,male,undergrad,2020_Mar_10_1019,AdjustEyeTrack,3.1.5,59.80971921
69,Stimuli/Morph69.JPG,Stimuli/Morph69.png,Stimuli/BlurLevel5/BlurEditedMorph69,Stimuli/BlurLevel5/BlurEditedMorph69.png,Stimuli/BlurLevel5/NumberedMorphs/BlurEditedMorph69.png,Stimuli/BlurLevel5/OriginalBlur/BlurEditedMorph69.png,Stimuli/BlurMorphTrio/EditedMorph69.png,020220right.gif,Stimuli/normal_thumbnails/69right.gif,,,,,0,0,0,0,0,51,51,68,,,,,,,,,,,,,,,,,,,,,,,30,52,1,28,2.207368982,1.173678907,69,Experiment,,,,,,,,,86,88,-19,-19,,,,,,,,,,,,,,,648.88042,649.5785225,648.88042,649.5785225,74.14965986,1583861381,1583861384,3.516341925,1583861378,1583861380,,,HY,1,20,male,undergrad,2020_Mar_10_1019,AdjustEyeTrack,3.1.5,59.80971921
100,Stimuli/Morph100.JPG,Stimuli/Morph100.png,Stimuli/BlurLevel5/BlurEditedMorph100,Stimuli/BlurLevel5/BlurEditedMorph100.png,Stimuli/BlurLevel5/NumberedMorphs/BlurEditedMorph100.png,Stimuli/BlurLevel5/OriginalBlur/BlurEditedMorph100.png,Stimuli/BlurMorphTrio/EditedMorph100.png,020297right.gif,Stimuli/normal_thumbnails/100right.gif,,,,,0,0,0,0,0,52,52,99,,,,,,,,,,,,,,,,,,,,,,,94,53,1,95,-0.217889357,2.490486745,100,Experiment,,,,,,,,,99,99,1,1,,,,,,,,,,,,,,,656.0245249,656.7306613,656.0245249,656.7306613,98.63945578,1583861388,1583861389,0.916523933,1583861385,1583861388,,,HY,1,20,male,undergrad,2020_Mar_10_1019,AdjustEyeTrack,3.1.5,59.80971921
146,Stimuli/Morph146.JPG,Stimuli/Morph146.png,Stimuli/BlurLevel5/BlurEditedMorph146,Stimuli/BlurLevel5/BlurEditedMorph146.png,Stimuli/BlurLevel5/NumberedMorphs/BlurEditedMorph146.png,Stimuli/BlurLevel5/OriginalBlur/BlurEditedMorph146.png,Stimuli/BlurMorphTrio/EditedMorph146.png,None,None,,,,,0,0,0,0,0,53,53,145,,,,,,,,,,,,,,,,,,,,,,,4,54,1,138,-1.857862064,1.672826516,146,Experiment,,,,,,,,,37,128,18,18,,,,,,,,,,,,,,,660.4971386,661.1958313,660.4971386,661.1958313,75.51020408,1583861392,1583861396,3.406839132,1583861389,1583861392,,,HY,1,20,male,undergrad,2020_Mar_10_1019,AdjustEyeTrack,3.1.5,59.80971921
120,Stimuli/Morph120.JPG,Stimuli/Morph120.png,Stimuli/BlurLevel5/BlurEditedMorph120,Stimuli/BlurLevel5/BlurEditedMorph120.png,Stimuli/BlurLevel5/NumberedMorphs/BlurEditedMorph120.png,Stimuli/BlurLevel5/OriginalBlur/BlurEditedMorph120.png,Stimuli/BlurMorphTrio/EditedMorph120.png,None,None,,,,,0,0,0,0,0,54,54,119,,,,,,,,,,,,,,,,,,,,,,,40,55,1,20,2.349231552,0.855050358,120,Experiment,,,,,,,,,22,122,-2,-2,,,,,,,,,,,,,,,667.3793671,668.0877709,667.3793671,668.0877709,97.27891156,1583861399,1583861401,2.268558741,1583861396,1583861399,,,HY,1,20,male,undergrad,2020_Mar_10_1019,AdjustEyeTrack,3.1.5,59.80971921
76,Stimuli/Morph76.JPG,Stimuli/Morph76.png,Stimuli/BlurLevel5/BlurEditedMorph76,Stimuli/BlurLevel5/BlurEditedMorph76.png,Stimuli/BlurLevel5/NumberedMorphs/BlurEditedMorph76.png,Stimuli/BlurLevel5/OriginalBlur/BlurEditedMorph76.png,Stimuli/BlurMorphTrio/EditedMorph76.png,020234right.gif,Stimuli/normal_thumbnails/76right.gif,,,,,0,0,0,0,0,55,55,75,,,,,,,,,,,,,,,,,,,,,,,48,56,1,249,-0.895919874,-2.333951066,76,Experiment,,,,,,,,,114,82,-6,-6,,,,,,,,,,,,,,,672.9199435,673.6055156,672.9199435,673.6055156,91.83673469,1583861405,1583861407,2.234475136,1583861402,1583861405,,,HY,1,20,male,undergrad,2020_Mar_10_1019,AdjustEyeTrack,3.1.5,59.80971921
147,Stimuli/Morph147.JPG,Stimuli/Morph147.png,Stimuli/BlurLevel5/BlurEditedMorph147,Stimuli/BlurLevel5/BlurEditedMorph147.png,Stimuli/BlurLevel5/NumberedMorphs/BlurEditedMorph147.png,Stimuli/BlurLevel5/OriginalBlur/BlurEditedMorph147.png,Stimuli/BlurMorphTrio/EditedMorph147.png,None,None,,,,,0,0,0,0,0,56,56,146,,,,,,,,,,,,,,,,,,,,,,,100,57,1,71,0.813920386,2.363796439,147,Experiment,,,,,,,,,74,132,15,15,,,,,,,,,,,,,,,678.4728626,679.1492415,678.4728626,679.1492415,79.59183673,1583861410,1583861412,2.146732092,1583861407,1583861410,,,HY,1,20,male,undergrad,2020_Mar_10_1019,AdjustEyeTrack,3.1.5,59.80971921
31,Stimuli/Morph31.JPG,Stimuli/Morph31.png,Stimuli/BlurLevel5/BlurEditedMorph31,Stimuli/BlurLevel5/BlurEditedMorph31.png,Stimuli/BlurLevel5/NumberedMorphs/BlurEditedMorph31.png,Stimuli/BlurLevel5/OriginalBlur/BlurEditedMorph31.png,Stimuli/BlurMorphTrio/EditedMorph31.png,010079right.gif,Stimuli/normal_thumbnails/31right.gif,,,,,0,0,0,0,0,57,57,30,,,,,,,,,,,,,,,,,,,,,,,52,58,1,341,2.363796439,-0.813920386,31,Experiment,,,,,,,,,127,37,-6,-6,,,,,,,,,,,,,,,683.8572436,684.5502185,683.8572436,684.5502185,91.83673469,1583861415,1583861419,3.363264084,1583861413,1583861415,,,HY,1,20,male,undergrad,2020_Mar_10_1019,AdjustEyeTrack,3.1.5,59.80971921
55,Stimuli/Morph55.JPG,Stimuli/Morph55.png,Stimuli/BlurLevel5/BlurEditedMorph55,Stimuli/BlurLevel5/BlurEditedMorph55.png,Stimuli/BlurLevel5/NumberedMorphs/BlurEditedMorph55.png,Stimuli/BlurLevel5/OriginalBlur/BlurEditedMorph55.png,Stimuli/BlurMorphTrio/EditedMorph55.png,010151right.gif,Stimuli/normal_thumbnails/55right.gif,,,,,0,0,0,0,0,58,58,54,,,,,,,,,,,,,,,,,,,,,,,92,59,1,272,0.087248742,-2.498477068,55,Experiment,,,,,,,,,98,47,8,8,,,,,,,,,,,,,,,690.9257322,691.6442149,690.9257322,691.6442149,89.11564626,1583861423,1583861427,4.150418282,1583861419,1583861423,,,HY,1,20,male,undergrad,2020_Mar_10_1019,AdjustEyeTrack,3.1.5,59.80971921
5,Stimuli/Morph5.JPG,Stimuli/Morph5.png,Stimuli/BlurLevel5/BlurEditedMorph5,Stimuli/BlurLevel5/BlurEditedMorph5.png,Stimuli/BlurLevel5/NumberedMorphs/BlurEditedMorph5.png,Stimuli/BlurLevel5/OriginalBlur/BlurEditedMorph5.png,Stimuli/BlurMorphTrio/EditedMorph5.png,010011right.gif,Stimuli/normal_thumbnails/5right.gif,,,,,0,0,0,0,0,59,59,4,,,,,,,,,,,,,,,,,,,,,,,99,60,1,320,1.915111108,-1.606969024,5,Experiment,,,,,,,,,19,131,-126,21,,,,,,,,,,,,,,,698.287939,698.9555304,698.287939,698.9555304,71.42857143,1583861430,1583861434,3.598798037,1583861427,1583861430,,,HY,1,20,male,undergrad,2020_Mar_10_1019,AdjustEyeTrack,3.1.5,59.80971921
145,Stimuli/Morph145.JPG,Stimuli/Morph145.png,Stimuli/BlurLevel5/BlurEditedMorph145,Stimuli/BlurLevel5/BlurEditedMorph145.png,Stimuli/BlurLevel5/NumberedMorphs/BlurEditedMorph145.png,Stimuli/BlurLevel5/OriginalBlur/BlurEditedMorph145.png,Stimuli/BlurMorphTrio/EditedMorph145.png,None,None,,,,,0,0,0,0,0,60,60,144,,,,,,,,,,,,,,,,,,,,,,,11,61,1,352,2.475670172,-0.347932752,145,Experiment,,,,,,,,,79,132,13,13,,,,,,,,,,,,,,,705.5549071,706.2652618,705.5549071,706.2652618,82.31292517,1583861437,1583861439,2.083225727,1583861434,1583861437,,,HY,1,20,male,undergrad,2020_Mar_10_1019,AdjustEyeTrack,3.1.5,59.80971921
105,Stimuli/Morph105.JPG,Stimuli/Morph105.png,Stimuli/BlurLevel5/BlurEditedMorph105,Stimuli/BlurLevel5/BlurEditedMorph105.png,Stimuli/BlurLevel5/NumberedMorphs/BlurEditedMorph105.png,Stimuli/BlurLevel5/OriginalBlur/BlurEditedMorph105.png,Stimuli/BlurMorphTrio/EditedMorph105.png,None,None,,,,,0,0,0,0,0,61,61,104,,,,,,,,,,,,,,,,,,,,,,,93,62,1,164,-2.40315424,0.68909339,105,Experiment,,,,,,,,,122,105,0,0,,,,,,,,,,,,,,,711.6274473,712.3549935,711.6274473,712.3549935,100,1583861443,1583861445,1.630218029,1583861440,1583861443,,,HY,1,20,male,undergrad,2020_Mar_10_1019,AdjustEyeTrack,3.1.5,59.80971921
129,Stimuli/Morph129.JPG,Stimuli/Morph129.png,Stimuli/BlurLevel5/BlurEditedMorph129,Stimuli/BlurLevel5/BlurEditedMorph129.png,Stimuli/BlurLevel5/NumberedMorphs/BlurEditedMorph129.png,Stimuli/BlurLevel5/OriginalBlur/BlurEditedMorph129.png,Stimuli/BlurMorphTrio/EditedMorph129.png,None,None,,,,,0,0,0,0,0,62,62,128,,,,,,,,,,,,,,,,,,,,,,,33,63,1,268,-0.087248742,-2.498477068,129,Experiment,,,,,,,,,108,118,11,11,,,,,,,,,,,,,,,716.679355,717.3714786,716.679355,717.3714786,85.03401361,1583861448,1583861449,1.149977207,1583861446,1583861448,,,HY,1,20,male,undergrad,2020_Mar_10_1019,AdjustEyeTrack,3.1.5,59.80971921
110,Stimuli/Morph110.JPG,Stimuli/Morph110.png,Stimuli/BlurLevel5/BlurEditedMorph110,Stimuli/BlurLevel5/BlurEditedMorph110.png,Stimuli/BlurLevel5/NumberedMorphs/BlurEditedMorph110.png,Stimuli/BlurLevel5/OriginalBlur/BlurEditedMorph110.png,Stimuli/BlurMorphTrio/EditedMorph110.png,None,None,,,,,0,0,0,0,0,63,63,109,,,,,,,,,,,,,,,,,,,,,,,6,64,1,212,-2.12012024,-1.324798161,110,Experiment,,,,,,,,,134,112,-2,-2,,,,,,,,,,,,,,,721.3776427,722.1129118,721.3776427,722.1129118,97.27891156,1583861453,1583861455,1.64942193,1583861450,1583861453,,,HY,1,20,male,undergrad,2020_Mar_10_1019,AdjustEyeTrack,3.1.5,59.80971921
138,Stimuli/Morph138.JPG,Stimuli/Morph138.png,Stimuli/BlurLevel5/BlurEditedMorph138,Stimuli/BlurLevel5/BlurEditedMorph138.png,Stimuli/BlurLevel5/NumberedMorphs/BlurEditedMorph138.png,Stimuli/BlurLevel5/OriginalBlur/BlurEditedMorph138.png,Stimuli/BlurMorphTrio/EditedMorph138.png,None,None,,,,,0,0,0,0,0,64,64,137,,,,,,,,,,,,,,,,,,,,,,,23,65,1,211,-2.142918252,-1.287595187,138,Experiment,,,,,,,,,126,131,7,7,,,,,,,,,,,,,,,726.404259,727.0892286,726.404259,727.0892286,90.47619048,1583861458,1583861460,1.563826084,1583861455,1583861458,,,HY,1,20,male,undergrad,2020_Mar_10_1019,AdjustEyeTrack,3.1.5,59.80971921
130,Stimuli/Morph130.JPG,Stimuli/Morph130.png,Stimuli/BlurLevel5/BlurEditedMorph130,Stimuli/BlurLevel5/BlurEditedMorph130.png,Stimuli/BlurLevel5/NumberedMorphs/BlurEditedMorph130.png,Stimuli/BlurLevel5/OriginalBlur/BlurEditedMorph130.png,Stimuli/BlurMorphTrio/EditedMorph130.png,None,None,,,,,0,0,0,0,0,65,65,129,,,,,,,,,,,,,,,,,,,,,,,64,66,1,352,2.475670172,-0.347932752,130,Experiment,,,,,,,,,90,124,6,6,,,,,,,,,,,,,,,731.2418563,731.9335203,731.2418563,731.9335203,91.83673469,1583861463,1583861467,3.896689177,1583861460,1583861463,,,HY,1,20,male,undergrad,2020_Mar_10_1019,AdjustEyeTrack,3.1.5,59.80971921
109,Stimuli/Morph109.JPG,Stimuli/Morph109.png,Stimuli/BlurLevel5/BlurEditedMorph109,Stimuli/BlurLevel5/BlurEditedMorph109.png,Stimuli/BlurLevel5/NumberedMorphs/BlurEditedMorph109.png,Stimuli/BlurLevel5/OriginalBlur/BlurEditedMorph109.png,Stimuli/BlurMorphTrio/EditedMorph109.png,None,None,,,,,0,0,0,0,0,66,66,108,,,,,,,,,,,,,,,,,,,,,,,41,67,1,277,0.304673359,-2.481365379,109,Experiment,,,,,,,,,131,123,-14,-14,,,,,,,,,,,,,,,738.4955725,739.178448,738.4955725,739.178448,80.95238095,1583861470,1583861471,1.301255226,1583861467,1583861470,,,HY,1,20,male,undergrad,2020_Mar_10_1019,AdjustEyeTrack,3.1.5,59.80971921
88,Stimuli/Morph88.JPG,Stimuli/Morph88.png,Stimuli/BlurLevel5/BlurEditedMorph88,Stimuli/BlurLevel5/BlurEditedMorph88.png,Stimuli/BlurLevel5/NumberedMorphs/BlurEditedMorph88.png,Stimuli/BlurLevel5/OriginalBlur/BlurEditedMorph88.png,Stimuli/BlurMorphTrio/EditedMorph88.png,020271right.gif,Stimuli/normal_thumbnails/88right.gif,,,,,0,0,0,0,0,67,67,87,,,,,,,,,,,,,,,,,,,,,,,28,68,1,125,-1.433941091,2.047880111,88,Experiment,,,,,,,,,19,110,-22,-22,,,,,,,,,,,,,,,743.2867937,743.9746093,743.2867937,743.9746093,70.06802721,1583861475,1583861477,2.382727146,1583861472,1583861475,,,HY,1,20,male,undergrad,2020_Mar_10_1019,AdjustEyeTrack,3.1.5,59.80971921
45,Stimuli/Morph45.JPG,Stimuli/Morph45.png,Stimuli/BlurLevel5/BlurEditedMorph45,Stimuli/BlurLevel5/BlurEditedMorph45.png,Stimuli/BlurLevel5/NumberedMorphs/BlurEditedMorph45.png,Stimuli/BlurLevel5/OriginalBlur/BlurEditedMorph45.png,Stimuli/BlurMorphTrio/EditedMorph45.png,010127right.gif,Stimuli/normal_thumbnails/45right.gif,,,,,0,0,0,0,0,68,68,44,,,,,,,,,,,,,,,,,,,,,,,68,69,1,72,0.772542486,2.377641291,45,Experiment,,,,,,,,,91,48,-3,-3,,,,,,,,,,,,,,,748.9861018,749.6721268,748.9861018,749.6721268,95.91836735,1583861481,1583861483,2.631271124,1583861478,1583861481,,,HY,1,20,male,undergrad,2020_Mar_10_1019,AdjustEyeTrack,3.1.5,59.80971921
54,Stimuli/Morph54.JPG,Stimuli/Morph54.png,Stimuli/BlurLevel5/BlurEditedMorph54,Stimuli/BlurLevel5/BlurEditedMorph54.png,Stimuli/BlurLevel5/NumberedMorphs/BlurEditedMorph54.png,Stimuli/BlurLevel5/OriginalBlur/BlurEditedMorph54.png,Stimuli/BlurMorphTrio/EditedMorph54.png,010150right.gif,Stimuli/normal_thumbnails/54right.gif,,,,,0,0,0,0,0,69,69,53,,,,,,,,,,,,,,,,,,,,,,,83,70,1,354,2.486304738,-0.261321158,54,Experiment,,,,,,,,,129,49,5,5,,,,,,,,,,,,,,,755.02674,755.7308471,755.02674,755.7308471,93.19727891,1583861487,1583861489,2.782460928,1583861484,1583861487,,,HY,1,20,male,undergrad,2020_Mar_10_1019,AdjustEyeTrack,3.1.5,59.80971921
84,Stimuli/Morph84.JPG,Stimuli/Morph84.png,Stimuli/BlurLevel5/BlurEditedMorph84,Stimuli/BlurLevel5/BlurEditedMorph84.png,Stimuli/BlurLevel5/NumberedMorphs/BlurEditedMorph84.png,Stimuli/BlurLevel5/OriginalBlur/BlurEditedMorph84.png,Stimuli/BlurMorphTrio/EditedMorph84.png,020261right.gif,Stimuli/normal_thumbnails/84right.gif,,,,,0,0,0,0,0,70,70,83,,,,,,,,,,,,,,,,,,,,,,,65,71,1,305,1.433941091,-2.047880111,84,Experiment,,,,,,,,,106,114,-30,-30,,,,,,,,,,,,,,,761.208786,761.9049729,761.208786,761.9049729,59.18367347,1583861493,1583861496,3.216041803,1583861490,1583861493,,,HY,1,20,male,undergrad,2020_Mar_10_1019,AdjustEyeTrack,3.1.5,59.80971921
30,Stimuli/Morph30.JPG,Stimuli/Morph30.png,Stimuli/BlurLevel5/BlurEditedMorph30,Stimuli/BlurLevel5/BlurEditedMorph30.png,Stimuli/BlurLevel5/NumberedMorphs/BlurEditedMorph30.png,Stimuli/BlurLevel5/OriginalBlur/BlurEditedMorph30.png,Stimuli/BlurMorphTrio/EditedMorph30.png,010076right.gif,Stimuli/normal_thumbnails/30right.gif,,,,,0,0,0,0,0,71,71,29,,,,,,,,,,,,,,,,,,,,,,,52,72,1,61,1.212024051,2.186549268,30,Experiment,,,,,,,,,11,33,-3,-3,,,,,,,,,,,,,,,767.7088277,768.3881153,767.7088277,768.3881153,95.91836735,1583861499,1583861504,4.633376837,1583861497,1583861499,,,HY,1,20,male,undergrad,2020_Mar_10_1019,AdjustEyeTrack,3.1.5,59.80971921
32,Stimuli/Morph32.JPG,Stimuli/Morph32.png,Stimuli/BlurLevel5/BlurEditedMorph32,Stimuli/BlurLevel5/BlurEditedMorph32.png,Stimuli/BlurLevel5/NumberedMorphs/BlurEditedMorph32.png,Stimuli/BlurLevel5/OriginalBlur/BlurEditedMorph32.png,Stimuli/BlurMorphTrio/EditedMorph32.png,010080right.gif,Stimuli/normal_thumbnails/32right.gif,,,,,0,0,0,0,0,72,72,31,,,,,,,,,,,,,,,,,,,,,,,100,73,1,161,-2.363796439,0.813920386,32,Experiment,,,,,,,,,63,28,4,4,,,,,,,,,,,,,,,775.633872,776.3206623,775.633872,776.3206623,94.55782313,1583861507,1583861511,3.685848951,1583861504,1583861507,,,HY,1,20,male,undergrad,2020_Mar_10_1019,AdjustEyeTrack,3.1.5,59.80971921
70,Stimuli/Morph70.JPG,Stimuli/Morph70.png,Stimuli/BlurLevel5/BlurEditedMorph70,Stimuli/BlurLevel5/BlurEditedMorph70.png,Stimuli/BlurLevel5/NumberedMorphs/BlurEditedMorph70.png,Stimuli/BlurLevel5/OriginalBlur/BlurEditedMorph70.png,Stimuli/BlurMorphTrio/EditedMorph70.png,020221right.gif,Stimuli/normal_thumbnails/70right.gif,,,,,0,0,0,0,0,73,73,69,,,,,,,,,,,,,,,,,,,,,,,66,74,1,180,-2.5,3.06E-16,70,Experiment,,,,,,,,,45,71,-1,-1,,,,,,,,,,,,,,,782.5091224,783.1820865,782.5091224,783.1820865,98.63945578,1583861514,1583861518,3.549546957,1583861511,1583861514,,,HY,1,20,male,undergrad,2020_Mar_10_1019,AdjustEyeTrack,3.1.5,59.80971921
108,Stimuli/Morph108.JPG,Stimuli/Morph108.png,Stimuli/BlurLevel5/BlurEditedMorph108,Stimuli/BlurLevel5/BlurEditedMorph108.png,Stimuli/BlurLevel5/NumberedMorphs/BlurEditedMorph108.png,Stimuli/BlurLevel5/OriginalBlur/BlurEditedMorph108.png,Stimuli/BlurMorphTrio/EditedMorph108.png,None,None,,,,,0,0,0,0,0,74,74,107,,,,,,,,,,,,,,,,,,,,,,,53,75,1,163,-2.39076189,0.730929262,108,Experiment,,,,,,,,,146,104,4,4,,,,,,,,,,,,,,,789.5056138,790.2148686,789.5056138,790.2148686,94.55782313,1583861521,1583861524,3.065366983,1583861518,1583861521,,,HY,1,20,male,undergrad,2020_Mar_10_1019,AdjustEyeTrack,3.1.5,59.80971921
22,Stimuli/Morph22.JPG,Stimuli/Morph22.png,Stimuli/BlurLevel5/BlurEditedMorph22,Stimuli/BlurLevel5/BlurEditedMorph22.png,Stimuli/BlurLevel5/NumberedMorphs/BlurEditedMorph22.png,Stimuli/BlurLevel5/OriginalBlur/BlurEditedMorph22.png,Stimuli/BlurMorphTrio/EditedMorph22.png,010055right.gif,Stimuli/normal_thumbnails/22right.gif,,,,,0,0,0,0,0,75,75,21,,,,,,,,,,,,,,,,,,,,,,,10,76,1,270,-4.59E-16,-2.5,22,Experiment,,,,,,,,,125,36,-14,-14,,,,,,,,,,,,,,,795.875219,796.5623017,795.875219,796.5623017,80.95238095,1583861528,1583861531,3.13264513,1583861525,1583861528,,,HY,1,20,male,undergrad,2020_Mar_10_1019,AdjustEyeTrack,3.1.5,59.80971921
135,Stimuli/Morph135.JPG,Stimuli/Morph135.png,Stimuli/BlurLevel5/BlurEditedMorph135,Stimuli/BlurLevel5/BlurEditedMorph135.png,Stimuli/BlurLevel5/NumberedMorphs/BlurEditedMorph135.png,Stimuli/BlurLevel5/OriginalBlur/BlurEditedMorph135.png,Stimuli/BlurMorphTrio/EditedMorph135.png,None,None,,,,,0,0,0,0,0,76,76,134,,,,,,,,,,,,,,,,,,,,,,,53,77,1,35,2.047880111,1.433941091,135,Experiment,,,,,,,,,23,131,4,4,,,,,,,,,,,,,,,802.4028532,803.1086534,802.4028532,803.1086534,94.55782313,1583861534,1583861537,2.98292017,1583861531,1583861534,,,HY,1,20,male,undergrad,2020_Mar_10_1019,AdjustEyeTrack,3.1.5,59.80971921
28,Stimuli/Morph28.JPG,Stimuli/Morph28.png,Stimuli/BlurLevel5/BlurEditedMorph28,Stimuli/BlurLevel5/BlurEditedMorph28.png,Stimuli/BlurLevel5/NumberedMorphs/BlurEditedMorph28.png,Stimuli/BlurLevel5/OriginalBlur/BlurEditedMorph28.png,Stimuli/BlurMorphTrio/EditedMorph28.png,010073right.gif,Stimuli/normal_thumbnails/28right.gif,,,,,0,0,0,0,0,77,77,27,,,,,,,,,,,,,,,,,,,,,,,38,78,1,117,-1.134976249,2.22751631,28,Experiment,,,,,,,,,63,29,-1,-1,,,,,,,,,,,,,,,808.7851706,809.5039844,808.7851706,809.5039844,98.63945578,1583861540,1583861543,2.646460056,1583861538,1583861540,,,HY,1,20,male,undergrad,2020_Mar_10_1019,AdjustEyeTrack,3.1.5,59.80971921
104,Stimuli/Morph104.JPG,Stimuli/Morph104.png,Stimuli/BlurLevel5/BlurEditedMorph104,Stimuli/BlurLevel5/BlurEditedMorph104.png,Stimuli/BlurLevel5/NumberedMorphs/BlurEditedMorph104.png,Stimuli/BlurLevel5/OriginalBlur/BlurEditedMorph104.png,Stimuli/BlurMorphTrio/EditedMorph104.png,None,None,,,,,0,0,0,0,0,78,78,103,,,,,,,,,,,,,,,,,,,,,,,81,79,1,172,-2.475670172,0.347932752,104,Experiment,,,,,,,,,80,107,-3,-3,,,,,,,,,,,,,,,814.6134037,815.2972963,814.6134037,815.2972963,95.91836735,1583861546,1583861549,2.771816015,1583861544,1583861546,,,HY,1,20,male,undergrad,2020_Mar_10_1019,AdjustEyeTrack,3.1.5,59.80971921
23,Stimuli/Morph23.JPG,Stimuli/Morph23.png,Stimuli/BlurLevel5/BlurEditedMorph23,Stimuli/BlurLevel5/BlurEditedMorph23.png,Stimuli/BlurLevel5/NumberedMorphs/BlurEditedMorph23.png,Stimuli/BlurLevel5/OriginalBlur/BlurEditedMorph23.png,Stimuli/BlurMorphTrio/EditedMorph23.png,010063right.gif,Stimuli/normal_thumbnails/23right.gif,,,,,0,0,0,0,0,79,79,22,,,,,,,,,,,,,,,,,,,,,,,58,80,1,20,2.349231552,0.855050358,23,Experiment,,,,,,,,,145,34,-11,-11,,,,,,,,,,,,,,,820.666635,821.3584948,820.666635,821.3584948,85.03401361,1583861552,1583861556,3.515907049,1583861550,1583861552,,,HY,1,20,male,undergrad,2020_Mar_10_1019,AdjustEyeTrack,3.1.5,59.80971921
6,Stimuli/Morph6.JPG,Stimuli/Morph6.png,Stimuli/BlurLevel5/BlurEditedMorph6,Stimuli/BlurLevel5/BlurEditedMorph6.png,Stimuli/BlurLevel5/NumberedMorphs/BlurEditedMorph6.png,Stimuli/BlurLevel5/OriginalBlur/BlurEditedMorph6.png,Stimuli/BlurMorphTrio/EditedMorph6.png,010012right.gif,Stimuli/normal_thumbnails/6right.gif,,,,,0,0,0,0,0,80,80,5,,,,,,,,,,,,,,,,,,,,,,,57,81,1,303,1.361597588,-2.09667642,6,Experiment,,,,,,,,,59,136,-130,17,,,,,,,,,,,,,,,827.5837168,828.271774,827.5837168,828.271774,76.8707483,1583861559,1583861562,2.982813358,1583861556,1583861559,,,HY,1,20,male,undergrad,2020_Mar_10_1019,AdjustEyeTrack,3.1.5,59.80971921
46,Stimuli/Morph46.JPG,Stimuli/Morph46.png,Stimuli/BlurLevel5/BlurEditedMorph46,Stimuli/BlurLevel5/BlurEditedMorph46.png,Stimuli/BlurLevel5/NumberedMorphs/BlurEditedMorph46.png,Stimuli/BlurLevel5/OriginalBlur/BlurEditedMorph46.png,Stimuli/BlurMorphTrio/EditedMorph46.png,010128right.gif,Stimuli/normal_thumbnails/46right.gif,,,,,0,0,0,0,0,81,81,45,,,,,,,,,,,,,,,,,,,,,,,11,82,1,209,-2.186549268,-1.212024051,46,Experiment,,,,,,,,,144,35,11,11,,,,,,,,,,,,,,,834.2652987,834.9814405,834.2652987,834.9814405,85.03401361,1583861566,1583861569,3.03238678,1583861563,1583861566,,,HY,1,20,male,undergrad,2020_Mar_10_1019,AdjustEyeTrack,3.1.5,59.80971921
2,Stimuli/Morph2.JPG,Stimuli/Morph2.png,Stimuli/BlurLevel5/BlurEditedMorph2,Stimuli/BlurLevel5/BlurEditedMorph2.png,Stimuli/BlurLevel5/NumberedMorphs/BlurEditedMorph2.png,Stimuli/BlurLevel5/OriginalBlur/BlurEditedMorph2.png,Stimuli/BlurMorphTrio/EditedMorph2.png,010006right.gif,Stimuli/normal_thumbnails/2right.gif,,,,,0,0,0,0,0,82,82,1,,,,,,,,,,,,,,,,,,,,,,,15,83,1,165,-2.414814566,0.647047613,2,Experiment,,,,,,,,,10,133,-131,16,,,,,,,,,,,,,,,840.6251092,841.3033954,840.6251092,841.3033954,78.23129252,1583861572,1583861575,2.485430002,1583861570,1583861572,,,HY,1,20,male,undergrad,2020_Mar_10_1019,AdjustEyeTrack,3.1.5,59.80971921
11,Stimuli/Morph11.JPG,Stimuli/Morph11.png,Stimuli/BlurLevel5/BlurEditedMorph11,Stimuli/BlurLevel5/BlurEditedMorph11.png,Stimuli/BlurLevel5/NumberedMorphs/BlurEditedMorph11.png,Stimuli/BlurLevel5/OriginalBlur/BlurEditedMorph11.png,Stimuli/BlurMorphTrio/EditedMorph11.png,010024right.gif,Stimuli/normal_thumbnails/11right.gif,,,,,0,0,0,0,0,83,83,10,,,,,,,,,,,,,,,,,,,,,,,87,84,1,226,-1.736645926,-1.798349501,11,Experiment,,,,,,,,,111,126,-115,32,,,,,,,,,,,,,,,846.3903598,847.0786645,846.3903598,847.0786645,56.46258503,1583861578,1583861580,2.449044943,1583861575,1583861578,,,HY,1,20,male,undergrad,2020_Mar_10_1019,AdjustEyeTrack,3.1.5,59.80971921
90,Stimuli/Morph90.JPG,Stimuli/Morph90.png,Stimuli/BlurLevel5/BlurEditedMorph90,Stimuli/BlurLevel5/BlurEditedMorph90.png,Stimuli/BlurLevel5/NumberedMorphs/BlurEditedMorph90.png,Stimuli/BlurLevel5/OriginalBlur/BlurEditedMorph90.png,Stimuli/BlurMorphTrio/EditedMorph90.png,020275right.gif,Stimuli/normal_thumbnails/90right.gif,,,,,0,0,0,0,0,84,84,89,,,,,,,,,,,,,,,,,,,,,,,26,85,1,172,-2.475670172,0.347932752,90,Experiment,,,,,,,,,61,106,-16,-16,,,,,,,,,,,,,,,852.0800936,852.7652735,852.0800936,852.7652735,78.23129252,1583861584,1583861587,2.832902908,1583861581,1583861584,,,HY,1,20,male,undergrad,2020_Mar_10_1019,AdjustEyeTrack,3.1.5,59.80971921
20,Stimuli/Morph20.JPG,Stimuli/Morph20.png,Stimuli/BlurLevel5/BlurEditedMorph20,Stimuli/BlurLevel5/BlurEditedMorph20.png,Stimuli/BlurLevel5/NumberedMorphs/BlurEditedMorph20.png,Stimuli/BlurLevel5/OriginalBlur/BlurEditedMorph20.png,Stimuli/BlurMorphTrio/EditedMorph20.png,010046right.gif,Stimuli/normal_thumbnails/20right.gif,,,,,1,0,1,0,0,0,0,19,,,,,,,,,,,,,,,,,,,,,,,39,1,2,112,-0.936516484,2.317959636,20,Experiment,,,,,,,,,92,21,-1,-1,,,,,,,,,,,,,,,869.5440245,870.225107,869.5440245,870.225107,98.63945578,1583861601,1583861604,2.766958714,1583861598,1583861601,space,10.52229417,HY,1,20,male,undergrad,2020_Mar_10_1019,AdjustEyeTrack,3.1.5,59.80971921
67,Stimuli/Morph67.JPG,Stimuli/Morph67.png,Stimuli/BlurLevel5/BlurEditedMorph67,Stimuli/BlurLevel5/BlurEditedMorph67.png,Stimuli/BlurLevel5/NumberedMorphs/BlurEditedMorph67.png,Stimuli/BlurLevel5/OriginalBlur/BlurEditedMorph67.png,Stimuli/BlurMorphTrio/EditedMorph67.png,020217right.gif,Stimuli/normal_thumbnails/67right.gif,,,,,1,0,1,0,0,1,1,66,,,,,,,,,,,,,,,,,,,,,,,68,2,2,356,2.493910126,-0.174391184,67,Experiment,,,,,,,,,84,74,-7,-7,,,,,,,,,,,,,,,875.596168,876.2885813,875.596168,876.2885813,90.47619048,1583861607,1583861612,4.602218151,1583861604,1583861607,,,HY,1,20,male,undergrad,2020_Mar_10_1019,AdjustEyeTrack,3.1.5,59.80971921
117,Stimuli/Morph117.JPG,Stimuli/Morph117.png,Stimuli/BlurLevel5/BlurEditedMorph117,Stimuli/BlurLevel5/BlurEditedMorph117.png,Stimuli/BlurLevel5/NumberedMorphs/BlurEditedMorph117.png,Stimuli/BlurLevel5/OriginalBlur/BlurEditedMorph117.png,Stimuli/BlurMorphTrio/EditedMorph117.png,None,None,,,,,1,0,1,0,0,2,2,116,,,,,,,,,,,,,,,,,,,,,,,60,3,2,191,-2.454067959,-0.477022488,117,Experiment,,,,,,,,,78,108,9,9,,,,,,,,,,,,,,,883.7207721,884.4529398,883.7207721,884.4529398,87.75510204,1583861615,1583861618,2.782909155,1583861612,1583861615,,,HY,1,20,male,undergrad,2020_Mar_10_1019,AdjustEyeTrack,3.1.5,59.80971921
135,Stimuli/Morph135.JPG,Stimuli/Morph135.png,Stimuli/BlurLevel5/BlurEditedMorph135,Stimuli/BlurLevel5/BlurEditedMorph135.png,Stimuli/BlurLevel5/NumberedMorphs/BlurEditedMorph135.png,Stimuli/BlurLevel5/OriginalBlur/BlurEditedMorph135.png,Stimuli/BlurMorphTrio/EditedMorph135.png,None,None,,,,,1,0,1,0,0,3,3,134,,,,,,,,,,,,,,,,,,,,,,,61,4,2,255,-0.647047613,-2.414814566,135,Experiment,,,,,,,,,54,137,-2,-2,,,,,,,,,,,,,,,890.0628985,890.7736637,890.0628985,890.7736637,97.27891156,1583861622,1583861624,2.437960386,1583861619,1583861622,,,HY,1,20,male,undergrad,2020_Mar_10_1019,AdjustEyeTrack,3.1.5,59.80971921
98,Stimuli/Morph98.JPG,Stimuli/Morph98.png,Stimuli/BlurLevel5/BlurEditedMorph98,Stimuli/BlurLevel5/BlurEditedMorph98.png,Stimuli/BlurLevel5/NumberedMorphs/BlurEditedMorph98.png,Stimuli/BlurLevel5/OriginalBlur/BlurEditedMorph98.png,Stimuli/BlurMorphTrio/EditedMorph98.png,020298right.gif,Stimuli/normal_thumbnails/98right.gif,,,,,1,0,1,0,0,4,4,97,,,,,,,,,,,,,,,,,,,,,,,49,5,2,170,-2.462019383,0.434120444,98,Experiment,,,,,,,,,30,107,-9,-9,,,,,,,,,,,,,,,895.8902729,896.5807083,895.8902729,896.5807083,87.75510204,1583861628,1583861630,2.251499176,1583861625,1583861628,,,HY,1,20,male,undergrad,2020_Mar_10_1019,AdjustEyeTrack,3.1.5,59.80971921
80,Stimuli/Morph80.JPG,Stimuli/Morph80.png,Stimuli/BlurLevel5/BlurEditedMorph80,Stimuli/BlurLevel5/BlurEditedMorph80.png,Stimuli/BlurLevel5/NumberedMorphs/BlurEditedMorph80.png,Stimuli/BlurLevel5/OriginalBlur/BlurEditedMorph80.png,Stimuli/BlurMorphTrio/EditedMorph80.png,020240right.gif,Stimuli/normal_thumbnails/80right.gif,,,,,1,0,1,0,0,5,5,79,,,,,,,,,,,,,,,,,,,,,,,82,6,2,225,-1.767766953,-1.767766953,80,Experiment,,,,,,,,,88,90,-10,-10,,,,,,,,,,,,,,,901.4473109,902.1302644,901.4473109,902.1302644,86.39455782,1583861633,1583861635,1.988751888,1583861630,1583861633,,,HY,1,20,male,undergrad,2020_Mar_10_1019,AdjustEyeTrack,3.1.5,59.80971921
97,Stimuli/Morph97.JPG,Stimuli/Morph97.png,Stimuli/BlurLevel5/BlurEditedMorph97,Stimuli/BlurLevel5/BlurEditedMorph97.png,Stimuli/BlurLevel5/NumberedMorphs/BlurEditedMorph97.png,Stimuli/BlurLevel5/OriginalBlur/BlurEditedMorph97.png,Stimuli/BlurMorphTrio/EditedMorph97.png,020294right.gif,Stimuli/normal_thumbnails/97right.gif,,,,,1,0,1,0,0,6,6,96,,,,,,,,,,,,,,,,,,,,,,,55,7,2,285,0.647047613,-2.414814566,97,Experiment,,,,,,,,,142,102,-5,-5,,,,,,,,,,,,,,,906.6682104,907.355321,906.6682104,907.355321,93.19727891,1583861638,1583861640,1.569344044,1583861636,1583861638,,,HY,1,20,male,undergrad,2020_Mar_10_1019,AdjustEyeTrack,3.1.5,59.80971921
13,Stimuli/Morph13.JPG,Stimuli/Morph13.png,Stimuli/BlurLevel5/BlurEditedMorph13,Stimuli/BlurLevel5/BlurEditedMorph13.png,Stimuli/BlurLevel5/NumberedMorphs/BlurEditedMorph13.png,Stimuli/BlurLevel5/OriginalBlur/BlurEditedMorph13.png,Stimuli/BlurMorphTrio/EditedMorph13.png,010027right.gif,Stimuli/normal_thumbnails/13right.gif,,,,,1,0,1,0,0,7,7,12,,,,,,,,,,,,,,,,,,,,,,,51,8,2,42,1.857862064,1.672826516,13,Experiment,,,,,,,,,63,20,-7,-7,,,,,,,,,,,,,,,911.7420001,912.440749,911.7420001,912.440749,90.47619048,1583861643,1583861646,2.203285933,1583861640,1583861643,,,HY,1,20,male,undergrad,2020_Mar_10_1019,AdjustEyeTrack,3.1.5,59.80971921
140,Stimuli/Morph140.JPG,Stimuli/Morph140.png,Stimuli/BlurLevel5/BlurEditedMorph140,Stimuli/BlurLevel5/BlurEditedMorph140.png,Stimuli/BlurLevel5/NumberedMorphs/BlurEditedMorph140.png,Stimuli/BlurLevel5/OriginalBlur/BlurEditedMorph140.png,Stimuli/BlurMorphTrio/EditedMorph140.png,None,None,,,,,1,0,1,0,0,8,8,139,,,,,,,,,,,,,,,,,,,,,,,14,9,2,251,-0.813920386,-2.363796439,140,Experiment,,,,,,,,,137,129,11,11,,,,,,,,,,,,,,,917.4278634,918.1311861,917.4278634,918.1311861,85.03401361,1583861649,1583861650,1.319985867,1583861646,1583861649,,,HY,1,20,male,undergrad,2020_Mar_10_1019,AdjustEyeTrack,3.1.5,59.80971921
42,Stimuli/Morph42.JPG,Stimuli/Morph42.png,Stimuli/BlurLevel5/BlurEditedMorph42,Stimuli/BlurLevel5/BlurEditedMorph42.png,Stimuli/BlurLevel5/NumberedMorphs/BlurEditedMorph42.png,Stimuli/BlurLevel5/OriginalBlur/BlurEditedMorph42.png,Stimuli/BlurMorphTrio/EditedMorph42.png,010121right.gif,Stimuli/normal_thumbnails/42right.gif,,,,,1,0,1,0,0,9,9,41,,,,,,,,,,,,,,,,,,,,,,,25,10,2,247,-0.976827821,-2.301262134,42,Experiment,,,,,,,,,48,33,9,9,,,,,,,,,,,,,,,921.9826677,922.6657395,921.9826677,922.6657395,87.75510204,1583861654,1583861657,3.536710739,1583861651,1583861654,,,HY,1,20,male,undergrad,2020_Mar_10_1019,AdjustEyeTrack,3.1.5,59.80971921
56,Stimuli/Morph56.JPG,Stimuli/Morph56.png,Stimuli/BlurLevel5/BlurEditedMorph56,Stimuli/BlurLevel5/BlurEditedMorph56.png,Stimuli/BlurLevel5/NumberedMorphs/BlurEditedMorph56.png,Stimuli/BlurLevel5/OriginalBlur/BlurEditedMorph56.png,Stimuli/BlurMorphTrio/EditedMorph56.png,010157right.gif,Stimuli/normal_thumbnails/56right.gif,,,,,1,0,1,0,0,10,10,55,,,,,,,,,,,,,,,,,,,,,,,90,11,2,30,2.165063509,1.25,56,Experiment,,,,,,,,,127,57,-1,-1,,,,,,,,,,,,,,,928.7257544,929.427412,928.7257544,929.427412,98.63945578,1583861660,1583861663,2.652202845,1583861658,1583861660,,,HY,1,20,male,undergrad,2020_Mar_10_1019,AdjustEyeTrack,3.1.5,59.80971921
48,Stimuli/Morph48.JPG,Stimuli/Morph48.png,Stimuli/BlurLevel5/BlurEditedMorph48,Stimuli/BlurLevel5/BlurEditedMorph48.png,Stimuli/BlurLevel5/NumberedMorphs/BlurEditedMorph48.png,Stimuli/BlurLevel5/OriginalBlur/BlurEditedMorph48.png,Stimuli/BlurMorphTrio/EditedMorph48.png,010131right.gif,Stimuli/normal_thumbnails/48right.gif,,,,,1,0,1,0,0,11,11,47,,,,,,,,,,,,,,,,,,,,,,,35,12,2,204,-2.283863644,-1.016841608,48,Experiment,,,,,,,,,58,58,-10,-10,,,,,,,,,,,,,,,934.6767344,935.3587765,934.6767344,935.3587765,86.39455782,1583861666,1583861667,0.868663073,1583861664,1583861666,,,HY,1,20,male,undergrad,2020_Mar_10_1019,AdjustEyeTrack,3.1.5,59.80971921
12,Stimuli/Morph12.JPG,Stimuli/Morph12.png,Stimuli/BlurLevel5/BlurEditedMorph12,Stimuli/BlurLevel5/BlurEditedMorph12.png,Stimuli/BlurLevel5/NumberedMorphs/BlurEditedMorph12.png,Stimuli/BlurLevel5/OriginalBlur/BlurEditedMorph12.png,Stimuli/BlurMorphTrio/EditedMorph12.png,010026right.gif,Stimuli/normal_thumbnails/12right.gif,,,,,1,0,1,0,0,12,12,11,,,,,,,,,,,,,,,,,,,,,,,72,13,2,110,-0.855050358,2.349231552,12,Experiment,,,,,,,,,63,22,-10,-10,,,,,,,,,,,,,,,938.8273652,939.5355083,938.8273652,939.5355083,86.39455782,1583861670,1583861673,2.286026001,1583861668,1583861670,,,HY,1,20,male,undergrad,2020_Mar_10_1019,AdjustEyeTrack,3.1.5,59.80971921
45,Stimuli/Morph45.JPG,Stimuli/Morph45.png,Stimuli/BlurLevel5/BlurEditedMorph45,Stimuli/BlurLevel5/BlurEditedMorph45.png,Stimuli/BlurLevel5/NumberedMorphs/BlurEditedMorph45.png,Stimuli/BlurLevel5/OriginalBlur/BlurEditedMorph45.png,Stimuli/BlurMorphTrio/EditedMorph45.png,010127right.gif,Stimuli/normal_thumbnails/45right.gif,,,,,1,0,1,0,0,13,13,44,,,,,,,,,,,,,,,,,,,,,,,89,14,2,41,1.886773951,1.640147572,45,Experiment,,,,,,,,,120,53,-8,-8,,,,,,,,,,,,,,,944.512531,945.2019998,944.512531,945.2019998,89.11564626,1583861676,1583861679,2.518288136,1583861673,1583861676,,,HY,1,20,male,undergrad,2020_Mar_10_1019,AdjustEyeTrack,3.1.5,59.80971921
113,Stimuli/Morph113.JPG,Stimuli/Morph113.png,Stimuli/BlurLevel5/BlurEditedMorph113,Stimuli/BlurLevel5/BlurEditedMorph113.png,Stimuli/BlurLevel5/NumberedMorphs/BlurEditedMorph113.png,Stimuli/BlurLevel5/OriginalBlur/BlurEditedMorph113.png,Stimuli/BlurMorphTrio/EditedMorph113.png,None,None,,,,,1,0,1,0,0,14,14,112,,,,,,,,,,,,,,,,,,,,,,,42,15,2,74,0.68909339,2.40315424,113,Experiment,,,,,,,,,73,121,-8,-8,,,,,,,,,,,,,,,950.5925983,951.285607,950.5925983,951.285607,89.11564626,1583861682,1583861685,3.134498119,1583861679,1583861682,,,HY,1,20,male,undergrad,2020_Mar_10_1019,AdjustEyeTrack,3.1.5,59.80971921
123,Stimuli/Morph123.JPG,Stimuli/Morph123.png,Stimuli/BlurLevel5/BlurEditedMorph123,Stimuli/BlurLevel5/BlurEditedMorph123.png,Stimuli/BlurLevel5/NumberedMorphs/BlurEditedMorph123.png,Stimuli/BlurLevel5/OriginalBlur/BlurEditedMorph123.png,Stimuli/BlurMorphTrio/EditedMorph123.png,None,None,,,,,1,0,1,0,0,15,15,122,,,,,,,,,,,,,,,,,,,,,,,9,16,2,245,-1.056545654,-2.265769468,123,Experiment,,,,,,,,,121,121,2,2,,,,,,,,,,,,,,,956.813054,957.4855314,956.813054,957.4855314,97.27891156,1583861688,1583861689,0.702233076,1583861686,1583861688,,,HY,1,20,male,undergrad,2020_Mar_10_1019,AdjustEyeTrack,3.1.5,59.80971921
66,Stimuli/Morph66.JPG,Stimuli/Morph66.png,Stimuli/BlurLevel5/BlurEditedMorph66,Stimuli/BlurLevel5/BlurEditedMorph66.png,Stimuli/BlurLevel5/NumberedMorphs/BlurEditedMorph66.png,Stimuli/BlurLevel5/OriginalBlur/BlurEditedMorph66.png,Stimuli/BlurMorphTrio/EditedMorph66.png,020212right.gif,Stimuli/normal_thumbnails/66right.gif,,,,,1,0,1,0,0,16,16,65,,,,,,,,,,,,,,,,,,,,,,,94,17,2,222,-1.857862064,-1.672826516,66,Experiment,,,,,,,,,38,65,1,1,,,,,,,,,,,,,,,961.0500869,961.7545656,961.0500869,961.7545656,98.63945578,1583861693,1583861696,3.071435928,1583861690,1583861693,,,HY,1,20,male,undergrad,2020_Mar_10_1019,AdjustEyeTrack,3.1.5,59.80971921
116,Stimuli/Morph116.JPG,Stimuli/Morph116.png,Stimuli/BlurLevel5/BlurEditedMorph116,Stimuli/BlurLevel5/BlurEditedMorph116.png,Stimuli/BlurLevel5/NumberedMorphs/BlurEditedMorph116.png,Stimuli/BlurLevel5/OriginalBlur/BlurEditedMorph116.png,Stimuli/BlurMorphTrio/EditedMorph116.png,None,None,,,,,1,0,1,0,0,17,17,115,,,,,,,,,,,,,,,,,,,,,,,85,18,2,85,0.217889357,2.490486745,116,Experiment,,,,,,,,,38,121,-5,-5,,,,,,,,,,,,,,,967.353763,968.0397237,967.353763,968.0397237,93.19727891,1583861699,1583861701,2.200331926,1583861696,1583861699,,,HY,1,20,male,undergrad,2020_Mar_10_1019,AdjustEyeTrack,3.1.5,59.80971921
39,Stimuli/Morph39.JPG,Stimuli/Morph39.png,Stimuli/BlurLevel5/BlurEditedMorph39,Stimuli/BlurLevel5/BlurEditedMorph39.png,Stimuli/BlurLevel5/NumberedMorphs/BlurEditedMorph39.png,Stimuli/BlurLevel5/OriginalBlur/BlurEditedMorph39.png,Stimuli/BlurMorphTrio/EditedMorph39.png,010109right.gif,Stimuli/normal_thumbnails/39right.gif,,,,,1,0,1,0,0,18,18,38,,,,,,,,,,,,,,,,,,,,,,,8,19,2,294,1.016841608,-2.283863644,39,Experiment,,,,,,,,,134,78,-39,-39,,,,,,,,,,,,,,,972.9381005,973.6235374,972.9381005,973.6235374,46.93877551,1583861705,1583861711,6.868662119,1583861702,1583861705,,,HY,1,20,male,undergrad,2020_Mar_10_1019,AdjustEyeTrack,3.1.5,59.80971921
14,Stimuli/Morph14.JPG,Stimuli/Morph14.png,Stimuli/BlurLevel5/BlurEditedMorph14,Stimuli/BlurLevel5/BlurEditedMorph14.png,Stimuli/BlurLevel5/NumberedMorphs/BlurEditedMorph14.png,Stimuli/BlurLevel5/OriginalBlur/BlurEditedMorph14.png,Stimuli/BlurMorphTrio/EditedMorph14.png,010030right.gif,Stimuli/normal_thumbnails/14right.gif,,,,,1,0,1,0,0,19,19,13,,,,,,,,,,,,,,,,,,,,,,,48,20,2,158,-2.317959636,0.936516484,14,Experiment,,,,,,,,,49,21,-7,-7,,,,,,,,,,,,,,,983.0684539,983.7564057,983.0684539,983.7564057,90.47619048,1583861715,1583861717,2.166410923,1583861712,1583861715,,,HY,1,20,male,undergrad,2020_Mar_10_1019,AdjustEyeTrack,3.1.5,59.80971921
16,Stimuli/Morph16.JPG,Stimuli/Morph16.png,Stimuli/BlurLevel5/BlurEditedMorph16,Stimuli/BlurLevel5/BlurEditedMorph16.png,Stimuli/BlurLevel5/NumberedMorphs/BlurEditedMorph16.png,Stimuli/BlurLevel5/OriginalBlur/BlurEditedMorph16.png,Stimuli/BlurMorphTrio/EditedMorph16.png,010034right.gif,Stimuli/normal_thumbnails/16right.gif,,,,,1,0,1,0,0,20,20,15,,,,,,,,,,,,,,,,,,,,,,,6,21,2,345,2.414814566,-0.647047613,16,Experiment,,,,,,,,,58,21,-5,-5,,,,,,,,,,,,,,,988.7603853,989.4595734,988.7603853,989.4595734,93.19727891,1583861720,1583861725,4.384064674,1583861717,1583861720,,,HY,1,20,male,undergrad,2020_Mar_10_1019,AdjustEyeTrack,3.1.5,59.80971921
52,Stimuli/Morph52.JPG,Stimuli/Morph52.png,Stimuli/BlurLevel5/BlurEditedMorph52,Stimuli/BlurLevel5/BlurEditedMorph52.png,Stimuli/BlurLevel5/NumberedMorphs/BlurEditedMorph52.png,Stimuli/BlurLevel5/OriginalBlur/BlurEditedMorph52.png,Stimuli/BlurMorphTrio/EditedMorph52.png,010148right.gif,Stimuli/normal_thumbnails/52right.gif,,,,,1,0,1,0,0,21,21,51,,,,,,,,,,,,,,,,,,,,,,,68,22,2,206,-2.246985116,-1.095927867,52,Experiment,,,,,,,,,87,51,1,1,,,,,,,,,,,,,,,996.4885246,997.1707308,996.4885246,997.1707308,98.63945578,1583861728,1583861733,4.701353073,1583861725,1583861728,,,HY,1,20,male,undergrad,2020_Mar_10_1019,AdjustEyeTrack,3.1.5,59.80971921
25,Stimuli/Morph25.JPG,Stimuli/Morph25.png,Stimuli/BlurLevel5/BlurEditedMorph25,Stimuli/BlurLevel5/BlurEditedMorph25.png,Stimuli/BlurLevel5/NumberedMorphs/BlurEditedMorph25.png,Stimuli/BlurLevel5/OriginalBlur/BlurEditedMorph25.png,Stimuli/BlurMorphTrio/EditedMorph25.png,010069right.gif,Stimuli/normal_thumbnails/25right.gif,,,,,1,0,1,0,0,22,22,24,,,,,,,,,,,,,,,,,,,,,,,100,23,2,52,1.539153688,1.970026884,25,Experiment,,,,,,,,,31,22,3,3,,,,,,,,,,,,,,,1004.459976,1005.137952,1004.459976,1005.137952,95.91836735,1583861736,1583861738,1.703210115,1583861733,1583861736,,,HY,1,20,male,undergrad,2020_Mar_10_1019,AdjustEyeTrack,3.1.5,59.80971921
47,Stimuli/Morph47.JPG,Stimuli/Morph47.png,Stimuli/BlurLevel5/BlurEditedMorph47,Stimuli/BlurLevel5/BlurEditedMorph47.png,Stimuli/BlurLevel5/NumberedMorphs/BlurEditedMorph47.png,Stimuli/BlurLevel5/OriginalBlur/BlurEditedMorph47.png,Stimuli/BlurMorphTrio/EditedMorph47.png,010130right.gif,Stimuli/normal_thumbnails/47right.gif,,,,,1,0,1,0,0,23,23,46,,,,,,,,,,,,,,,,,,,,,,,81,24,2,81,0.391086163,2.469220851,47,Experiment,,,,,,,,,86,49,-2,-2,,,,,,,,,,,,,,,1009.280504,1009.951576,1009.280504,1009.951576,97.27891156,1583861741,1583861743,2.403881073,1583861738,1583861741,,,HY,1,20,male,undergrad,2020_Mar_10_1019,AdjustEyeTrack,3.1.5,59.80971921
3,Stimuli/Morph3.JPG,Stimuli/Morph3.png,Stimuli/BlurLevel5/BlurEditedMorph3,Stimuli/BlurLevel5/BlurEditedMorph3.png,Stimuli/BlurLevel5/NumberedMorphs/BlurEditedMorph3.png,Stimuli/BlurLevel5/OriginalBlur/BlurEditedMorph3.png,Stimuli/BlurMorphTrio/EditedMorph3.png,010009right.gif,Stimuli/normal_thumbnails/3right.gif,,,,,1,0,1,0,0,24,24,2,,,,,,,,,,,,,,,,,,,,,,,2,25,2,315,1.767766953,-1.767766953,3,Experiment,,,,,,,,,6,22,-19,-19,,,,,,,,,,,,,,,1014.882048,1015.572651,1014.882048,1015.572651,74.14965986,1583861747,1583861751,4.548223972,1583861744,1583861746,,,HY,1,20,male,undergrad,2020_Mar_10_1019,AdjustEyeTrack,3.1.5,59.80971921
88,Stimuli/Morph88.JPG,Stimuli/Morph88.png,Stimuli/BlurLevel5/BlurEditedMorph88,Stimuli/BlurLevel5/BlurEditedMorph88.png,Stimuli/BlurLevel5/NumberedMorphs/BlurEditedMorph88.png,Stimuli/BlurLevel5/OriginalBlur/BlurEditedMorph88.png,Stimuli/BlurMorphTrio/EditedMorph88.png,020271right.gif,Stimuli/normal_thumbnails/88right.gif,,,,,1,0,1,0,0,25,25,87,,,,,,,,,,,,,,,,,,,,,,,20,26,2,88,0.087248742,2.498477068,88,Experiment,,,,,,,,,48,108,-20,-20,,,,,,,,,,,,,,,1022.744823,1023.422444,1022.744823,1023.422444,72.78911565,1583861754,1583861757,2.914641857,1583861752,1583861754,,,HY,1,20,male,undergrad,2020_Mar_10_1019,AdjustEyeTrack,3.1.5,59.80971921
96,Stimuli/Morph96.JPG,Stimuli/Morph96.png,Stimuli/BlurLevel5/BlurEditedMorph96,Stimuli/BlurLevel5/BlurEditedMorph96.png,Stimuli/BlurLevel5/NumberedMorphs/BlurEditedMorph96.png,Stimuli/BlurLevel5/OriginalBlur/BlurEditedMorph96.png,Stimuli/BlurMorphTrio/EditedMorph96.png,020292right.gif,Stimuli/normal_thumbnails/96right.gif,,,,,1,0,1,0,0,26,26,95,,,,,,,,,,,,,,,,,,,,,,,41,27,2,274,0.174391184,-2.493910126,96,Experiment,,,,,,,,,19,102,-6,-6,,,,,,,,,,,,,,,1028.964553,1029.653337,1028.964553,1029.653337,91.83673469,1583861761,1583861763,2.200286865,1583861758,1583861761,,,HY,1,20,male,undergrad,2020_Mar_10_1019,AdjustEyeTrack,3.1.5,59.80971921
133,Stimuli/Morph133.JPG,Stimuli/Morph133.png,Stimuli/BlurLevel5/BlurEditedMorph133,Stimuli/BlurLevel5/BlurEditedMorph133.png,Stimuli/BlurLevel5/NumberedMorphs/BlurEditedMorph133.png,Stimuli/BlurLevel5/OriginalBlur/BlurEditedMorph133.png,Stimuli/BlurMorphTrio/EditedMorph133.png,None,None,,,,,1,0,1,0,0,27,27,132,,,,,,,,,,,,,,,,,,,,,,,11,28,2,233,-1.504537558,-1.996588775,133,Experiment,,,,,,,,,147,125,8,8,,,,,,,,,,,,,,,1034.84166,1035.576194,1034.84166,1035.576194,89.11564626,1583861767,1583861768,1.768902779,1583861763,1583861767,,,HY,1,20,male,undergrad,2020_Mar_10_1019,AdjustEyeTrack,3.1.5,59.80971921
139,Stimuli/Morph139.JPG,Stimuli/Morph139.png,Stimuli/BlurLevel5/BlurEditedMorph139,Stimuli/BlurLevel5/BlurEditedMorph139.png,Stimuli/BlurLevel5/NumberedMorphs/BlurEditedMorph139.png,Stimuli/BlurLevel5/OriginalBlur/BlurEditedMorph139.png,Stimuli/BlurMorphTrio/EditedMorph139.png,None,None,,,,,1,0,1,0,0,28,28,138,,,,,,,,,,,,,,,,,,,,,,,54,29,2,147,-2.09667642,1.361597588,139,Experiment,,,,,,,,,119,119,20,20,,,,,,,,,,,,,,,1039.982525,1040.673241,1039.982525,1040.673241,72.78911565,1583861772,1583861772,0.748366117,1583861769,1583861772,,,HY,1,20,male,undergrad,2020_Mar_10_1019,AdjustEyeTrack,3.1.5,59.80971921
61,Stimuli/Morph61.JPG,Stimuli/Morph61.png,Stimuli/BlurLevel5/BlurEditedMorph61,Stimuli/BlurLevel5/BlurEditedMorph61.png,Stimuli/BlurLevel5/NumberedMorphs/BlurEditedMorph61.png,Stimuli/BlurLevel5/OriginalBlur/BlurEditedMorph61.png,Stimuli/BlurMorphTrio/EditedMorph61.png,020201right.gif,Stimuli/normal_thumbnails/61right.gif,,,,,1,0,1,0,0,29,29,60,,,,,,,,,,,,,,,,,,,,,,,52,30,2,9,2.469220851,0.391086163,61,Experiment,,,,,,,,,93,53,8,8,,,,,,,,,,,,,,,1044.015976,1044.70341,1044.015976,1044.70341,89.11564626,1583861776,1583861778,1.903141022,1583861773,1583861776,,,HY,1,20,male,undergrad,2020_Mar_10_1019,AdjustEyeTrack,3.1.5,59.80971921
82,Stimuli/Morph82.JPG,Stimuli/Morph82.png,Stimuli/BlurLevel5/BlurEditedMorph82,Stimuli/BlurLevel5/BlurEditedMorph82.png,Stimuli/BlurLevel5/NumberedMorphs/BlurEditedMorph82.png,Stimuli/BlurLevel5/OriginalBlur/BlurEditedMorph82.png,Stimuli/BlurMorphTrio/EditedMorph82.png,020247right.gif,Stimuli/normal_thumbnails/82right.gif,,,,,1,0,1,0,0,30,30,81,,,,,,,,,,,,,,,,,,,,,,,25,31,2,299,1.212024051,-2.186549268,82,Experiment,,,,,,,,,96,78,4,4,,,,,,,,,,,,,,,1049.106276,1049.800404,1049.106276,1049.800404,94.55782313,1583861781,1583861786,5.117163897,1583861778,1583861781,,,HY,1,20,male,undergrad,2020_Mar_10_1019,AdjustEyeTrack,3.1.5,59.80971921
112,Stimuli/Morph112.JPG,Stimuli/Morph112.png,Stimuli/BlurLevel5/BlurEditedMorph112,Stimuli/BlurLevel5/BlurEditedMorph112.png,Stimuli/BlurLevel5/NumberedMorphs/BlurEditedMorph112.png,Stimuli/BlurLevel5/OriginalBlur/BlurEditedMorph112.png,Stimuli/BlurMorphTrio/EditedMorph112.png,None,None,,,,,1,0,1,0,0,31,31,111,,,,,,,,,,,,,,,,,,,,,,,73,32,2,307,1.504537558,-1.996588775,112,Experiment,,,,,,,,,74,103,9,9,,,,,,,,,,,,,,,1057.454865,1058.135703,1057.454865,1058.135703,87.75510204,1583861789,1583861792,2.733490944,1583861786,1583861789,,,HY,1,20,male,undergrad,2020_Mar_10_1019,AdjustEyeTrack,3.1.5,59.80971921
121,Stimuli/Morph121.JPG,Stimuli/Morph121.png,Stimuli/BlurLevel5/BlurEditedMorph121,Stimuli/BlurLevel5/BlurEditedMorph121.png,Stimuli/BlurLevel5/NumberedMorphs/BlurEditedMorph121.png,Stimuli/BlurLevel5/OriginalBlur/BlurEditedMorph121.png,Stimuli/BlurMorphTrio/EditedMorph121.png,None,None,,,,,1,0,1,0,0,32,32,120,,,,,,,,,,,,,,,,,,,,,,,72,33,2,19,2.363796439,0.813920386,121,Experiment,,,,,,,,,78,109,12,12,,,,,,,,,,,,,,,1063.488562,1064.183196,1063.488562,1064.183196,83.67346939,1583861795,1583861798,2.416250229,1583861792,1583861795,,,HY,1,20,male,undergrad,2020_Mar_10_1019,AdjustEyeTrack,3.1.5,59.80971921
110,Stimuli/Morph110.JPG,Stimuli/Morph110.png,Stimuli/BlurLevel5/BlurEditedMorph110,Stimuli/BlurLevel5/BlurEditedMorph110.png,Stimuli/BlurLevel5/NumberedMorphs/BlurEditedMorph110.png,Stimuli/BlurLevel5/OriginalBlur/BlurEditedMorph110.png,Stimuli/BlurMorphTrio/EditedMorph110.png,None,None,,,,,1,0,1,0,0,33,33,109,,,,,,,,,,,,,,,,,,,,,,,92,34,2,171,-2.469220851,0.391086163,110,Experiment,,,,,,,,,62,100,10,10,,,,,,,,,,,,,,,1069.66439,1070.400136,1069.66439,1070.400136,86.39455782,1583861801,1583861804,2.921529055,1583861798,1583861801,,,HY,1,20,male,undergrad,2020_Mar_10_1019,AdjustEyeTrack,3.1.5,59.80971921
70,Stimuli/Morph70.JPG,Stimuli/Morph70.png,Stimuli/BlurLevel5/BlurEditedMorph70,Stimuli/BlurLevel5/BlurEditedMorph70.png,Stimuli/BlurLevel5/NumberedMorphs/BlurEditedMorph70.png,Stimuli/BlurLevel5/OriginalBlur/BlurEditedMorph70.png,Stimuli/BlurMorphTrio/EditedMorph70.png,020221right.gif,Stimuli/normal_thumbnails/70right.gif,,,,,1,0,1,0,0,34,34,69,,,,,,,,,,,,,,,,,,,,,,,34,35,2,4,2.493910126,0.174391184,70,Experiment,,,,,,,,,123,72,-2,-2,,,,,,,,,,,,,,,1076.167372,1076.86649,1076.167372,1076.86649,97.27891156,1583861808,1583861811,3.664050102,1583861805,1583861808,,,HY,1,20,male,undergrad,2020_Mar_10_1019,AdjustEyeTrack,3.1.5,59.80971921
34,Stimuli/Morph34.JPG,Stimuli/Morph34.png,Stimuli/BlurLevel5/BlurEditedMorph34,Stimuli/BlurLevel5/BlurEditedMorph34.png,Stimuli/BlurLevel5/NumberedMorphs/BlurEditedMorph34.png,Stimuli/BlurLevel5/OriginalBlur/BlurEditedMorph34.png,Stimuli/BlurMorphTrio/EditedMorph34.png,010090right.gif,Stimuli/normal_thumbnails/34right.gif,,,,,1,0,1,0,0,35,35,33,,,,,,,,,,,,,,,,,,,,,,,74,36,2,261,-0.391086163,-2.469220851,34,Experiment,,,,,,,,,83,39,-5,-5,,,,,,,,,,,,,,,1083.192579,1083.87702,1083.192579,1083.87702,93.19727891,1583861815,1583861817,2.483355045,1583861812,1583861815,,,HY,1,20,male,undergrad,2020_Mar_10_1019,AdjustEyeTrack,3.1.5,59.80971921
118,Stimuli/Morph118.JPG,Stimuli/Morph118.png,Stimuli/BlurLevel5/BlurEditedMorph118,Stimuli/BlurLevel5/BlurEditedMorph118.png,Stimuli/BlurLevel5/NumberedMorphs/BlurEditedMorph118.png,Stimuli/BlurLevel5/OriginalBlur/BlurEditedMorph118.png,Stimuli/BlurMorphTrio/EditedMorph118.png,None,None,,,,,1,0,1,0,0,36,36,117,,,,,,,,,,,,,,,,,,,,,,,80,37,2,199,-2.363796439,-0.813920386,118,Experiment,,,,,,,,,130,105,13,13,,,,,,,,,,,,,,,1088.867394,1089.544703,1088.867394,1089.544703,82.31292517,1583861820,1583861822,1.333642006,1583861818,1583861820,,,HY,1,20,male,undergrad,2020_Mar_10_1019,AdjustEyeTrack,3.1.5,59.80971921
89,Stimuli/Morph89.JPG,Stimuli/Morph89.png,Stimuli/BlurLevel5/BlurEditedMorph89,Stimuli/BlurLevel5/BlurEditedMorph89.png,Stimuli/BlurLevel5/NumberedMorphs/BlurEditedMorph89.png,Stimuli/BlurLevel5/OriginalBlur/BlurEditedMorph89.png,Stimuli/BlurMorphTrio/EditedMorph89.png,020273right.gif,Stimuli/normal_thumbnails/89right.gif,,,,,1,0,1,0,0,37,37,88,,,,,,,,,,,,,,,,,,,,,,,76,38,2,339,2.333951066,-0.895919874,89,Experiment,,,,,,,,,2,109,-20,-20,,,,,,,,,,,,,,,1093.183676,1093.854687,1093.183676,1093.854687,72.78911565,1583861825,1583861827,1.783485889,1583861822,1583861825,,,HY,1,20,male,undergrad,2020_Mar_10_1019,AdjustEyeTrack,3.1.5,59.80971921
5,Stimuli/Morph5.JPG,Stimuli/Morph5.png,Stimuli/BlurLevel5/BlurEditedMorph5,Stimuli/BlurLevel5/BlurEditedMorph5.png,Stimuli/BlurLevel5/NumberedMorphs/BlurEditedMorph5.png,Stimuli/BlurLevel5/OriginalBlur/BlurEditedMorph5.png,Stimuli/BlurMorphTrio/EditedMorph5.png,010011right.gif,Stimuli/normal_thumbnails/5right.gif,,,,,1,0,1,0,0,38,38,4,,,,,,,,,,,,,,,,,,,,,,,89,39,2,127,-1.504537558,1.996588775,5,Experiment,,,,,,,,,71,8,-3,-3,,,,,,,,,,,,,,,1098.260609,1098.950032,1098.260609,1098.950032,95.91836735,1583861830,1583861834,3.615436077,1583861827,1583861830,,,HY,1,20,male,undergrad,2020_Mar_10_1019,AdjustEyeTrack,3.1.5,59.80971921
92,Stimuli/Morph92.JPG,Stimuli/Morph92.png,Stimuli/BlurLevel5/BlurEditedMorph92,Stimuli/BlurLevel5/BlurEditedMorph92.png,Stimuli/BlurLevel5/NumberedMorphs/BlurEditedMorph92.png,Stimuli/BlurLevel5/OriginalBlur/BlurEditedMorph92.png,Stimuli/BlurMorphTrio/EditedMorph92.png,020277right.gif,Stimuli/normal_thumbnails/92right.gif,,,,,1,0,1,0,0,39,39,91,,,,,,,,,,,,,,,,,,,,,,,47,40,2,28,2.207368982,1.173678907,92,Experiment,,,,,,,,,128,101,-9,-9,,,,,,,,,,,,,,,1105.485739,1106.217909,1105.485739,1106.217909,87.75510204,1583861837,1583861839,2.052345037,1583861834,1583861837,,,HY,1,20,male,undergrad,2020_Mar_10_1019,AdjustEyeTrack,3.1.5,59.80971921
122,Stimuli/Morph122.JPG,Stimuli/Morph122.png,Stimuli/BlurLevel5/BlurEditedMorph122,Stimuli/BlurLevel5/BlurEditedMorph122.png,Stimuli/BlurLevel5/NumberedMorphs/BlurEditedMorph122.png,Stimuli/BlurLevel5/OriginalBlur/BlurEditedMorph122.png,Stimuli/BlurMorphTrio/EditedMorph122.png,None,None,,,,,1,0,1,0,0,40,40,121,,,,,,,,,,,,,,,,,,,,,,,91,41,2,230,-1.606969024,-1.915111108,122,Experiment,,,,,,,,,44,143,-21,-21,,,,,,,,,,,,,,,1111.013592,1111.703857,1111.013592,1111.703857,71.42857143,1583861843,1583861849,6.417176723,1583861840,1583861843,,,HY,1,20,male,undergrad,2020_Mar_10_1019,AdjustEyeTrack,3.1.5,59.80971921
84,Stimuli/Morph84.JPG,Stimuli/Morph84.png,Stimuli/BlurLevel5/BlurEditedMorph84,Stimuli/BlurLevel5/BlurEditedMorph84.png,Stimuli/BlurLevel5/NumberedMorphs/BlurEditedMorph84.png,Stimuli/BlurLevel5/OriginalBlur/BlurEditedMorph84.png,Stimuli/BlurMorphTrio/EditedMorph84.png,020261right.gif,Stimuli/normal_thumbnails/84right.gif,,,,,1,0,1,0,0,41,41,83,,,,,,,,,,,,,,,,,,,,,,,81,42,2,142,-1.970026884,1.539153688,84,Experiment,,,,,,,,,144,88,-4,-4,,,,,,,,,,,,,,,1120.622857,1121.299799,1120.622857,1121.299799,94.55782313,1583861852,1583861857,4.834023952,1583861850,1583861852,,,HY,1,20,male,undergrad,2020_Mar_10_1019,AdjustEyeTrack,3.1.5,59.80971921
17,Stimuli/Morph17.JPG,Stimuli/Morph17.png,Stimuli/BlurLevel5/BlurEditedMorph17,Stimuli/BlurLevel5/BlurEditedMorph17.png,Stimuli/BlurLevel5/NumberedMorphs/BlurEditedMorph17.png,Stimuli/BlurLevel5/OriginalBlur/BlurEditedMorph17.png,Stimuli/BlurMorphTrio/EditedMorph17.png,010036right.gif,Stimuli/normal_thumbnails/17right.gif,,,,,1,0,1,0,0,42,42,16,,,,,,,,,,,,,,,,,,,,,,,54,43,2,178,-2.498477068,0.087248742,17,Experiment,,,,,,,,,2,19,-2,-2,,,,,,,,,,,,,,,1128.668889,1129.343602,1128.668889,1129.343602,97.27891156,1583861860,1583861862,1.912940025,1583861858,1583861860,,,HY,1,20,male,undergrad,2020_Mar_10_1019,AdjustEyeTrack,3.1.5,59.80971921
136,Stimuli/Morph136.JPG,Stimuli/Morph136.png,Stimuli/BlurLevel5/BlurEditedMorph136,Stimuli/BlurLevel5/BlurEditedMorph136.png,Stimuli/BlurLevel5/NumberedMorphs/BlurEditedMorph136.png,Stimuli/BlurLevel5/OriginalBlur/BlurEditedMorph136.png,Stimuli/BlurMorphTrio/EditedMorph136.png,None,None,,,,,1,0,1,0,0,43,43,135,,,,,,,,,,,,,,,,,,,,,,,78,44,2,176,-2.493910126,0.174391184,136,Experiment,,,,,,,,,104,5,131,-16,,,,,,,,,,,,,,,1133.71664,1134.384806,1133.71664,1134.384806,78.23129252,1583861865,1583861869,3.283682108,1583861863,1583861865,,,HY,1,20,male,undergrad,2020_Mar_10_1019,AdjustEyeTrack,3.1.5,59.80971921
69,Stimuli/Morph69.JPG,Stimuli/Morph69.png,Stimuli/BlurLevel5/BlurEditedMorph69,Stimuli/BlurLevel5/BlurEditedMorph69.png,Stimuli/BlurLevel5/NumberedMorphs/BlurEditedMorph69.png,Stimuli/BlurLevel5/OriginalBlur/BlurEditedMorph69.png,Stimuli/BlurMorphTrio/EditedMorph69.png,020220right.gif,Stimuli/normal_thumbnails/69right.gif,,,,,1,0,1,0,0,44,44,68,,,,,,,,,,,,,,,,,,,,,,,95,45,2,344,2.40315424,-0.68909339,69,Experiment,,,,,,,,,92,75,-6,-6,,,,,,,,,,,,,,,1140.537939,1141.242569,1140.537939,1141.242569,91.83673469,1583861872,1583861875,2.315450191,1583861869,1583861872,,,HY,1,20,male,undergrad,2020_Mar_10_1019,AdjustEyeTrack,3.1.5,59.80971921
120,Stimuli/Morph120.JPG,Stimuli/Morph120.png,Stimuli/BlurLevel5/BlurEditedMorph120,Stimuli/BlurLevel5/BlurEditedMorph120.png,Stimuli/BlurLevel5/NumberedMorphs/BlurEditedMorph120.png,Stimuli/BlurLevel5/OriginalBlur/BlurEditedMorph120.png,Stimuli/BlurMorphTrio/EditedMorph120.png,None,None,,,,,1,0,1,0,0,45,45,119,,,,,,,,,,,,,,,,,,,,,,,72,46,2,174,-2.486304738,0.261321158,120,Experiment,,,,,,,,,18,131,-11,-11,,,,,,,,,,,,,,,1146.186444,1146.867382,1146.186444,1146.867382,85.03401361,1583861878,1583861881,3.600811005,1583861875,1583861878,,,HY,1,20,male,undergrad,2020_Mar_10_1019,AdjustEyeTrack,3.1.5,59.80971921
36,Stimuli/Morph36.JPG,Stimuli/Morph36.png,Stimuli/BlurLevel5/BlurEditedMorph36,Stimuli/BlurLevel5/BlurEditedMorph36.png,Stimuli/BlurLevel5/NumberedMorphs/BlurEditedMorph36.png,Stimuli/BlurLevel5/OriginalBlur/BlurEditedMorph36.png,Stimuli/BlurMorphTrio/EditedMorph36.png,010095right.gif,Stimuli/normal_thumbnails/36right.gif,,,,,1,0,1,0,0,46,46,35,,,,,,,,,,,,,,,,,,,,,,,18,47,2,113,-0.976827821,2.301262134,36,Experiment,,,,,,,,,147,30,6,6,,,,,,,,,,,,,,,1152.913144,1153.586111,1152.913144,1153.586111,91.83673469,1583861885,1583861888,3.466042042,1583861882,1583861885,,,HY,1,20,male,undergrad,2020_Mar_10_1019,AdjustEyeTrack,3.1.5,59.80971921
95,Stimuli/Morph95.JPG,Stimuli/Morph95.png,Stimuli/BlurLevel5/BlurEditedMorph95,Stimuli/BlurLevel5/BlurEditedMorph95.png,Stimuli/BlurLevel5/NumberedMorphs/BlurEditedMorph95.png,Stimuli/BlurLevel5/OriginalBlur/BlurEditedMorph95.png,Stimuli/BlurMorphTrio/EditedMorph95.png,020287right.gif,Stimuli/normal_thumbnails/95right.gif,,,,,1,0,1,0,0,47,47,94,,,,,,,,,,,,,,,,,,,,,,,98,48,2,131,-1.640147572,1.886773951,95,Experiment,,,,,,,,,42,104,-9,-9,,,,,,,,,,,,,,,1159.751951,1160.439612,1159.751951,1160.439612,87.75510204,1583861891,1583861894,2.438030243,1583861889,1583861891,,,HY,1,20,male,undergrad,2020_Mar_10_1019,AdjustEyeTrack,3.1.5,59.80971921
130,Stimuli/Morph130.JPG,Stimuli/Morph130.png,Stimuli/BlurLevel5/BlurEditedMorph130,Stimuli/BlurLevel5/BlurEditedMorph130.png,Stimuli/BlurLevel5/NumberedMorphs/BlurEditedMorph130.png,Stimuli/BlurLevel5/OriginalBlur/BlurEditedMorph130.png,Stimuli/BlurMorphTrio/EditedMorph130.png,None,None,,,,,1,0,1,0,0,48,48,129,,,,,,,,,,,,,,,,,,,,,,,76,49,2,219,-1.942864904,-1.573300978,130,Experiment,,,,,,,,,95,119,11,11,,,,,,,,,,,,,,,1165.127099,1165.798585,1165.127099,1165.798585,85.03401361,1583861897,1583861900,3.16622901,1583861894,1583861897,,,HY,1,20,male,undergrad,2020_Mar_10_1019,AdjustEyeTrack,3.1.5,59.80971921
57,Stimuli/Morph57.JPG,Stimuli/Morph57.png,Stimuli/BlurLevel5/BlurEditedMorph57,Stimuli/BlurLevel5/BlurEditedMorph57.png,Stimuli/BlurLevel5/NumberedMorphs/BlurEditedMorph57.png,Stimuli/BlurLevel5/OriginalBlur/BlurEditedMorph57.png,Stimuli/BlurMorphTrio/EditedMorph57.png,010158right.gif,Stimuli/normal_thumbnails/57right.gif,,,,,1,0,1,0,0,49,49,56,,,,,,,,,,,,,,,,,,,,,,,82,50,2,98,-0.347932752,2.475670172,57,Experiment,,,,,,,,,130,61,-4,-4,,,,,,,,,,,,,,,1171.551133,1172.248772,1171.551133,1172.248772,94.55782313,1583861903,1583861906,2.716464996,1583861900,1583861903,,,HY,1,20,male,undergrad,2020_Mar_10_1019,AdjustEyeTrack,3.1.5,59.80971921
7,Stimuli/Morph7.JPG,Stimuli/Morph7.png,Stimuli/BlurLevel5/BlurEditedMorph7,Stimuli/BlurLevel5/BlurEditedMorph7.png,Stimuli/BlurLevel5/NumberedMorphs/BlurEditedMorph7.png,Stimuli/BlurLevel5/OriginalBlur/BlurEditedMorph7.png,Stimuli/BlurMorphTrio/EditedMorph7.png,010013right.gif,Stimuli/normal_thumbnails/7right.gif,,,,,1,0,1,0,0,50,50,6,,,,,,,,,,,,,,,,,,,,,,,96,51,2,169,-2.454067959,0.477022488,7,Experiment,,,,,,,,,123,137,-130,17,,,,,,,,,,,,,,,1178.09012,1178.80903,1178.09012,1178.80903,76.8707483,1583861910,1583861916,6.549821138,1583861906,1583861910,,,HY,1,20,male,undergrad,2020_Mar_10_1019,AdjustEyeTrack,3.1.5,59.80971921
142,Stimuli/Morph142.JPG,Stimuli/Morph142.png,Stimuli/BlurLevel5/BlurEditedMorph142,Stimuli/BlurLevel5/BlurEditedMorph142.png,Stimuli/BlurLevel5/NumberedMorphs/BlurEditedMorph142.png,Stimuli/BlurLevel5/OriginalBlur/BlurEditedMorph142.png,Stimuli/BlurMorphTrio/EditedMorph142.png,None,None,,,,,1,0,1,0,0,51,51,141,,,,,,,,,,,,,,,,,,,,,,,97,52,2,359,2.499619238,-0.043631016,142,Experiment,,,,,,,,,35,132,10,10,,,,,,,,,,,,,,,1188.172774,1188.872538,1188.172774,1188.872538,86.39455782,1583861920,1583861923,3.016965866,1583861917,1583861920,,,HY,1,20,male,undergrad,2020_Mar_10_1019,AdjustEyeTrack,3.1.5,59.80971921
93,Stimuli/Morph93.JPG,Stimuli/Morph93.png,Stimuli/BlurLevel5/BlurEditedMorph93,Stimuli/BlurLevel5/BlurEditedMorph93.png,Stimuli/BlurLevel5/NumberedMorphs/BlurEditedMorph93.png,Stimuli/BlurLevel5/OriginalBlur/BlurEditedMorph93.png,Stimuli/BlurMorphTrio/EditedMorph93.png,020280right.gif,Stimuli/normal_thumbnails/93right.gif,,,,,1,0,1,0,0,52,52,92,,,,,,,,,,,,,,,,,,,,,,,60,53,2,306,1.469463131,-2.022542486,93,Experiment,,,,,,,,,34,96,-3,-3,,,,,,,,,,,,,,,1194.702046,1195.404777,1194.702046,1195.404777,95.91836735,1583861926,1583861929,2.362745762,1583861923,1583861926,,,HY,1,20,male,undergrad,2020_Mar_10_1019,AdjustEyeTrack,3.1.5,59.80971921
19,Stimuli/Morph19.JPG,Stimuli/Morph19.png,Stimuli/BlurLevel5/BlurEditedMorph19,Stimuli/BlurLevel5/BlurEditedMorph19.png,Stimuli/BlurLevel5/NumberedMorphs/BlurEditedMorph19.png,Stimuli/BlurLevel5/OriginalBlur/BlurEditedMorph19.png,Stimuli/BlurMorphTrio/EditedMorph19.png,010045right.gif,Stimuli/normal_thumbnails/19right.gif,,,,,1,0,1,0,0,53,53,18,,,,,,,,,,,,,,,,,,,,,,,66,54,2,165,-2.414814566,0.647047613,19,Experiment,,,,,,,,,82,25,-6,-6,,,,,,,,,,,,,,,1200.270857,1200.935925,1200.270857,1200.935925,91.83673469,1583861932,1583861934,2.41475296,1583861929,1583861932,,,HY,1,20,male,undergrad,2020_Mar_10_1019,AdjustEyeTrack,3.1.5,59.80971921
129,Stimuli/Morph129.JPG,Stimuli/Morph129.png,Stimuli/BlurLevel5/BlurEditedMorph129,Stimuli/BlurLevel5/BlurEditedMorph129.png,Stimuli/BlurLevel5/NumberedMorphs/BlurEditedMorph129.png,Stimuli/BlurLevel5/OriginalBlur/BlurEditedMorph129.png,Stimuli/BlurMorphTrio/EditedMorph129.png,None,None,,,,,1,0,1,0,0,54,54,128,,,,,,,,,,,,,,,,,,,,,,,8,55,2,312,1.672826516,-1.857862064,129,Experiment,,,,,,,,,77,123,6,6,,,,,,,,,,,,,,,1205.971374,1206.674211,1205.971374,1206.674211,91.83673469,1583861938,1583861941,3.11640811,1583861935,1583861938,,,HY,1,20,male,undergrad,2020_Mar_10_1019,AdjustEyeTrack,3.1.5,59.80971921
53,Stimuli/Morph53.JPG,Stimuli/Morph53.png,Stimuli/BlurLevel5/BlurEditedMorph53,Stimuli/BlurLevel5/BlurEditedMorph53.png,Stimuli/BlurLevel5/NumberedMorphs/BlurEditedMorph53.png,Stimuli/BlurLevel5/OriginalBlur/BlurEditedMorph53.png,Stimuli/BlurMorphTrio/EditedMorph53.png,010149right.gif,Stimuli/normal_thumbnails/53right.gif,,,,,1,0,1,0,0,55,55,52,,,,,,,,,,,,,,,,,,,,,,,27,56,2,101,-0.477022488,2.454067959,53,Experiment,,,,,,,,,42,30,23,23,,,,,,,,,,,,,,,1212.460708,1213.145216,1212.460708,1213.145216,68.70748299,1583861944,1583861947,2.683344841,1583861941,1583861944,,,HY,1,20,male,undergrad,2020_Mar_10_1019,AdjustEyeTrack,3.1.5,59.80971921
144,Stimuli/Morph144.JPG,Stimuli/Morph144.png,Stimuli/BlurLevel5/BlurEditedMorph144,Stimuli/BlurLevel5/BlurEditedMorph144.png,Stimuli/BlurLevel5/NumberedMorphs/BlurEditedMorph144.png,Stimuli/BlurLevel5/OriginalBlur/BlurEditedMorph144.png,Stimuli/BlurMorphTrio/EditedMorph144.png,None,None,,,,,1,0,1,0,0,56,56,143,,,,,,,,,,,,,,,,,,,,,,,88,57,2,245,-1.056545654,-2.265769468,144,Experiment,,,,,,,,,21,133,11,11,,,,,,,,,,,,,,,1218.57222,1219.25745,1218.57222,1219.25745,85.03401361,1583861950,1583861952,2.212561131,1583861947,1583861950,,,HY,1,20,male,undergrad,2020_Mar_10_1019,AdjustEyeTrack,3.1.5,59.80971921
43,Stimuli/Morph43.JPG,Stimuli/Morph43.png,Stimuli/BlurLevel5/BlurEditedMorph43,Stimuli/BlurLevel5/BlurEditedMorph43.png,Stimuli/BlurLevel5/NumberedMorphs/BlurEditedMorph43.png,Stimuli/BlurLevel5/OriginalBlur/BlurEditedMorph43.png,Stimuli/BlurMorphTrio/EditedMorph43.png,010124right.gif,Stimuli/normal_thumbnails/43right.gif,,,,,1,0,1,0,0,57,57,42,,,,,,,,,,,,,,,,,,,,,,,89,58,2,337,2.301262134,-0.976827821,43,Experiment,,,,,,,,,6,72,-29,-29,,,,,,,,,,,,,,,1224.178321,1224.874558,1224.178321,1224.874558,60.54421769,1583861956,1583861960,4.334415913,1583861953,1583861956,,,HY,1,20,male,undergrad,2020_Mar_10_1019,AdjustEyeTrack,3.1.5,59.80971921
15,Stimuli/Morph15.JPG,Stimuli/Morph15.png,Stimuli/BlurLevel5/BlurEditedMorph15,Stimuli/BlurLevel5/BlurEditedMorph15.png,Stimuli/BlurLevel5/NumberedMorphs/BlurEditedMorph15.png,Stimuli/BlurLevel5/OriginalBlur/BlurEditedMorph15.png,Stimuli/BlurMorphTrio/EditedMorph15.png,010031right.gif,Stimuli/normal_thumbnails/15right.gif,,,,,1,0,1,0,0,58,58,14,,,,,,,,,,,,,,,,,,,,,,,35,59,2,318,1.857862064,-1.672826516,15,Experiment,,,,,,,,,84,23,-8,-8,,,,,,,,,,,,,,,1231.784629,1232.483717,1231.784629,1232.483717,89.11564626,1583861963,1583861966,2.186733961,1583861961,1583861963,,,HY,1,20,male,undergrad,2020_Mar_10_1019,AdjustEyeTrack,3.1.5,59.80971921
