stimulusID,stimulus_JPG,stimulusPath,stimulusPath2,stimulusPath3,stimulusPath4,stimulusPath5,stimulusPath6,xRayOriginal,xRayPath,Blocks.thisRepN,Blocks.thisTrialN,Blocks.thisN,Blocks.thisIndex,Trials.thisRepN,Trials.thisTrialN,Trials.thisN,Trials.thisIndex,text_2.started,text_2.stopped,xrayID,blockNumber,trialNumber,stimLocationDeg,stimXCoord,stimYCoord,stimulusID,xray1.started,xray1.stopped,tumors.started,tumors.stopped,trialCorrect%,startRespTime,endRespTime,RT,morphTrack,morphID,errorRaw,errorCorrected,startStimTime,endStimTime,key_resp.keys,key_resp.rt,participant,session,age,gender,status,date,expName,psychopyVersion,frameRate,blockType
90,Stimuli/Morph90.JPG,Stimuli/Morph90.png,Stimuli/BlurLevel5/BlurEditedMorph90,Stimuli/BlurLevel5/BlurEditedMorph90.png,Stimuli/BlurLevel5/NumberedMorphs/BlurEditedMorph90.png,Stimuli/BlurLevel5/OriginalBlur/BlurEditedMorph90.png,Stimuli/BlurMorphTrio/EditedMorph90.png,020275right.gif,Stimuli/normal_thumbnails/90right.gif,0,0,0,0,0,0,0,89,34.91340427,None,11,1,1,84,0.261321158,2.486304738,90,51.86140027,52.36524833,51.86140027,52.36524833,76.8707483,1574292866,1574292871,4.599744081,140,107,-17,-17,1574292864,1574292866,,,IS,1,21,F,Undergrad,2019_Nov_20_1534,AdjustExp1,3.1.5,59.82055437,Experiment
137,Stimuli/Morph137.JPG,Stimuli/Morph137.png,Stimuli/BlurLevel5/BlurEditedMorph137,Stimuli/BlurLevel5/BlurEditedMorph137.png,Stimuli/BlurLevel5/NumberedMorphs/BlurEditedMorph137.png,Stimuli/BlurLevel5/OriginalBlur/BlurEditedMorph137.png,Stimuli/BlurMorphTrio/EditedMorph137.png,None,None,0,0,0,0,0,1,1,136,,,26,1,2,50,1.606969024,1.915111108,137,58.80469195,59.29913806,58.80469195,59.29913806,87.75510204,1574292873,1574292875,1.48361516,139,146,-9,-9,1574292871,1574292873,,,IS,1,21,F,Undergrad,2019_Nov_20_1534,AdjustExp1,3.1.5,59.82055437,Experiment
8,Stimuli/Morph8.JPG,Stimuli/Morph8.png,Stimuli/BlurLevel5/BlurEditedMorph8,Stimuli/BlurLevel5/BlurEditedMorph8.png,Stimuli/BlurLevel5/NumberedMorphs/BlurEditedMorph8.png,Stimuli/BlurLevel5/OriginalBlur/BlurEditedMorph8.png,Stimuli/BlurMorphTrio/EditedMorph8.png,010014right.gif,Stimuli/normal_thumbnails/8right.gif,0,0,0,0,0,2,2,7,,,34,1,3,195,-2.414814566,-0.647047613,8,62.86728079,63.36599485,62.86728079,63.36599485,60.54421769,1574292877,1574292880,2.731700897,32,126,-118,29,1574292875,1574292877,,,IS,1,21,F,Undergrad,2019_Nov_20_1534,AdjustExp1,3.1.5,59.82055437,Experiment
73,Stimuli/Morph73.JPG,Stimuli/Morph73.png,Stimuli/BlurLevel5/BlurEditedMorph73,Stimuli/BlurLevel5/BlurEditedMorph73.png,Stimuli/BlurLevel5/NumberedMorphs/BlurEditedMorph73.png,Stimuli/BlurLevel5/OriginalBlur/BlurEditedMorph73.png,Stimuli/BlurMorphTrio/EditedMorph73.png,020230right.gif,Stimuli/normal_thumbnails/73right.gif,0,0,0,0,0,3,3,72,,,25,1,4,90,1.53E-16,2.5,73,68.09865328,68.59909967,68.09865328,68.59909967,98.63945578,1574292882,1574292886,4.067014933,113,74,-1,-1,1574292880,1574292882,,,IS,1,21,F,Undergrad,2019_Nov_20_1534,AdjustExp1,3.1.5,59.82055437,Experiment
96,Stimuli/Morph96.JPG,Stimuli/Morph96.png,Stimuli/BlurLevel5/BlurEditedMorph96,Stimuli/BlurLevel5/BlurEditedMorph96.png,Stimuli/BlurLevel5/NumberedMorphs/BlurEditedMorph96.png,Stimuli/BlurLevel5/OriginalBlur/BlurEditedMorph96.png,Stimuli/BlurMorphTrio/EditedMorph96.png,020292right.gif,Stimuli/normal_thumbnails/96right.gif,0,0,0,0,0,4,4,95,,,13,1,5,123,-1.361597588,2.09667642,96,75.15334233,75.64926438,75.15334233,75.64926438,57.82312925,1574292889,1574292894,4.416527748,46,127,-31,-31,1574292887,1574292889,,,IS,1,21,F,Undergrad,2019_Nov_20_1534,AdjustExp1,3.1.5,59.82055437,Experiment
133,Stimuli/Morph133.JPG,Stimuli/Morph133.png,Stimuli/BlurLevel5/BlurEditedMorph133,Stimuli/BlurLevel5/BlurEditedMorph133.png,Stimuli/BlurLevel5/NumberedMorphs/BlurEditedMorph133.png,Stimuli/BlurLevel5/OriginalBlur/BlurEditedMorph133.png,Stimuli/BlurMorphTrio/EditedMorph133.png,None,None,0,0,0,0,0,5,5,132,,,41,1,6,61,1.212024051,2.186549268,133,82.03175162,82.53249669,82.03175162,82.53249669,93.19727891,1574292896,1574292898,2.050063848,39,138,-5,-5,1574292894,1574292896,,,IS,1,21,F,Undergrad,2019_Nov_20_1534,AdjustExp1,3.1.5,59.82055437,Experiment
68,Stimuli/Morph68.JPG,Stimuli/Morph68.png,Stimuli/BlurLevel5/BlurEditedMorph68,Stimuli/BlurLevel5/BlurEditedMorph68.png,Stimuli/BlurLevel5/NumberedMorphs/BlurEditedMorph68.png,Stimuli/BlurLevel5/OriginalBlur/BlurEditedMorph68.png,Stimuli/BlurMorphTrio/EditedMorph68.png,020218right.gif,Stimuli/normal_thumbnails/68right.gif,0,0,0,0,0,6,6,67,,,82,1,7,242,-1.173678907,-2.207368982,68,86.76992606,87.26570319,86.76992606,87.26570319,71.42857143,1574292901,1574292914,13.23340225,67,89,-21,-21,1574292899,1574292901,,,IS,1,21,F,Undergrad,2019_Nov_20_1534,AdjustExp1,3.1.5,59.82055437,Experiment
58,Stimuli/Morph58.JPG,Stimuli/Morph58.png,Stimuli/BlurLevel5/BlurEditedMorph58,Stimuli/BlurLevel5/BlurEditedMorph58.png,Stimuli/BlurLevel5/NumberedMorphs/BlurEditedMorph58.png,Stimuli/BlurLevel5/OriginalBlur/BlurEditedMorph58.png,Stimuli/BlurMorphTrio/EditedMorph58.png,010159right.gif,Stimuli/normal_thumbnails/58right.gif,0,0,0,0,0,7,7,57,,,46,1,8,266,-0.174391184,-2.493910126,58,102.4336826,102.9319525,102.4336826,102.9319525,60.54421769,1574292917,1574292923,6.367063999,63,87,-29,-29,1574292914,1574292917,,,IS,1,21,F,Undergrad,2019_Nov_20_1534,AdjustExp1,3.1.5,59.82055437,Experiment
1,Stimuli/Morph1.JPG,Stimuli/Morph1.png,Stimuli/BlurLevel5/BlurEditedMorph1,Stimuli/BlurLevel5/BlurEditedMorph1.png,Stimuli/BlurLevel5/NumberedMorphs/BlurEditedMorph1.png,Stimuli/BlurLevel5/OriginalBlur/BlurEditedMorph1.png,Stimuli/BlurMorphTrio/EditedMorph1.png,010003right.gif,Stimuli/normal_thumbnails/1right.gif,0,0,0,0,0,8,8,0,,,51,1,9,330,2.165063509,-1.25,1,111.6717586,112.1652071,111.6717586,112.1652071,67.34693878,1574292926,1574292931,5.000292063,95,124,-123,24,1574292923,1574292926,,,IS,1,21,F,Undergrad,2019_Nov_20_1534,AdjustExp1,3.1.5,59.82055437,Experiment
125,Stimuli/Morph125.JPG,Stimuli/Morph125.png,Stimuli/BlurLevel5/BlurEditedMorph125,Stimuli/BlurLevel5/BlurEditedMorph125.png,Stimuli/BlurLevel5/NumberedMorphs/BlurEditedMorph125.png,Stimuli/BlurLevel5/OriginalBlur/BlurEditedMorph125.png,Stimuli/BlurMorphTrio/EditedMorph125.png,None,None,0,0,0,0,0,9,9,124,,,20,1,10,100,-0.434120444,2.462019383,125,119.0986422,119.5985069,119.0986422,119.5985069,76.8707483,1574292933,1574292934,1.016514063,108,108,17,17,1574292931,1574292933,,,IS,1,21,F,Undergrad,2019_Nov_20_1534,AdjustExp1,3.1.5,59.82055437,Experiment
57,Stimuli/Morph57.JPG,Stimuli/Morph57.png,Stimuli/BlurLevel5/BlurEditedMorph57,Stimuli/BlurLevel5/BlurEditedMorph57.png,Stimuli/BlurLevel5/NumberedMorphs/BlurEditedMorph57.png,Stimuli/BlurLevel5/OriginalBlur/BlurEditedMorph57.png,Stimuli/BlurMorphTrio/EditedMorph57.png,010158right.gif,Stimuli/normal_thumbnails/57right.gif,0,0,0,0,0,10,10,56,,,62,1,11,149,-2.142918252,1.287595187,57,122.864811,123.3650731,122.864811,123.3650731,97.27891156,1574292937,1574292941,3.866402149,36,55,2,2,1574292935,1574292937,,,IS,1,21,F,Undergrad,2019_Nov_20_1534,AdjustExp1,3.1.5,59.82055437,Experiment
82,Stimuli/Morph82.JPG,Stimuli/Morph82.png,Stimuli/BlurLevel5/BlurEditedMorph82,Stimuli/BlurLevel5/BlurEditedMorph82.png,Stimuli/BlurLevel5/NumberedMorphs/BlurEditedMorph82.png,Stimuli/BlurLevel5/OriginalBlur/BlurEditedMorph82.png,Stimuli/BlurMorphTrio/EditedMorph82.png,020247right.gif,Stimuli/normal_thumbnails/82right.gif,0,0,0,0,0,11,11,81,,,2,1,12,193,-2.435925162,-0.562377636,82,129.1338857,129.632165,129.1338857,129.632165,75.51020408,1574292943,1574292946,3.100269079,75,100,-18,-18,1574292941,1574292943,,,IS,1,21,F,Undergrad,2019_Nov_20_1534,AdjustExp1,3.1.5,59.82055437,Experiment
54,Stimuli/Morph54.JPG,Stimuli/Morph54.png,Stimuli/BlurLevel5/BlurEditedMorph54,Stimuli/BlurLevel5/BlurEditedMorph54.png,Stimuli/BlurLevel5/NumberedMorphs/BlurEditedMorph54.png,Stimuli/BlurLevel5/OriginalBlur/BlurEditedMorph54.png,Stimuli/BlurMorphTrio/EditedMorph54.png,010150right.gif,Stimuli/normal_thumbnails/54right.gif,0,0,0,0,0,12,12,53,,,3,1,13,27,2.22751631,1.134976249,54,134.8314918,135.3314661,134.8314918,135.3314661,95.91836735,1574292949,1574292951,2.400203943,109,57,-3,-3,1574292947,1574292949,,,IS,1,21,F,Undergrad,2019_Nov_20_1534,AdjustExp1,3.1.5,59.82055437,Experiment
40,Stimuli/Morph40.JPG,Stimuli/Morph40.png,Stimuli/BlurLevel5/BlurEditedMorph40,Stimuli/BlurLevel5/BlurEditedMorph40.png,Stimuli/BlurLevel5/NumberedMorphs/BlurEditedMorph40.png,Stimuli/BlurLevel5/OriginalBlur/BlurEditedMorph40.png,Stimuli/BlurMorphTrio/EditedMorph40.png,010110right.gif,Stimuli/normal_thumbnails/40right.gif,0,0,0,0,0,13,13,39,,,20,1,14,264,-0.261321158,-2.486304738,40,139.5174428,140.0150946,139.5174428,140.0150946,79.59183673,1574292954,1574292956,2.10040617,50,55,-15,-15,1574292952,1574292954,,,IS,1,21,F,Undergrad,2019_Nov_20_1534,AdjustExp1,3.1.5,59.82055437,Experiment
110,Stimuli/Morph110.JPG,Stimuli/Morph110.png,Stimuli/BlurLevel5/BlurEditedMorph110,Stimuli/BlurLevel5/BlurEditedMorph110.png,Stimuli/BlurLevel5/NumberedMorphs/BlurEditedMorph110.png,Stimuli/BlurLevel5/OriginalBlur/BlurEditedMorph110.png,Stimuli/BlurMorphTrio/EditedMorph110.png,None,None,0,0,0,0,0,14,14,109,,,94,1,15,116,-1.095927867,2.246985116,110,144.581536,145.0806726,144.581536,145.0806726,94.55782313,1574292959,1574292965,6.033483028,139,114,-4,-4,1574292956,1574292959,,,IS,1,21,F,Undergrad,2019_Nov_20_1534,AdjustExp1,3.1.5,59.82055437,Experiment
76,Stimuli/Morph76.JPG,Stimuli/Morph76.png,Stimuli/BlurLevel5/BlurEditedMorph76,Stimuli/BlurLevel5/BlurEditedMorph76.png,Stimuli/BlurLevel5/NumberedMorphs/BlurEditedMorph76.png,Stimuli/BlurLevel5/OriginalBlur/BlurEditedMorph76.png,Stimuli/BlurMorphTrio/EditedMorph76.png,020234right.gif,Stimuli/normal_thumbnails/76right.gif,0,0,0,0,0,15,15,75,,,17,1,16,10,2.462019383,0.434120444,76,153.5831291,154.0813106,153.5831291,154.0813106,97.27891156,1574292968,1574292971,2.783899784,31,78,-2,-2,1574292965,1574292968,,,IS,1,21,F,Undergrad,2019_Nov_20_1534,AdjustExp1,3.1.5,59.82055437,Experiment
74,Stimuli/Morph74.JPG,Stimuli/Morph74.png,Stimuli/BlurLevel5/BlurEditedMorph74,Stimuli/BlurLevel5/BlurEditedMorph74.png,Stimuli/BlurLevel5/NumberedMorphs/BlurEditedMorph74.png,Stimuli/BlurLevel5/OriginalBlur/BlurEditedMorph74.png,Stimuli/BlurMorphTrio/EditedMorph74.png,020232right.gif,Stimuli/normal_thumbnails/74right.gif,0,0,0,0,0,16,16,73,,,78,1,17,219,-1.942864904,-1.573300978,74,158.6696018,159.1643697,158.6696018,159.1643697,91.83673469,1574292973,1574292974,1.317049026,81,68,6,6,1574292971,1574292973,,,IS,1,21,F,Undergrad,2019_Nov_20_1534,AdjustExp1,3.1.5,59.82055437,Experiment
52,Stimuli/Morph52.JPG,Stimuli/Morph52.png,Stimuli/BlurLevel5/BlurEditedMorph52,Stimuli/BlurLevel5/BlurEditedMorph52.png,Stimuli/BlurLevel5/NumberedMorphs/BlurEditedMorph52.png,Stimuli/BlurLevel5/OriginalBlur/BlurEditedMorph52.png,Stimuli/BlurMorphTrio/EditedMorph52.png,010148right.gif,Stimuli/normal_thumbnails/52right.gif,0,0,0,0,0,17,17,51,,,45,1,18,345,2.414814566,-0.647047613,52,162.6313218,163.131484,162.6313218,163.131484,97.27891156,1574292977,1574292978,1.249716043,66,50,2,2,1574292974,1574292977,,,IS,1,21,F,Undergrad,2019_Nov_20_1534,AdjustExp1,3.1.5,59.82055437,Experiment
84,Stimuli/Morph84.JPG,Stimuli/Morph84.png,Stimuli/BlurLevel5/BlurEditedMorph84,Stimuli/BlurLevel5/BlurEditedMorph84.png,Stimuli/BlurLevel5/NumberedMorphs/BlurEditedMorph84.png,Stimuli/BlurLevel5/OriginalBlur/BlurEditedMorph84.png,Stimuli/BlurMorphTrio/EditedMorph84.png,020261right.gif,Stimuli/normal_thumbnails/84right.gif,0,0,0,0,0,18,18,83,,,47,1,19,83,0.304673359,2.481365379,84,166.7813907,167.2815305,166.7813907,167.2815305,76.8707483,1574292981,1574292983,1.516057968,86,101,-17,-17,1574292978,1574292981,,,IS,1,21,F,Undergrad,2019_Nov_20_1534,AdjustExp1,3.1.5,59.82055437,Experiment
28,Stimuli/Morph28.JPG,Stimuli/Morph28.png,Stimuli/BlurLevel5/BlurEditedMorph28,Stimuli/BlurLevel5/BlurEditedMorph28.png,Stimuli/BlurLevel5/NumberedMorphs/BlurEditedMorph28.png,Stimuli/BlurLevel5/OriginalBlur/BlurEditedMorph28.png,Stimuli/BlurMorphTrio/EditedMorph28.png,010073right.gif,Stimuli/normal_thumbnails/28right.gif,0,0,0,0,0,19,19,27,,,5,1,20,209,-2.186549268,-1.212024051,28,170.8634706,171.3646046,170.8634706,171.3646046,97.27891156,1574292985,1574292987,2.266202927,118,26,2,2,1574292983,1574292985,,,IS,1,21,F,Undergrad,2019_Nov_20_1534,AdjustExp1,3.1.5,59.82055437,Experiment
106,Stimuli/Morph106.JPG,Stimuli/Morph106.png,Stimuli/BlurLevel5/BlurEditedMorph106,Stimuli/BlurLevel5/BlurEditedMorph106.png,Stimuli/BlurLevel5/NumberedMorphs/BlurEditedMorph106.png,Stimuli/BlurLevel5/OriginalBlur/BlurEditedMorph106.png,Stimuli/BlurMorphTrio/EditedMorph106.png,None,None,0,0,0,0,0,20,20,105,,,8,1,21,161,-2.363796439,0.813920386,106,175.6306089,176.1300284,175.6306089,176.1300284,83.67346939,1574292990,1574292993,2.650444031,80,118,-12,-12,1574292988,1574292990,,,IS,1,21,F,Undergrad,2019_Nov_20_1534,AdjustExp1,3.1.5,59.82055437,Experiment
2,Stimuli/Morph2.JPG,Stimuli/Morph2.png,Stimuli/BlurLevel5/BlurEditedMorph2,Stimuli/BlurLevel5/BlurEditedMorph2.png,Stimuli/BlurLevel5/NumberedMorphs/BlurEditedMorph2.png,Stimuli/BlurLevel5/OriginalBlur/BlurEditedMorph2.png,Stimuli/BlurMorphTrio/EditedMorph2.png,010006right.gif,Stimuli/normal_thumbnails/2right.gif,0,0,0,0,0,21,21,1,,,31,1,22,208,-2.207368982,-1.173678907,2,180.6161991,181.1144424,180.6161991,181.1144424,78.23129252,1574292995,1574292996,1.46657896,67,18,-16,-16,1574292993,1574292995,,,IS,1,21,F,Undergrad,2019_Nov_20_1534,AdjustExp1,3.1.5,59.82055437,Experiment
127,Stimuli/Morph127.JPG,Stimuli/Morph127.png,Stimuli/BlurLevel5/BlurEditedMorph127,Stimuli/BlurLevel5/BlurEditedMorph127.png,Stimuli/BlurLevel5/NumberedMorphs/BlurEditedMorph127.png,Stimuli/BlurLevel5/OriginalBlur/BlurEditedMorph127.png,Stimuli/BlurMorphTrio/EditedMorph127.png,None,None,0,0,0,0,0,22,22,126,,,94,1,23,179,-2.499619238,0.043631016,127,184.5980572,185.0977468,184.5980572,185.0977468,60.54421769,1574292999,1574293003,3.798907995,105,9,118,-29,1574292997,1574292999,,,IS,1,21,F,Undergrad,2019_Nov_20_1534,AdjustExp1,3.1.5,59.82055437,Experiment
50,Stimuli/Morph50.JPG,Stimuli/Morph50.png,Stimuli/BlurLevel5/BlurEditedMorph50,Stimuli/BlurLevel5/BlurEditedMorph50.png,Stimuli/BlurLevel5/NumberedMorphs/BlurEditedMorph50.png,Stimuli/BlurLevel5/OriginalBlur/BlurEditedMorph50.png,Stimuli/BlurMorphTrio/EditedMorph50.png,010142right.gif,Stimuli/normal_thumbnails/50right.gif,0,0,0,0,0,23,23,49,,,16,1,24,281,0.477022488,-2.454067959,50,191.0830631,191.5810007,191.0830631,191.5810007,94.55782313,1574293005,1574293008,2.283694029,72,54,-4,-4,1574293003,1574293005,,,IS,1,21,F,Undergrad,2019_Nov_20_1534,AdjustExp1,3.1.5,59.82055437,Experiment
108,Stimuli/Morph108.JPG,Stimuli/Morph108.png,Stimuli/BlurLevel5/BlurEditedMorph108,Stimuli/BlurLevel5/BlurEditedMorph108.png,Stimuli/BlurLevel5/NumberedMorphs/BlurEditedMorph108.png,Stimuli/BlurLevel5/OriginalBlur/BlurEditedMorph108.png,Stimuli/BlurMorphTrio/EditedMorph108.png,None,None,0,0,0,0,0,24,24,107,,,4,1,25,218,-1.970026884,-1.539153688,108,196.3144348,196.8142723,196.3144348,196.8142723,93.19727891,1574293011,1574293012,1.599678993,134,113,-5,-5,1574293008,1574293011,,,IS,1,21,F,Undergrad,2019_Nov_20_1534,AdjustExp1,3.1.5,59.82055437,Experiment
145,Stimuli/Morph145.JPG,Stimuli/Morph145.png,Stimuli/BlurLevel5/BlurEditedMorph145,Stimuli/BlurLevel5/BlurEditedMorph145.png,Stimuli/BlurLevel5/NumberedMorphs/BlurEditedMorph145.png,Stimuli/BlurLevel5/OriginalBlur/BlurEditedMorph145.png,Stimuli/BlurMorphTrio/EditedMorph145.png,None,None,0,0,0,0,0,25,25,144,,,51,1,26,173,-2.481365379,0.304673359,145,200.7801314,201.2805202,200.7801314,201.2805202,94.55782313,1574293015,1574293017,1.683839083,48,141,4,4,1574293012,1574293015,,,IS,1,21,F,Undergrad,2019_Nov_20_1534,AdjustExp1,3.1.5,59.82055437,Experiment
21,Stimuli/Morph21.JPG,Stimuli/Morph21.png,Stimuli/BlurLevel5/BlurEditedMorph21,Stimuli/BlurLevel5/BlurEditedMorph21.png,Stimuli/BlurLevel5/NumberedMorphs/BlurEditedMorph21.png,Stimuli/BlurLevel5/OriginalBlur/BlurEditedMorph21.png,Stimuli/BlurMorphTrio/EditedMorph21.png,010049right.gif,Stimuli/normal_thumbnails/21right.gif,0,0,0,0,0,26,26,20,,,70,1,27,173,-2.481365379,0.304673359,21,204.8702184,205.3636092,204.8702184,205.3636092,90.47619048,1574293019,1574293021,1.516664982,41,14,7,7,1574293017,1574293019,,,IS,1,21,F,Undergrad,2019_Nov_20_1534,AdjustExp1,3.1.5,59.82055437,Experiment
93,Stimuli/Morph93.JPG,Stimuli/Morph93.png,Stimuli/BlurLevel5/BlurEditedMorph93,Stimuli/BlurLevel5/BlurEditedMorph93.png,Stimuli/BlurLevel5/NumberedMorphs/BlurEditedMorph93.png,Stimuli/BlurLevel5/OriginalBlur/BlurEditedMorph93.png,Stimuli/BlurMorphTrio/EditedMorph93.png,020280right.gif,Stimuli/normal_thumbnails/93right.gif,0,0,0,0,0,27,27,92,,,68,1,28,56,1.397982259,2.072593931,93,208.9644596,209.4639417,208.9644596,209.4639417,98.63945578,1574293023,1574293025,1.866129875,23,94,-1,-1,1574293021,1574293023,,,IS,1,21,F,Undergrad,2019_Nov_20_1534,AdjustExp1,3.1.5,59.82055437,Experiment
111,Stimuli/Morph111.JPG,Stimuli/Morph111.png,Stimuli/BlurLevel5/BlurEditedMorph111,Stimuli/BlurLevel5/BlurEditedMorph111.png,Stimuli/BlurLevel5/NumberedMorphs/BlurEditedMorph111.png,Stimuli/BlurLevel5/OriginalBlur/BlurEditedMorph111.png,Stimuli/BlurMorphTrio/EditedMorph111.png,None,None,0,0,0,0,0,28,28,110,,,67,1,29,81,0.391086163,2.469220851,111,213.2994563,213.7967565,213.2994563,213.7967565,95.91836735,1574293028,1574293032,4.167587757,127,108,3,3,1574293025,1574293028,,,IS,1,21,F,Undergrad,2019_Nov_20_1534,AdjustExp1,3.1.5,59.82055437,Experiment
144,Stimuli/Morph144.JPG,Stimuli/Morph144.png,Stimuli/BlurLevel5/BlurEditedMorph144,Stimuli/BlurLevel5/BlurEditedMorph144.png,Stimuli/BlurLevel5/NumberedMorphs/BlurEditedMorph144.png,Stimuli/BlurLevel5/OriginalBlur/BlurEditedMorph144.png,Stimuli/BlurMorphTrio/EditedMorph144.png,None,None,0,0,0,0,0,29,29,143,,,79,1,30,9,2.469220851,0.391086163,144,220.0305682,220.5307093,220.0305682,220.5307093,65.98639456,1574293034,1574293036,2.149729013,141,119,25,25,1574293032,1574293034,,,IS,1,21,F,Undergrad,2019_Nov_20_1534,AdjustExp1,3.1.5,59.82055437,Experiment
60,Stimuli/Morph60.JPG,Stimuli/Morph60.png,Stimuli/BlurLevel5/BlurEditedMorph60,Stimuli/BlurLevel5/BlurEditedMorph60.png,Stimuli/BlurLevel5/NumberedMorphs/BlurEditedMorph60.png,Stimuli/BlurLevel5/OriginalBlur/BlurEditedMorph60.png,Stimuli/BlurMorphTrio/EditedMorph60.png,020200right.gif,Stimuli/normal_thumbnails/60right.gif,0,0,0,0,0,30,30,59,,,52,1,31,132,-1.672826516,1.857862064,60,224.7509256,225.247438,224.7509256,225.247438,87.75510204,1574293039,1574293041,2.316684008,14,51,9,9,1574293037,1574293039,,,IS,1,21,F,Undergrad,2019_Nov_20_1534,AdjustExp1,3.1.5,59.82055437,Experiment
27,Stimuli/Morph27.JPG,Stimuli/Morph27.png,Stimuli/BlurLevel5/BlurEditedMorph27,Stimuli/BlurLevel5/BlurEditedMorph27.png,Stimuli/BlurLevel5/NumberedMorphs/BlurEditedMorph27.png,Stimuli/BlurLevel5/OriginalBlur/BlurEditedMorph27.png,Stimuli/BlurMorphTrio/EditedMorph27.png,010072right.gif,Stimuli/normal_thumbnails/27right.gif,0,0,0,0,0,31,31,26,,,26,1,32,159,-2.333951066,0.895919874,27,229.5642065,230.0632682,229.5642065,230.0632682,55.10204082,1574293044,1574293046,1.91714406,73,141,-114,33,1574293042,1574293044,,,IS,1,21,F,Undergrad,2019_Nov_20_1534,AdjustExp1,3.1.5,59.82055437,Experiment
48,Stimuli/Morph48.JPG,Stimuli/Morph48.png,Stimuli/BlurLevel5/BlurEditedMorph48,Stimuli/BlurLevel5/BlurEditedMorph48.png,Stimuli/BlurLevel5/NumberedMorphs/BlurEditedMorph48.png,Stimuli/BlurLevel5/OriginalBlur/BlurEditedMorph48.png,Stimuli/BlurMorphTrio/EditedMorph48.png,010131right.gif,Stimuli/normal_thumbnails/48right.gif,0,0,0,0,0,32,32,47,,,55,1,33,74,0.68909339,2.40315424,48,233.9629357,234.4639682,233.9629357,234.4639682,100,1574293048,1574293050,1.900377274,105,48,0,0,1574293046,1574293048,,,IS,1,21,F,Undergrad,2019_Nov_20_1534,AdjustExp1,3.1.5,59.82055437,Experiment
29,Stimuli/Morph29.JPG,Stimuli/Morph29.png,Stimuli/BlurLevel5/BlurEditedMorph29,Stimuli/BlurLevel5/BlurEditedMorph29.png,Stimuli/BlurLevel5/NumberedMorphs/BlurEditedMorph29.png,Stimuli/BlurLevel5/OriginalBlur/BlurEditedMorph29.png,Stimuli/BlurMorphTrio/EditedMorph29.png,010074right.gif,Stimuli/normal_thumbnails/29right.gif,0,0,0,0,0,33,33,28,,,69,1,34,180,-2.5,3.06E-16,29,238.7130997,239.2134905,238.7130997,239.2134905,49.65986395,1574293053,1574293056,2.767128944,62,139,-110,37,1574293050,1574293053,,,IS,1,21,F,Undergrad,2019_Nov_20_1534,AdjustExp1,3.1.5,59.82055437,Experiment
147,Stimuli/Morph147.JPG,Stimuli/Morph147.png,Stimuli/BlurLevel5/BlurEditedMorph147,Stimuli/BlurLevel5/BlurEditedMorph147.png,Stimuli/BlurLevel5/NumberedMorphs/BlurEditedMorph147.png,Stimuli/BlurLevel5/OriginalBlur/BlurEditedMorph147.png,Stimuli/BlurMorphTrio/EditedMorph147.png,None,None,0,0,0,0,0,34,34,146,,,83,1,35,319,1.886773951,-1.640147572,147,243.8963294,244.3965193,243.8963294,244.3965193,89.11564626,1574293058,1574293062,3.683045149,47,8,139,-8,1574293056,1574293058,,,IS,1,21,F,Undergrad,2019_Nov_20_1534,AdjustExp1,3.1.5,59.82055437,Experiment
17,Stimuli/Morph17.JPG,Stimuli/Morph17.png,Stimuli/BlurLevel5/BlurEditedMorph17,Stimuli/BlurLevel5/BlurEditedMorph17.png,Stimuli/BlurLevel5/NumberedMorphs/BlurEditedMorph17.png,Stimuli/BlurLevel5/OriginalBlur/BlurEditedMorph17.png,Stimuli/BlurMorphTrio/EditedMorph17.png,010036right.gif,Stimuli/normal_thumbnails/17right.gif,0,0,0,0,0,35,35,16,,,99,1,36,223,-1.828384254,-1.7049959,17,249.7819377,250.2803676,249.7819377,250.2803676,76.8707483,1574293064,1574293067,2.517328024,81,147,-130,17,1574293062,1574293064,,,IS,1,21,F,Undergrad,2019_Nov_20_1534,AdjustExp1,3.1.5,59.82055437,Experiment
55,Stimuli/Morph55.JPG,Stimuli/Morph55.png,Stimuli/BlurLevel5/BlurEditedMorph55,Stimuli/BlurLevel5/BlurEditedMorph55.png,Stimuli/BlurLevel5/NumberedMorphs/BlurEditedMorph55.png,Stimuli/BlurLevel5/OriginalBlur/BlurEditedMorph55.png,Stimuli/BlurMorphTrio/EditedMorph55.png,010151right.gif,Stimuli/normal_thumbnails/55right.gif,0,0,0,0,0,36,36,54,,,33,1,37,230,-1.606969024,-1.915111108,55,254.8520151,255.346819,254.8520151,255.346819,93.19727891,1574293069,1574293072,2.716426849,128,50,5,5,1574293067,1574293069,,,IS,1,21,F,Undergrad,2019_Nov_20_1534,AdjustExp1,3.1.5,59.82055437,Experiment
53,Stimuli/Morph53.JPG,Stimuli/Morph53.png,Stimuli/BlurLevel5/BlurEditedMorph53,Stimuli/BlurLevel5/BlurEditedMorph53.png,Stimuli/BlurLevel5/NumberedMorphs/BlurEditedMorph53.png,Stimuli/BlurLevel5/OriginalBlur/BlurEditedMorph53.png,Stimuli/BlurMorphTrio/EditedMorph53.png,010149right.gif,Stimuli/normal_thumbnails/53right.gif,0,0,0,0,0,37,37,52,,,5,1,38,291,0.895919874,-2.333951066,53,260.1032714,260.5964245,260.1032714,260.5964245,95.91836735,1574293074,1574293077,2.900109053,10,50,3,3,1574293072,1574293074,,,IS,1,21,F,Undergrad,2019_Nov_20_1534,AdjustExp1,3.1.5,59.82055437,Experiment
104,Stimuli/Morph104.JPG,Stimuli/Morph104.png,Stimuli/BlurLevel5/BlurEditedMorph104,Stimuli/BlurLevel5/BlurEditedMorph104.png,Stimuli/BlurLevel5/NumberedMorphs/BlurEditedMorph104.png,Stimuli/BlurLevel5/OriginalBlur/BlurEditedMorph104.png,Stimuli/BlurMorphTrio/EditedMorph104.png,None,None,0,0,0,0,0,38,38,103,,,73,1,39,192,-2.445369002,-0.519779227,104,265.5624336,266.0629401,265.5624336,266.0629401,86.39455782,1574293080,1574293085,5.500485182,68,94,10,10,1574293077,1574293080,,,IS,1,21,F,Undergrad,2019_Nov_20_1534,AdjustExp1,3.1.5,59.82055437,Experiment
46,Stimuli/Morph46.JPG,Stimuli/Morph46.png,Stimuli/BlurLevel5/BlurEditedMorph46,Stimuli/BlurLevel5/BlurEditedMorph46.png,Stimuli/BlurLevel5/NumberedMorphs/BlurEditedMorph46.png,Stimuli/BlurLevel5/OriginalBlur/BlurEditedMorph46.png,Stimuli/BlurMorphTrio/EditedMorph46.png,010128right.gif,Stimuli/normal_thumbnails/46right.gif,0,0,0,0,0,39,39,45,,,20,1,40,297,1.134976249,-2.22751631,46,273.7464955,274.2462361,273.7464955,274.2462361,100,1574293088,1574293091,3.283432245,32,46,0,0,1574293086,1574293088,,,IS,1,21,F,Undergrad,2019_Nov_20_1534,AdjustExp1,3.1.5,59.82055437,Experiment
135,Stimuli/Morph135.JPG,Stimuli/Morph135.png,Stimuli/BlurLevel5/BlurEditedMorph135,Stimuli/BlurLevel5/BlurEditedMorph135.png,Stimuli/BlurLevel5/NumberedMorphs/BlurEditedMorph135.png,Stimuli/BlurLevel5/OriginalBlur/BlurEditedMorph135.png,Stimuli/BlurMorphTrio/EditedMorph135.png,None,None,0,0,0,0,0,40,40,134,,,74,1,41,339,2.333951066,-0.895919874,135,279.76237,280.2625918,279.76237,280.2625918,79.59183673,1574293094,1574293097,3.433422089,11,120,15,15,1574293092,1574293094,,,IS,1,21,F,Undergrad,2019_Nov_20_1534,AdjustExp1,3.1.5,59.82055437,Experiment
67,Stimuli/Morph67.JPG,Stimuli/Morph67.png,Stimuli/BlurLevel5/BlurEditedMorph67,Stimuli/BlurLevel5/BlurEditedMorph67.png,Stimuli/BlurLevel5/NumberedMorphs/BlurEditedMorph67.png,Stimuli/BlurLevel5/OriginalBlur/BlurEditedMorph67.png,Stimuli/BlurMorphTrio/EditedMorph67.png,020217right.gif,Stimuli/normal_thumbnails/67right.gif,0,0,0,0,0,41,41,66,,,77,1,42,18,2.377641291,0.772542486,67,285.7630026,286.2631727,285.7630026,286.2631727,91.83673469,1574293100,1574293104,3.616232872,13,61,6,6,1574293098,1574293100,,,IS,1,21,F,Undergrad,2019_Nov_20_1534,AdjustExp1,3.1.5,59.82055437,Experiment
94,Stimuli/Morph94.JPG,Stimuli/Morph94.png,Stimuli/BlurLevel5/BlurEditedMorph94,Stimuli/BlurLevel5/BlurEditedMorph94.png,Stimuli/BlurLevel5/NumberedMorphs/BlurEditedMorph94.png,Stimuli/BlurLevel5/OriginalBlur/BlurEditedMorph94.png,Stimuli/BlurMorphTrio/EditedMorph94.png,020286right.gif,Stimuli/normal_thumbnails/94right.gif,0,0,0,0,0,42,42,93,,,61,1,43,48,1.672826516,1.857862064,94,291.9125783,292.4124559,291.9125783,292.4124559,78.23129252,1574293106,1574293109,2.915881872,146,110,-16,-16,1574293104,1574293106,,,IS,1,21,F,Undergrad,2019_Nov_20_1534,AdjustExp1,3.1.5,59.82055437,Experiment
78,Stimuli/Morph78.JPG,Stimuli/Morph78.png,Stimuli/BlurLevel5/BlurEditedMorph78,Stimuli/BlurLevel5/BlurEditedMorph78.png,Stimuli/BlurLevel5/NumberedMorphs/BlurEditedMorph78.png,Stimuli/BlurLevel5/OriginalBlur/BlurEditedMorph78.png,Stimuli/BlurMorphTrio/EditedMorph78.png,020238right.gif,Stimuli/normal_thumbnails/78right.gif,0,0,0,0,0,43,43,77,,,84,1,44,353,2.481365379,-0.304673359,78,297.2828072,297.7795709,297.2828072,297.7795709,100,1574293112,1574293114,2.533242941,44,78,0,0,1574293109,1574293112,,,IS,1,21,F,Undergrad,2019_Nov_20_1534,AdjustExp1,3.1.5,59.82055437,Experiment
47,Stimuli/Morph47.JPG,Stimuli/Morph47.png,Stimuli/BlurLevel5/BlurEditedMorph47,Stimuli/BlurLevel5/BlurEditedMorph47.png,Stimuli/BlurLevel5/NumberedMorphs/BlurEditedMorph47.png,Stimuli/BlurLevel5/OriginalBlur/BlurEditedMorph47.png,Stimuli/BlurMorphTrio/EditedMorph47.png,010130right.gif,Stimuli/normal_thumbnails/47right.gif,0,0,0,0,0,44,44,46,,,69,1,45,187,-2.481365379,-0.304673359,47,302.4527861,302.9460643,302.4527861,302.9460643,83.67346939,1574293117,1574293117,0.815862894,59,59,-12,-12,1574293115,1574293117,,,IS,1,21,F,Undergrad,2019_Nov_20_1534,AdjustExp1,3.1.5,59.82055437,Experiment
99,Stimuli/Morph99.JPG,Stimuli/Morph99.png,Stimuli/BlurLevel5/BlurEditedMorph99,Stimuli/BlurLevel5/BlurEditedMorph99.png,Stimuli/BlurLevel5/NumberedMorphs/BlurEditedMorph99.png,Stimuli/BlurLevel5/OriginalBlur/BlurEditedMorph99.png,Stimuli/BlurMorphTrio/EditedMorph99.png,020299right.gif,Stimuli/normal_thumbnails/99right.gif,0,0,0,0,0,45,45,98,,,1,1,46,217,-1.996588775,-1.504537558,99,305.2177057,305.7128606,305.2177057,305.7128606,78.23129252,1574293119,1574293122,2.449808121,9,83,16,16,1574293118,1574293119,,,IS,1,21,F,Undergrad,2019_Nov_20_1534,AdjustExp1,3.1.5,59.82055437,Experiment
72,Stimuli/Morph72.JPG,Stimuli/Morph72.png,Stimuli/BlurLevel5/BlurEditedMorph72,Stimuli/BlurLevel5/BlurEditedMorph72.png,Stimuli/BlurLevel5/NumberedMorphs/BlurEditedMorph72.png,Stimuli/BlurLevel5/OriginalBlur/BlurEditedMorph72.png,Stimuli/BlurMorphTrio/EditedMorph72.png,020227right.gif,Stimuli/normal_thumbnails/72right.gif,0,0,0,0,0,46,46,71,,,91,1,47,280,0.434120444,-2.462019383,72,310.0461136,310.54602,310.0461136,310.54602,100,1574293124,1574293128,3.266694069,54,72,0,0,1574293122,1574293124,,,IS,1,21,F,Undergrad,2019_Nov_20_1534,AdjustExp1,3.1.5,59.82055437,Experiment
81,Stimuli/Morph81.JPG,Stimuli/Morph81.png,Stimuli/BlurLevel5/BlurEditedMorph81,Stimuli/BlurLevel5/BlurEditedMorph81.png,Stimuli/BlurLevel5/NumberedMorphs/BlurEditedMorph81.png,Stimuli/BlurLevel5/OriginalBlur/BlurEditedMorph81.png,Stimuli/BlurMorphTrio/EditedMorph81.png,020245right.gif,Stimuli/normal_thumbnails/81right.gif,0,0,0,0,0,47,47,80,,,47,1,48,68,0.936516484,2.317959636,81,316.3792911,316.8793525,316.3792911,316.8793525,80.95238095,1574293131,1574293133,2.850725174,18,67,14,14,1574293128,1574293131,,,IS,1,21,F,Undergrad,2019_Nov_20_1534,AdjustExp1,3.1.5,59.82055437,Experiment
109,Stimuli/Morph109.JPG,Stimuli/Morph109.png,Stimuli/BlurLevel5/BlurEditedMorph109,Stimuli/BlurLevel5/BlurEditedMorph109.png,Stimuli/BlurLevel5/NumberedMorphs/BlurEditedMorph109.png,Stimuli/BlurLevel5/OriginalBlur/BlurEditedMorph109.png,Stimuli/BlurMorphTrio/EditedMorph109.png,None,None,0,0,0,0,0,48,48,108,,,57,1,49,53,1.504537558,1.996588775,109,321.9628299,322.4613225,321.9628299,322.4613225,78.23129252,1574293136,1574293138,1.833431244,57,93,16,16,1574293134,1574293136,,,IS,1,21,F,Undergrad,2019_Nov_20_1534,AdjustExp1,3.1.5,59.82055437,Experiment
124,Stimuli/Morph124.JPG,Stimuli/Morph124.png,Stimuli/BlurLevel5/BlurEditedMorph124,Stimuli/BlurLevel5/BlurEditedMorph124.png,Stimuli/BlurLevel5/NumberedMorphs/BlurEditedMorph124.png,Stimuli/BlurLevel5/OriginalBlur/BlurEditedMorph124.png,Stimuli/BlurMorphTrio/EditedMorph124.png,None,None,0,0,0,0,0,49,49,123,,,44,1,50,282,0.519779227,-2.445369002,124,326.5124357,327.0124673,326.5124357,327.0124673,90.47619048,1574293141,1574293142,0.851052999,122,131,-7,-7,1574293138,1574293141,,,IS,1,21,F,Undergrad,2019_Nov_20_1534,AdjustExp1,3.1.5,59.82055437,Experiment
115,Stimuli/Morph115.JPG,Stimuli/Morph115.png,Stimuli/BlurLevel5/BlurEditedMorph115,Stimuli/BlurLevel5/BlurEditedMorph115.png,Stimuli/BlurLevel5/NumberedMorphs/BlurEditedMorph115.png,Stimuli/BlurLevel5/OriginalBlur/BlurEditedMorph115.png,Stimuli/BlurMorphTrio/EditedMorph115.png,None,None,0,0,0,0,0,50,50,114,,,41,1,51,333,2.22751631,-1.134976249,115,330.0141001,330.5121824,330.0141001,330.5121824,83.67346939,1574293144,1574293146,2.200510025,143,103,12,12,1574293142,1574293144,,,IS,1,21,F,Undergrad,2019_Nov_20_1534,AdjustExp1,3.1.5,59.82055437,Experiment
34,Stimuli/Morph34.JPG,Stimuli/Morph34.png,Stimuli/BlurLevel5/BlurEditedMorph34,Stimuli/BlurLevel5/BlurEditedMorph34.png,Stimuli/BlurLevel5/NumberedMorphs/BlurEditedMorph34.png,Stimuli/BlurLevel5/OriginalBlur/BlurEditedMorph34.png,Stimuli/BlurMorphTrio/EditedMorph34.png,010090right.gif,Stimuli/normal_thumbnails/34right.gif,0,0,0,0,0,51,51,33,,,93,1,52,168,-2.445369002,0.519779227,34,335.1359872,335.6289264,335.1359872,335.6289264,71.42857143,1574293149,1574293151,1.566726923,31,13,21,21,1574293147,1574293149,,,IS,1,21,F,Undergrad,2019_Nov_20_1534,AdjustExp1,3.1.5,59.82055437,Experiment
113,Stimuli/Morph113.JPG,Stimuli/Morph113.png,Stimuli/BlurLevel5/BlurEditedMorph113,Stimuli/BlurLevel5/BlurEditedMorph113.png,Stimuli/BlurLevel5/NumberedMorphs/BlurEditedMorph113.png,Stimuli/BlurLevel5/OriginalBlur/BlurEditedMorph113.png,Stimuli/BlurMorphTrio/EditedMorph113.png,None,None,0,0,0,0,0,52,52,112,,,96,1,53,30,2.165063509,1.25,113,340.0114633,340.5122358,340.0114633,340.5122358,95.91836735,1574293154,1574293159,4.348997831,49,116,-3,-3,1574293151,1574293154,,,IS,1,21,F,Undergrad,2019_Nov_20_1534,AdjustExp1,3.1.5,59.82055437,Experiment
131,Stimuli/Morph131.JPG,Stimuli/Morph131.png,Stimuli/BlurLevel5/BlurEditedMorph131,Stimuli/BlurLevel5/BlurEditedMorph131.png,Stimuli/BlurLevel5/NumberedMorphs/BlurEditedMorph131.png,Stimuli/BlurLevel5/OriginalBlur/BlurEditedMorph131.png,Stimuli/BlurMorphTrio/EditedMorph131.png,None,None,0,0,0,0,0,53,53,130,,,13,1,54,185,-2.490486745,-0.217889357,131,347.0624722,347.5623378,347.0624722,347.5623378,89.11564626,1574293161,1574293163,1.599542141,130,139,-8,-8,1574293159,1574293161,,,IS,1,21,F,Undergrad,2019_Nov_20_1534,AdjustExp1,3.1.5,59.82055437,Experiment
65,Stimuli/Morph65.JPG,Stimuli/Morph65.png,Stimuli/BlurLevel5/BlurEditedMorph65,Stimuli/BlurLevel5/BlurEditedMorph65.png,Stimuli/BlurLevel5/NumberedMorphs/BlurEditedMorph65.png,Stimuli/BlurLevel5/OriginalBlur/BlurEditedMorph65.png,Stimuli/BlurMorphTrio/EditedMorph65.png,020209right.gif,Stimuli/normal_thumbnails/65right.gif,0,0,0,0,0,54,54,64,,,43,1,55,222,-1.857862064,-1.672826516,65,351.3628593,351.8610226,351.3628593,351.8610226,93.19727891,1574293166,1574293168,2.099482775,65,70,-5,-5,1574293163,1574293166,,,IS,1,21,F,Undergrad,2019_Nov_20_1534,AdjustExp1,3.1.5,59.82055437,Experiment
139,Stimuli/Morph139.JPG,Stimuli/Morph139.png,Stimuli/BlurLevel5/BlurEditedMorph139,Stimuli/BlurLevel5/BlurEditedMorph139.png,Stimuli/BlurLevel5/NumberedMorphs/BlurEditedMorph139.png,Stimuli/BlurLevel5/OriginalBlur/BlurEditedMorph139.png,Stimuli/BlurMorphTrio/EditedMorph139.png,None,None,0,0,0,0,0,55,55,138,,,61,1,56,199,-2.363796439,-0.813920386,139,356.2116067,356.7117999,356.2116067,356.7117999,79.59183673,1574293170,1574293173,2.200377941,112,124,15,15,1574293168,1574293170,,,IS,1,21,F,Undergrad,2019_Nov_20_1534,AdjustExp1,3.1.5,59.82055437,Experiment
19,Stimuli/Morph19.JPG,Stimuli/Morph19.png,Stimuli/BlurLevel5/BlurEditedMorph19,Stimuli/BlurLevel5/BlurEditedMorph19.png,Stimuli/BlurLevel5/NumberedMorphs/BlurEditedMorph19.png,Stimuli/BlurLevel5/OriginalBlur/BlurEditedMorph19.png,Stimuli/BlurMorphTrio/EditedMorph19.png,010045right.gif,Stimuli/normal_thumbnails/19right.gif,0,0,0,0,0,56,56,18,,,88,1,57,200,-2.349231552,-0.855050358,19,360.794562,361.2953972,360.794562,361.2953972,65.98639456,1574293175,1574293177,2.166868925,83,141,-122,25,1574293173,1574293175,,,IS,1,21,F,Undergrad,2019_Nov_20_1534,AdjustExp1,3.1.5,59.82055437,Experiment
31,Stimuli/Morph31.JPG,Stimuli/Morph31.png,Stimuli/BlurLevel5/BlurEditedMorph31,Stimuli/BlurLevel5/BlurEditedMorph31.png,Stimuli/BlurLevel5/NumberedMorphs/BlurEditedMorph31.png,Stimuli/BlurLevel5/OriginalBlur/BlurEditedMorph31.png,Stimuli/BlurMorphTrio/EditedMorph31.png,010079right.gif,Stimuli/normal_thumbnails/31right.gif,0,0,0,0,0,57,57,30,,,92,1,58,262,-0.347932752,-2.475670172,31,365.8848256,366.3944216,365.8848256,366.3944216,82.31292517,1574293180,1574293184,3.399944067,109,18,13,13,1574293177,1574293180,,,IS,1,21,F,Undergrad,2019_Nov_20_1534,AdjustExp1,3.1.5,59.82055437,Experiment
141,Stimuli/Morph141.JPG,Stimuli/Morph141.png,Stimuli/BlurLevel5/BlurEditedMorph141,Stimuli/BlurLevel5/BlurEditedMorph141.png,Stimuli/BlurLevel5/NumberedMorphs/BlurEditedMorph141.png,Stimuli/BlurLevel5/OriginalBlur/BlurEditedMorph141.png,Stimuli/BlurMorphTrio/EditedMorph141.png,None,None,0,0,0,0,0,58,58,140,,,29,1,59,122,-1.324798161,2.12012024,141,372.2310559,372.7277981,372.2310559,372.7277981,98.63945578,1574293186,1574293189,2.050671101,124,140,1,1,1574293184,1574293186,,,IS,1,21,F,Undergrad,2019_Nov_20_1534,AdjustExp1,3.1.5,59.82055437,Experiment
49,Stimuli/Morph49.JPG,Stimuli/Morph49.png,Stimuli/BlurLevel5/BlurEditedMorph49,Stimuli/BlurLevel5/BlurEditedMorph49.png,Stimuli/BlurLevel5/NumberedMorphs/BlurEditedMorph49.png,Stimuli/BlurLevel5/OriginalBlur/BlurEditedMorph49.png,Stimuli/BlurMorphTrio/EditedMorph49.png,010135right.gif,Stimuli/normal_thumbnails/49right.gif,0,0,0,0,0,59,59,48,,,44,1,60,5,2.490486745,0.217889357,49,376.9509794,377.4452452,376.9509794,377.4452452,87.75510204,1574293191,1574293193,2.083414078,125,58,-9,-9,1574293189,1574293191,,,IS,1,21,F,Undergrad,2019_Nov_20_1534,AdjustExp1,3.1.5,59.82055437,Experiment
129,Stimuli/Morph129.JPG,Stimuli/Morph129.png,Stimuli/BlurLevel5/BlurEditedMorph129,Stimuli/BlurLevel5/BlurEditedMorph129.png,Stimuli/BlurLevel5/NumberedMorphs/BlurEditedMorph129.png,Stimuli/BlurLevel5/OriginalBlur/BlurEditedMorph129.png,Stimuli/BlurMorphTrio/EditedMorph129.png,None,None,0,0,0,0,0,60,60,128,,,4,1,61,215,-2.047880111,-1.433941091,129,381.8822142,382.3780759,381.8822142,382.3780759,68.70748299,1574293196,1574293198,2.316892147,92,5,124,-23,1574293194,1574293196,,,IS,1,21,F,Undergrad,2019_Nov_20_1534,AdjustExp1,3.1.5,59.82055437,Experiment
85,Stimuli/Morph85.JPG,Stimuli/Morph85.png,Stimuli/BlurLevel5/BlurEditedMorph85,Stimuli/BlurLevel5/BlurEditedMorph85.png,Stimuli/BlurLevel5/NumberedMorphs/BlurEditedMorph85.png,Stimuli/BlurLevel5/OriginalBlur/BlurEditedMorph85.png,Stimuli/BlurMorphTrio/EditedMorph85.png,020264right.gif,Stimuli/normal_thumbnails/85right.gif,0,0,0,0,0,61,61,84,,,10,1,62,53,1.504537558,1.996588775,85,386.8450888,387.3448475,386.8450888,387.3448475,85.03401361,1574293201,1574293204,2.465764046,146,74,11,11,1574293199,1574293201,,,IS,1,21,F,Undergrad,2019_Nov_20_1534,AdjustExp1,3.1.5,59.82055437,Experiment
37,Stimuli/Morph37.JPG,Stimuli/Morph37.png,Stimuli/BlurLevel5/BlurEditedMorph37,Stimuli/BlurLevel5/BlurEditedMorph37.png,Stimuli/BlurLevel5/NumberedMorphs/BlurEditedMorph37.png,Stimuli/BlurLevel5/OriginalBlur/BlurEditedMorph37.png,Stimuli/BlurMorphTrio/EditedMorph37.png,010097right.gif,Stimuli/normal_thumbnails/37right.gif,0,0,0,0,0,62,62,36,,,63,1,63,280,0.434120444,-2.462019383,37,391.9283637,392.4280109,391.9283637,392.4280109,64.62585034,1574293206,1574293210,3.51565814,16,63,-26,-26,1574293204,1574293206,,,IS,1,21,F,Undergrad,2019_Nov_20_1534,AdjustExp1,3.1.5,59.82055437,Experiment
51,Stimuli/Morph51.JPG,Stimuli/Morph51.png,Stimuli/BlurLevel5/BlurEditedMorph51,Stimuli/BlurLevel5/BlurEditedMorph51.png,Stimuli/BlurLevel5/NumberedMorphs/BlurEditedMorph51.png,Stimuli/BlurLevel5/OriginalBlur/BlurEditedMorph51.png,Stimuli/BlurMorphTrio/EditedMorph51.png,010146right.gif,Stimuli/normal_thumbnails/51right.gif,0,0,0,0,0,63,63,50,,,85,1,64,291,0.895919874,-2.333951066,51,397.9280032,398.4282118,397.9280032,398.4282118,97.27891156,1574293212,1574293215,3.151295185,25,49,2,2,1574293210,1574293212,,,IS,1,21,F,Undergrad,2019_Nov_20_1534,AdjustExp1,3.1.5,59.82055437,Experiment
142,Stimuli/Morph142.JPG,Stimuli/Morph142.png,Stimuli/BlurLevel5/BlurEditedMorph142,Stimuli/BlurLevel5/BlurEditedMorph142.png,Stimuli/BlurLevel5/NumberedMorphs/BlurEditedMorph142.png,Stimuli/BlurLevel5/OriginalBlur/BlurEditedMorph142.png,Stimuli/BlurMorphTrio/EditedMorph142.png,None,None,0,0,0,0,0,64,64,141,,,83,1,65,288,0.772542486,-2.377641291,142,403.5647214,404.0614998,403.5647214,404.0614998,95.91836735,1574293218,1574293219,1.232295036,141,139,3,3,1574293216,1574293218,,,IS,1,21,F,Undergrad,2019_Nov_20_1534,AdjustExp1,3.1.5,59.82055437,Experiment
64,Stimuli/Morph64.JPG,Stimuli/Morph64.png,Stimuli/BlurLevel5/BlurEditedMorph64,Stimuli/BlurLevel5/BlurEditedMorph64.png,Stimuli/BlurLevel5/NumberedMorphs/BlurEditedMorph64.png,Stimuli/BlurLevel5/OriginalBlur/BlurEditedMorph64.png,Stimuli/BlurMorphTrio/EditedMorph64.png,020208right.gif,Stimuli/normal_thumbnails/64right.gif,0,0,0,0,0,65,65,63,,,11,1,66,99,-0.391086163,2.469220851,64,407.9444888,408.4445435,407.9444888,408.4445435,87.75510204,1574293222,1574293223,0.834213257,73,73,-9,-9,1574293219,1574293222,,,IS,1,21,F,Undergrad,2019_Nov_20_1534,AdjustExp1,3.1.5,59.82055437,Experiment
3,Stimuli/Morph3.JPG,Stimuli/Morph3.png,Stimuli/BlurLevel5/BlurEditedMorph3,Stimuli/BlurLevel5/BlurEditedMorph3.png,Stimuli/BlurLevel5/NumberedMorphs/BlurEditedMorph3.png,Stimuli/BlurLevel5/OriginalBlur/BlurEditedMorph3.png,Stimuli/BlurMorphTrio/EditedMorph3.png,010009right.gif,Stimuli/normal_thumbnails/3right.gif,0,0,0,0,0,66,66,2,,,8,1,67,16,2.40315424,0.68909339,3,411.5781155,412.0773691,411.5781155,412.0773691,93.19727891,1574293226,1574293227,0.766259909,145,145,-142,5,1574293223,1574293226,,,IS,1,21,F,Undergrad,2019_Nov_20_1534,AdjustExp1,3.1.5,59.82055437,Experiment
89,Stimuli/Morph89.JPG,Stimuli/Morph89.png,Stimuli/BlurLevel5/BlurEditedMorph89,Stimuli/BlurLevel5/BlurEditedMorph89.png,Stimuli/BlurLevel5/NumberedMorphs/BlurEditedMorph89.png,Stimuli/BlurLevel5/OriginalBlur/BlurEditedMorph89.png,Stimuli/BlurMorphTrio/EditedMorph89.png,020273right.gif,Stimuli/normal_thumbnails/89right.gif,0,0,0,0,0,67,67,88,,,33,1,68,7,2.481365379,0.304673359,89,414.6939752,415.1950226,414.6939752,415.1950226,91.83673469,1574293229,1574293232,2.983440161,42,83,6,6,1574293227,1574293229,,,IS,1,21,F,Undergrad,2019_Nov_20_1534,AdjustExp1,3.1.5,59.82055437,Experiment
117,Stimuli/Morph117.JPG,Stimuli/Morph117.png,Stimuli/BlurLevel5/BlurEditedMorph117,Stimuli/BlurLevel5/BlurEditedMorph117.png,Stimuli/BlurLevel5/NumberedMorphs/BlurEditedMorph117.png,Stimuli/BlurLevel5/OriginalBlur/BlurEditedMorph117.png,Stimuli/BlurMorphTrio/EditedMorph117.png,None,None,0,0,0,0,0,68,68,116,,,62,1,69,281,0.477022488,-2.454067959,117,420.0772608,420.5778317,420.0772608,420.5778317,97.27891156,1574293234,1574293238,3.549958944,35,115,2,2,1574293232,1574293234,,,IS,1,21,F,Undergrad,2019_Nov_20_1534,AdjustExp1,3.1.5,59.82055437,Experiment
36,Stimuli/Morph36.JPG,Stimuli/Morph36.png,Stimuli/BlurLevel5/BlurEditedMorph36,Stimuli/BlurLevel5/BlurEditedMorph36.png,Stimuli/BlurLevel5/NumberedMorphs/BlurEditedMorph36.png,Stimuli/BlurLevel5/OriginalBlur/BlurEditedMorph36.png,Stimuli/BlurMorphTrio/EditedMorph36.png,010095right.gif,Stimuli/normal_thumbnails/36right.gif,0,0,0,0,0,69,69,35,,,74,1,70,50,1.606969024,1.915111108,36,425.9949785,426.4944979,425.9949785,426.4944979,90.47619048,1574293240,1574293243,2.299390078,69,43,-7,-7,1574293238,1574293240,,,IS,1,21,F,Undergrad,2019_Nov_20_1534,AdjustExp1,3.1.5,59.82055437,Experiment
100,Stimuli/Morph100.JPG,Stimuli/Morph100.png,Stimuli/BlurLevel5/BlurEditedMorph100,Stimuli/BlurLevel5/BlurEditedMorph100.png,Stimuli/BlurLevel5/NumberedMorphs/BlurEditedMorph100.png,Stimuli/BlurLevel5/OriginalBlur/BlurEditedMorph100.png,Stimuli/BlurMorphTrio/EditedMorph100.png,020297right.gif,Stimuli/normal_thumbnails/100right.gif,0,0,0,0,0,70,70,99,,,36,1,71,267,-0.130839891,-2.496573837,100,431.1298713,431.6277861,431.1298713,431.6277861,46.93877551,1574293245,1574293249,3.199969053,18,139,-39,-39,1574293243,1574293245,,,IS,1,21,F,Undergrad,2019_Nov_20_1534,AdjustExp1,3.1.5,59.82055437,Experiment
86,Stimuli/Morph86.JPG,Stimuli/Morph86.png,Stimuli/BlurLevel5/BlurEditedMorph86,Stimuli/BlurLevel5/BlurEditedMorph86.png,Stimuli/BlurLevel5/NumberedMorphs/BlurEditedMorph86.png,Stimuli/BlurLevel5/OriginalBlur/BlurEditedMorph86.png,Stimuli/BlurMorphTrio/EditedMorph86.png,020266right.gif,Stimuli/normal_thumbnails/86right.gif,0,0,0,0,0,71,71,85,,,57,1,72,239,-1.287595187,-2.142918252,86,437.0607753,437.5608362,437.0607753,437.5608362,98.63945578,1574293251,1574293254,2.533215046,71,87,-1,-1,1574293249,1574293251,,,IS,1,21,F,Undergrad,2019_Nov_20_1534,AdjustExp1,3.1.5,59.82055437,Experiment
62,Stimuli/Morph62.JPG,Stimuli/Morph62.png,Stimuli/BlurLevel5/BlurEditedMorph62,Stimuli/BlurLevel5/BlurEditedMorph62.png,Stimuli/BlurLevel5/NumberedMorphs/BlurEditedMorph62.png,Stimuli/BlurLevel5/OriginalBlur/BlurEditedMorph62.png,Stimuli/BlurMorphTrio/EditedMorph62.png,020205right.gif,Stimuli/normal_thumbnails/62right.gif,0,0,0,0,0,72,72,61,,,47,1,73,84,0.261321158,2.486304738,62,442.6104641,443.1107587,442.6104641,443.1107587,86.39455782,1574293257,1574293260,3.283584118,67,52,10,10,1574293254,1574293257,,,IS,1,21,F,Undergrad,2019_Nov_20_1534,AdjustExp1,3.1.5,59.82055437,Experiment
92,Stimuli/Morph92.JPG,Stimuli/Morph92.png,Stimuli/BlurLevel5/BlurEditedMorph92,Stimuli/BlurLevel5/BlurEditedMorph92.png,Stimuli/BlurLevel5/NumberedMorphs/BlurEditedMorph92.png,Stimuli/BlurLevel5/OriginalBlur/BlurEditedMorph92.png,Stimuli/BlurMorphTrio/EditedMorph92.png,020277right.gif,Stimuli/normal_thumbnails/92right.gif,0,0,0,0,0,73,73,91,,,82,1,74,170,-2.462019383,0.434120444,92,448.5617927,449.0606772,448.5617927,449.0606772,83.67346939,1574293263,1574293266,2.983712912,2,104,-12,-12,1574293260,1574293263,,,IS,1,21,F,Undergrad,2019_Nov_20_1534,AdjustExp1,3.1.5,59.82055437,Experiment
138,Stimuli/Morph138.JPG,Stimuli/Morph138.png,Stimuli/BlurLevel5/BlurEditedMorph138,Stimuli/BlurLevel5/BlurEditedMorph138.png,Stimuli/BlurLevel5/NumberedMorphs/BlurEditedMorph138.png,Stimuli/BlurLevel5/OriginalBlur/BlurEditedMorph138.png,Stimuli/BlurMorphTrio/EditedMorph138.png,None,None,0,0,0,0,0,74,74,137,,,85,1,75,19,2.363796439,0.813920386,138,454.084096,454.5774596,454.084096,454.5774596,87.75510204,1574293268,1574293272,3.965475798,60,147,-9,-9,1574293266,1574293268,,,IS,1,21,F,Undergrad,2019_Nov_20_1534,AdjustExp1,3.1.5,59.82055437,Experiment
83,Stimuli/Morph83.JPG,Stimuli/Morph83.png,Stimuli/BlurLevel5/BlurEditedMorph83,Stimuli/BlurLevel5/BlurEditedMorph83.png,Stimuli/BlurLevel5/NumberedMorphs/BlurEditedMorph83.png,Stimuli/BlurLevel5/OriginalBlur/BlurEditedMorph83.png,Stimuli/BlurMorphTrio/EditedMorph83.png,020259right.gif,Stimuli/normal_thumbnails/83right.gif,0,0,0,0,0,75,75,82,,,32,1,76,344,2.40315424,-0.68909339,83,460.4440088,460.9441008,460.4440088,460.9441008,57.82312925,1574293275,1574293275,0.716655731,114,114,-31,-31,1574293273,1574293275,,,IS,1,21,F,Undergrad,2019_Nov_20_1534,AdjustExp1,3.1.5,59.82055437,Experiment
12,Stimuli/Morph12.JPG,Stimuli/Morph12.png,Stimuli/BlurLevel5/BlurEditedMorph12,Stimuli/BlurLevel5/BlurEditedMorph12.png,Stimuli/BlurLevel5/NumberedMorphs/BlurEditedMorph12.png,Stimuli/BlurLevel5/OriginalBlur/BlurEditedMorph12.png,Stimuli/BlurMorphTrio/EditedMorph12.png,010026right.gif,Stimuli/normal_thumbnails/12right.gif,0,0,0,0,0,76,76,11,,,39,1,77,255,-0.647047613,-2.414814566,12,463.4451501,463.9440327,463.4451501,463.9440327,94.55782313,1574293278,1574293280,2.333333015,3,8,4,4,1574293276,1574293278,,,IS,1,21,F,Undergrad,2019_Nov_20_1534,AdjustExp1,3.1.5,59.82055437,Experiment
91,Stimuli/Morph91.JPG,Stimuli/Morph91.png,Stimuli/BlurLevel5/BlurEditedMorph91,Stimuli/BlurLevel5/BlurEditedMorph91.png,Stimuli/BlurLevel5/NumberedMorphs/BlurEditedMorph91.png,Stimuli/BlurLevel5/OriginalBlur/BlurEditedMorph91.png,Stimuli/BlurMorphTrio/EditedMorph91.png,020276right.gif,Stimuli/normal_thumbnails/91right.gif,0,0,0,0,0,77,77,90,,,16,1,78,17,2.39076189,0.730929262,91,468.5165523,469.0103691,468.5165523,469.0103691,85.03401361,1574293283,1574293285,1.83301568,6,102,-11,-11,1574293280,1574293283,,,IS,1,21,F,Undergrad,2019_Nov_20_1534,AdjustExp1,3.1.5,59.82055437,Experiment
11,Stimuli/Morph11.JPG,Stimuli/Morph11.png,Stimuli/BlurLevel5/BlurEditedMorph11,Stimuli/BlurLevel5/BlurEditedMorph11.png,Stimuli/BlurLevel5/NumberedMorphs/BlurEditedMorph11.png,Stimuli/BlurLevel5/OriginalBlur/BlurEditedMorph11.png,Stimuli/BlurMorphTrio/EditedMorph11.png,010024right.gif,Stimuli/normal_thumbnails/11right.gif,0,0,0,0,0,78,78,10,,,11,1,79,274,0.174391184,-2.493910126,11,473.1602294,473.6599313,473.1602294,473.6599313,76.8707483,1574293287,1574293290,2.632823944,115,141,-130,17,1574293285,1574293287,,,IS,1,21,F,Undergrad,2019_Nov_20_1534,AdjustExp1,3.1.5,59.82055437,Experiment
98,Stimuli/Morph98.JPG,Stimuli/Morph98.png,Stimuli/BlurLevel5/BlurEditedMorph98,Stimuli/BlurLevel5/BlurEditedMorph98.png,Stimuli/BlurLevel5/NumberedMorphs/BlurEditedMorph98.png,Stimuli/BlurLevel5/OriginalBlur/BlurEditedMorph98.png,Stimuli/BlurMorphTrio/EditedMorph98.png,020298right.gif,Stimuli/normal_thumbnails/98right.gif,0,0,0,0,0,79,79,97,,,66,1,80,129,-1.573300978,1.942864904,98,478.2603394,478.7606373,478.2603394,478.7606373,76.8707483,1574293293,1574293301,8.067664862,96,81,17,17,1574293290,1574293293,,,IS,1,21,F,Undergrad,2019_Nov_20_1534,AdjustExp1,3.1.5,59.82055437,Experiment
15,Stimuli/Morph15.JPG,Stimuli/Morph15.png,Stimuli/BlurLevel5/BlurEditedMorph15,Stimuli/BlurLevel5/BlurEditedMorph15.png,Stimuli/BlurLevel5/NumberedMorphs/BlurEditedMorph15.png,Stimuli/BlurLevel5/OriginalBlur/BlurEditedMorph15.png,Stimuli/BlurMorphTrio/EditedMorph15.png,010031right.gif,Stimuli/normal_thumbnails/15right.gif,0,0,0,0,0,80,80,14,,,14,1,81,31,2.142918252,1.287595187,15,488.9432227,489.4436847,488.9432227,489.4436847,95.91836735,1574293303,1574293304,1.284018993,47,18,-3,-3,1574293301,1574293303,,,IS,1,21,F,Undergrad,2019_Nov_20_1534,AdjustExp1,3.1.5,59.82055437,Experiment
128,Stimuli/Morph128.JPG,Stimuli/Morph128.png,Stimuli/BlurLevel5/BlurEditedMorph128,Stimuli/BlurLevel5/BlurEditedMorph128.png,Stimuli/BlurLevel5/NumberedMorphs/BlurEditedMorph128.png,Stimuli/BlurLevel5/OriginalBlur/BlurEditedMorph128.png,Stimuli/BlurMorphTrio/EditedMorph128.png,None,None,0,0,0,0,0,81,81,127,,,34,1,82,357,2.496573837,-0.130839891,128,492.6781141,493.1768468,492.6781141,493.1768468,75.51020408,1574293307,1574293310,3.166305065,109,146,-18,-18,1574293305,1574293307,,,IS,1,21,F,Undergrad,2019_Nov_20_1534,AdjustExp1,3.1.5,59.82055437,Experiment
5,Stimuli/Morph5.JPG,Stimuli/Morph5.png,Stimuli/BlurLevel5/BlurEditedMorph5,Stimuli/BlurLevel5/BlurEditedMorph5.png,Stimuli/BlurLevel5/NumberedMorphs/BlurEditedMorph5.png,Stimuli/BlurLevel5/OriginalBlur/BlurEditedMorph5.png,Stimuli/BlurMorphTrio/EditedMorph5.png,010011right.gif,Stimuli/normal_thumbnails/5right.gif,0,0,0,0,0,82,82,4,,,90,1,83,118,-1.173678907,2.207368982,5,498.2957883,498.7931908,498.2957883,498.7931908,18.36734694,1574293313,1574293313,0.616275787,92,92,-87,60,1574293310,1574293313,,,IS,1,21,F,Undergrad,2019_Nov_20_1534,AdjustExp1,3.1.5,59.82055437,Experiment
33,Stimuli/Morph33.JPG,Stimuli/Morph33.png,Stimuli/BlurLevel5/BlurEditedMorph33,Stimuli/BlurLevel5/BlurEditedMorph33.png,Stimuli/BlurLevel5/NumberedMorphs/BlurEditedMorph33.png,Stimuli/BlurLevel5/OriginalBlur/BlurEditedMorph33.png,Stimuli/BlurMorphTrio/EditedMorph33.png,010089right.gif,Stimuli/normal_thumbnails/33right.gif,0,0,0,0,0,83,83,32,,,61,1,84,165,-2.414814566,0.647047613,33,501.8929615,502.3931674,501.8929615,502.3931674,60.54421769,1574293316,1574293318,2.249542236,144,62,-29,-29,1574293313,1574293316,,,IS,1,21,F,Undergrad,2019_Nov_20_1534,AdjustExp1,3.1.5,59.82055437,Experiment
25,Stimuli/Morph25.JPG,Stimuli/Morph25.png,Stimuli/BlurLevel5/BlurEditedMorph25,Stimuli/BlurLevel5/BlurEditedMorph25.png,Stimuli/BlurLevel5/NumberedMorphs/BlurEditedMorph25.png,Stimuli/BlurLevel5/OriginalBlur/BlurEditedMorph25.png,Stimuli/BlurMorphTrio/EditedMorph25.png,010069right.gif,Stimuli/normal_thumbnails/25right.gif,0,0,0,0,0,84,84,24,,,16,1,85,352,2.475670172,-0.347932752,25,506.8639236,507.3596432,506.8639236,507.3596432,91.83673469,1574293321,1574293323,1.767645359,74,19,6,6,1574293319,1574293321,,,IS,1,21,F,Undergrad,2019_Nov_20_1534,AdjustExp1,3.1.5,59.82055437,Experiment
28,Stimuli/Morph28.JPG,Stimuli/Morph28.png,Stimuli/BlurLevel5/BlurEditedMorph28,Stimuli/BlurLevel5/BlurEditedMorph28.png,Stimuli/BlurLevel5/NumberedMorphs/BlurEditedMorph28.png,Stimuli/BlurLevel5/OriginalBlur/BlurEditedMorph28.png,Stimuli/BlurMorphTrio/EditedMorph28.png,010073right.gif,Stimuli/normal_thumbnails/28right.gif,1,0,1,0,0,0,0,27,,,4,2,1,15,2.414814566,0.647047613,28,519.6118972,520.1930683,519.6118972,520.1930683,83.67346939,1574293334,1574293335,1.200034857,47,16,12,12,1574293331,1574293334,space,7.558063824,IS,1,21,F,Undergrad,2019_Nov_20_1534,AdjustExp1,3.1.5,59.82055437,Experiment
138,Stimuli/Morph138.JPG,Stimuli/Morph138.png,Stimuli/BlurLevel5/BlurEditedMorph138,Stimuli/BlurLevel5/BlurEditedMorph138.png,Stimuli/BlurLevel5/NumberedMorphs/BlurEditedMorph138.png,Stimuli/BlurLevel5/OriginalBlur/BlurEditedMorph138.png,Stimuli/BlurMorphTrio/EditedMorph138.png,None,None,1,0,1,0,0,1,1,137,,,100,2,2,158,-2.317959636,0.936516484,138,523.4432984,523.9761701,523.4432984,523.9761701,100,1574293338,1574293339,0.849637032,138,138,0,0,1574293335,1574293338,,,IS,1,21,F,Undergrad,2019_Nov_20_1534,AdjustExp1,3.1.5,59.82055437,Experiment
14,Stimuli/Morph14.JPG,Stimuli/Morph14.png,Stimuli/BlurLevel5/BlurEditedMorph14,Stimuli/BlurLevel5/BlurEditedMorph14.png,Stimuli/BlurLevel5/NumberedMorphs/BlurEditedMorph14.png,Stimuli/BlurLevel5/OriginalBlur/BlurEditedMorph14.png,Stimuli/BlurMorphTrio/EditedMorph14.png,010030right.gif,Stimuli/normal_thumbnails/14right.gif,1,0,1,0,0,2,2,13,,,27,2,3,167,-2.435925162,0.562377636,14,527.14193,527.7262032,527.14193,527.7262032,95.91836735,1574293341,1574293344,2.466702223,74,11,3,3,1574293339,1574293341,,,IS,1,21,F,Undergrad,2019_Nov_20_1534,AdjustExp1,3.1.5,59.82055437,Experiment
115,Stimuli/Morph115.JPG,Stimuli/Morph115.png,Stimuli/BlurLevel5/BlurEditedMorph115,Stimuli/BlurLevel5/BlurEditedMorph115.png,Stimuli/BlurLevel5/NumberedMorphs/BlurEditedMorph115.png,Stimuli/BlurLevel5/OriginalBlur/BlurEditedMorph115.png,Stimuli/BlurMorphTrio/EditedMorph115.png,None,None,1,0,1,0,0,3,3,114,,,74,2,4,121,-1.287595187,2.142918252,115,532.2590672,532.759276,532.2590672,532.759276,53.7414966,1574293346,1574293349,2.633807898,34,2,113,-34,1574293344,1574293346,,,IS,1,21,F,Undergrad,2019_Nov_20_1534,AdjustExp1,3.1.5,59.82055437,Experiment
137,Stimuli/Morph137.JPG,Stimuli/Morph137.png,Stimuli/BlurLevel5/BlurEditedMorph137,Stimuli/BlurLevel5/BlurEditedMorph137.png,Stimuli/BlurLevel5/NumberedMorphs/BlurEditedMorph137.png,Stimuli/BlurLevel5/OriginalBlur/BlurEditedMorph137.png,Stimuli/BlurMorphTrio/EditedMorph137.png,None,None,1,0,1,0,0,4,4,136,,,11,2,5,56,1.397982259,2.072593931,137,537.9299453,538.4262275,537.9299453,538.4262275,89.11564626,1574293352,1574293353,0.816835165,129,129,8,8,1574293349,1574293352,,,IS,1,21,F,Undergrad,2019_Nov_20_1534,AdjustExp1,3.1.5,59.82055437,Experiment
15,Stimuli/Morph15.JPG,Stimuli/Morph15.png,Stimuli/BlurLevel5/BlurEditedMorph15,Stimuli/BlurLevel5/BlurEditedMorph15.png,Stimuli/BlurLevel5/NumberedMorphs/BlurEditedMorph15.png,Stimuli/BlurLevel5/OriginalBlur/BlurEditedMorph15.png,Stimuli/BlurMorphTrio/EditedMorph15.png,010031right.gif,Stimuli/normal_thumbnails/15right.gif,1,0,1,0,0,5,5,14,,,26,2,6,251,-0.813920386,-2.363796439,15,541.3265802,541.8259046,541.3265802,541.8259046,94.55782313,1574293356,1574293359,2.949326038,92,11,4,4,1574293354,1574293356,,,IS,1,21,F,Undergrad,2019_Nov_20_1534,AdjustExp1,3.1.5,59.82055437,Experiment
67,Stimuli/Morph67.JPG,Stimuli/Morph67.png,Stimuli/BlurLevel5/BlurEditedMorph67,Stimuli/BlurLevel5/BlurEditedMorph67.png,Stimuli/BlurLevel5/NumberedMorphs/BlurEditedMorph67.png,Stimuli/BlurLevel5/OriginalBlur/BlurEditedMorph67.png,Stimuli/BlurMorphTrio/EditedMorph67.png,020217right.gif,Stimuli/normal_thumbnails/67right.gif,1,0,1,0,0,6,6,66,,,70,2,7,282,0.519779227,-2.445369002,67,546.5933622,547.0931428,546.5933622,547.0931428,79.59183673,1574293361,1574293364,3.533409119,34,52,15,15,1574293359,1574293361,,,IS,1,21,F,Undergrad,2019_Nov_20_1534,AdjustExp1,3.1.5,59.82055437,Experiment
54,Stimuli/Morph54.JPG,Stimuli/Morph54.png,Stimuli/BlurLevel5/BlurEditedMorph54,Stimuli/BlurLevel5/BlurEditedMorph54.png,Stimuli/BlurLevel5/NumberedMorphs/BlurEditedMorph54.png,Stimuli/BlurLevel5/OriginalBlur/BlurEditedMorph54.png,Stimuli/BlurMorphTrio/EditedMorph54.png,010150right.gif,Stimuli/normal_thumbnails/54right.gif,1,0,1,0,0,7,7,53,,,19,2,8,267,-0.130839891,-2.496573837,54,553.1433105,553.7266799,553.1433105,553.7266799,94.55782313,1574293367,1574293372,4.932718754,133,50,4,4,1574293365,1574293367,,,IS,1,21,F,Undergrad,2019_Nov_20_1534,AdjustExp1,3.1.5,59.82055437,Experiment
18,Stimuli/Morph18.JPG,Stimuli/Morph18.png,Stimuli/BlurLevel5/BlurEditedMorph18,Stimuli/BlurLevel5/BlurEditedMorph18.png,Stimuli/BlurLevel5/NumberedMorphs/BlurEditedMorph18.png,Stimuli/BlurLevel5/OriginalBlur/BlurEditedMorph18.png,Stimuli/BlurMorphTrio/EditedMorph18.png,010039right.gif,Stimuli/normal_thumbnails/18right.gif,1,0,1,0,0,8,8,17,,,92,2,9,310,1.606969024,-1.915111108,18,561.2090288,561.7090451,561.2090288,561.7090451,94.55782313,1574293375,1574293378,2.466874123,101,14,4,4,1574293373,1574293375,,,IS,1,21,F,Undergrad,2019_Nov_20_1534,AdjustExp1,3.1.5,59.82055437,Experiment
119,Stimuli/Morph119.JPG,Stimuli/Morph119.png,Stimuli/BlurLevel5/BlurEditedMorph119,Stimuli/BlurLevel5/BlurEditedMorph119.png,Stimuli/BlurLevel5/NumberedMorphs/BlurEditedMorph119.png,Stimuli/BlurLevel5/OriginalBlur/BlurEditedMorph119.png,Stimuli/BlurMorphTrio/EditedMorph119.png,None,None,1,0,1,0,0,9,9,118,,,32,2,10,294,1.016841608,-2.283863644,119,566.4923868,566.992644,566.4923868,566.992644,57.82312925,1574293381,1574293383,1.800967932,127,88,31,31,1574293378,1574293381,,,IS,1,21,F,Undergrad,2019_Nov_20_1534,AdjustExp1,3.1.5,59.82055437,Experiment
94,Stimuli/Morph94.JPG,Stimuli/Morph94.png,Stimuli/BlurLevel5/BlurEditedMorph94,Stimuli/BlurLevel5/BlurEditedMorph94.png,Stimuli/BlurLevel5/NumberedMorphs/BlurEditedMorph94.png,Stimuli/BlurLevel5/OriginalBlur/BlurEditedMorph94.png,Stimuli/BlurMorphTrio/EditedMorph94.png,020286right.gif,Stimuli/normal_thumbnails/94right.gif,1,0,1,0,0,10,10,93,,,21,2,11,328,2.12012024,-1.324798161,94,570.8941661,571.3918214,570.8941661,571.3918214,83.67346939,1574293385,1574293388,2.449285269,17,106,-12,-12,1574293383,1574293385,,,IS,1,21,F,Undergrad,2019_Nov_20_1534,AdjustExp1,3.1.5,59.82055437,Experiment
71,Stimuli/Morph71.JPG,Stimuli/Morph71.png,Stimuli/BlurLevel5/BlurEditedMorph71,Stimuli/BlurLevel5/BlurEditedMorph71.png,Stimuli/BlurLevel5/NumberedMorphs/BlurEditedMorph71.png,Stimuli/BlurLevel5/OriginalBlur/BlurEditedMorph71.png,Stimuli/BlurMorphTrio/EditedMorph71.png,020225right.gif,Stimuli/normal_thumbnails/71right.gif,1,0,1,0,0,11,11,70,,,67,2,12,177,-2.496573837,0.130839891,71,575.7633963,576.2579027,575.7633963,576.2579027,56.46258503,1574293390,1574293393,2.983270884,11,103,-32,-32,1574293388,1574293390,,,IS,1,21,F,Undergrad,2019_Nov_20_1534,AdjustExp1,3.1.5,59.82055437,Experiment
98,Stimuli/Morph98.JPG,Stimuli/Morph98.png,Stimuli/BlurLevel5/BlurEditedMorph98,Stimuli/BlurLevel5/BlurEditedMorph98.png,Stimuli/BlurLevel5/NumberedMorphs/BlurEditedMorph98.png,Stimuli/BlurLevel5/OriginalBlur/BlurEditedMorph98.png,Stimuli/BlurMorphTrio/EditedMorph98.png,020298right.gif,Stimuli/normal_thumbnails/98right.gif,1,0,1,0,0,12,12,97,,,36,2,13,212,-2.12012024,-1.324798161,98,581.6934986,582.2588161,581.6934986,582.2588161,80.95238095,1574293396,1574293403,6.817568064,66,112,-14,-14,1574293393,1574293396,,,IS,1,21,F,Undergrad,2019_Nov_20_1534,AdjustExp1,3.1.5,59.82055437,Experiment
109,Stimuli/Morph109.JPG,Stimuli/Morph109.png,Stimuli/BlurLevel5/BlurEditedMorph109,Stimuli/BlurLevel5/BlurEditedMorph109.png,Stimuli/BlurLevel5/NumberedMorphs/BlurEditedMorph109.png,Stimuli/BlurLevel5/OriginalBlur/BlurEditedMorph109.png,Stimuli/BlurMorphTrio/EditedMorph109.png,None,None,1,0,1,0,0,13,13,108,,,20,2,14,8,2.475670172,0.347932752,109,591.2755135,591.7752853,591.2755135,591.7752853,87.75510204,1574293406,1574293409,3.749845982,74,118,-9,-9,1574293403,1574293406,,,IS,1,21,F,Undergrad,2019_Nov_20_1534,AdjustExp1,3.1.5,59.82055437,Experiment
133,Stimuli/Morph133.JPG,Stimuli/Morph133.png,Stimuli/BlurLevel5/BlurEditedMorph133,Stimuli/BlurLevel5/BlurEditedMorph133.png,Stimuli/BlurLevel5/NumberedMorphs/BlurEditedMorph133.png,Stimuli/BlurLevel5/OriginalBlur/BlurEditedMorph133.png,Stimuli/BlurMorphTrio/EditedMorph133.png,None,None,1,0,1,0,0,14,14,132,,,97,2,15,330,2.165063509,-1.25,133,598.0254922,598.6089467,598.0254922,598.6089467,67.34693878,1574293413,1574293416,2.933640003,23,109,24,24,1574293410,1574293413,,,IS,1,21,F,Undergrad,2019_Nov_20_1534,AdjustExp1,3.1.5,59.82055437,Experiment
19,Stimuli/Morph19.JPG,Stimuli/Morph19.png,Stimuli/BlurLevel5/BlurEditedMorph19,Stimuli/BlurLevel5/BlurEditedMorph19.png,Stimuli/BlurLevel5/NumberedMorphs/BlurEditedMorph19.png,Stimuli/BlurLevel5/OriginalBlur/BlurEditedMorph19.png,Stimuli/BlurMorphTrio/EditedMorph19.png,010045right.gif,Stimuli/normal_thumbnails/19right.gif,1,0,1,0,0,15,15,18,,,69,2,16,144,-2.022542486,1.469463131,19,603.7920835,604.2920228,603.7920835,604.2920228,86.39455782,1574293418,1574293421,3.267035961,131,9,10,10,1574293416,1574293418,,,IS,1,21,F,Undergrad,2019_Nov_20_1534,AdjustExp1,3.1.5,59.82055437,Experiment
103,Stimuli/Morph103.JPG,Stimuli/Morph103.png,Stimuli/BlurLevel5/BlurEditedMorph103,Stimuli/BlurLevel5/BlurEditedMorph103.png,Stimuli/BlurLevel5/NumberedMorphs/BlurEditedMorph103.png,Stimuli/BlurLevel5/OriginalBlur/BlurEditedMorph103.png,Stimuli/BlurMorphTrio/EditedMorph103.png,None,None,1,0,1,0,0,16,16,102,,,73,2,17,26,2.246985116,1.095927867,103,609.3789957,609.8751637,609.3789957,609.8751637,53.7414966,1574293424,1574293426,2.482571125,84,137,-34,-34,1574293422,1574293424,,,IS,1,21,F,Undergrad,2019_Nov_20_1534,AdjustExp1,3.1.5,59.82055437,Experiment
117,Stimuli/Morph117.JPG,Stimuli/Morph117.png,Stimuli/BlurLevel5/BlurEditedMorph117,Stimuli/BlurLevel5/BlurEditedMorph117.png,Stimuli/BlurLevel5/NumberedMorphs/BlurEditedMorph117.png,Stimuli/BlurLevel5/OriginalBlur/BlurEditedMorph117.png,Stimuli/BlurMorphTrio/EditedMorph117.png,None,None,1,0,1,0,0,17,17,116,,,76,2,18,122,-1.324798161,2.12012024,117,614.0980901,614.6413749,614.0980901,614.6413749,85.03401361,1574293428,1574293431,2.885060072,30,106,11,11,1574293426,1574293428,,,IS,1,21,F,Undergrad,2019_Nov_20_1534,AdjustExp1,3.1.5,59.82055437,Experiment
106,Stimuli/Morph106.JPG,Stimuli/Morph106.png,Stimuli/BlurLevel5/BlurEditedMorph106,Stimuli/BlurLevel5/BlurEditedMorph106.png,Stimuli/BlurLevel5/NumberedMorphs/BlurEditedMorph106.png,Stimuli/BlurLevel5/OriginalBlur/BlurEditedMorph106.png,Stimuli/BlurMorphTrio/EditedMorph106.png,None,None,1,0,1,0,0,18,18,105,,,71,2,19,350,2.462019383,-0.434120444,106,619.6585285,620.1587193,619.6585285,620.1587193,87.75510204,1574293434,1574293436,1.666114807,129,115,-9,-9,1574293432,1574293434,,,IS,1,21,F,Undergrad,2019_Nov_20_1534,AdjustExp1,3.1.5,59.82055437,Experiment
142,Stimuli/Morph142.JPG,Stimuli/Morph142.png,Stimuli/BlurLevel5/BlurEditedMorph142,Stimuli/BlurLevel5/BlurEditedMorph142.png,Stimuli/BlurLevel5/NumberedMorphs/BlurEditedMorph142.png,Stimuli/BlurLevel5/OriginalBlur/BlurEditedMorph142.png,Stimuli/BlurMorphTrio/EditedMorph142.png,None,None,1,0,1,0,0,19,19,141,,,24,2,20,235,-1.433941091,-2.047880111,142,624.0917516,624.591847,624.0917516,624.591847,87.75510204,1574293438,1574293444,5.416104078,63,133,9,9,1574293436,1574293438,,,IS,1,21,F,Undergrad,2019_Nov_20_1534,AdjustExp1,3.1.5,59.82055437,Experiment
83,Stimuli/Morph83.JPG,Stimuli/Morph83.png,Stimuli/BlurLevel5/BlurEditedMorph83,Stimuli/BlurLevel5/BlurEditedMorph83.png,Stimuli/BlurLevel5/NumberedMorphs/BlurEditedMorph83.png,Stimuli/BlurLevel5/OriginalBlur/BlurEditedMorph83.png,Stimuli/BlurMorphTrio/EditedMorph83.png,020259right.gif,Stimuli/normal_thumbnails/83right.gif,1,0,1,0,0,20,20,82,,,9,2,21,87,0.130839891,2.496573837,83,631.8919418,632.4082025,631.8919418,632.4082025,49.65986395,1574293446,1574293449,3.332993984,98,120,-37,-37,1574293444,1574293446,,,IS,1,21,F,Undergrad,2019_Nov_20_1534,AdjustExp1,3.1.5,59.82055437,Experiment
143,Stimuli/Morph143.JPG,Stimuli/Morph143.png,Stimuli/BlurLevel5/BlurEditedMorph143,Stimuli/BlurLevel5/BlurEditedMorph143.png,Stimuli/BlurLevel5/NumberedMorphs/BlurEditedMorph143.png,Stimuli/BlurLevel5/OriginalBlur/BlurEditedMorph143.png,Stimuli/BlurMorphTrio/EditedMorph143.png,None,None,1,0,1,0,0,21,21,142,,,22,2,22,109,-0.813920386,2.363796439,143,637.8251342,638.3250458,637.8251342,638.3250458,91.83673469,1574293452,1574293454,1.783718109,136,2,141,-6,1574293450,1574293452,,,IS,1,21,F,Undergrad,2019_Nov_20_1534,AdjustExp1,3.1.5,59.82055437,Experiment
104,Stimuli/Morph104.JPG,Stimuli/Morph104.png,Stimuli/BlurLevel5/BlurEditedMorph104,Stimuli/BlurLevel5/BlurEditedMorph104.png,Stimuli/BlurLevel5/NumberedMorphs/BlurEditedMorph104.png,Stimuli/BlurLevel5/OriginalBlur/BlurEditedMorph104.png,Stimuli/BlurMorphTrio/EditedMorph104.png,None,None,1,0,1,0,0,22,22,103,,,51,2,23,324,2.022542486,-1.469463131,104,642.4251669,642.9248098,642.4251669,642.9248098,90.47619048,1574293457,1574293460,2.86620903,13,111,-7,-7,1574293454,1574293457,,,IS,1,21,F,Undergrad,2019_Nov_20_1534,AdjustExp1,3.1.5,59.82055437,Experiment
127,Stimuli/Morph127.JPG,Stimuli/Morph127.png,Stimuli/BlurLevel5/BlurEditedMorph127,Stimuli/BlurLevel5/BlurEditedMorph127.png,Stimuli/BlurLevel5/NumberedMorphs/BlurEditedMorph127.png,Stimuli/BlurLevel5/OriginalBlur/BlurEditedMorph127.png,Stimuli/BlurMorphTrio/EditedMorph127.png,None,None,1,0,1,0,0,23,23,126,,,42,2,24,169,-2.454067959,0.477022488,127,648.2586247,648.8079894,648.2586247,648.8079894,78.23129252,1574293463,1574293465,2.233556032,24,143,-16,-16,1574293460,1574293463,,,IS,1,21,F,Undergrad,2019_Nov_20_1534,AdjustExp1,3.1.5,59.82055437,Experiment
85,Stimuli/Morph85.JPG,Stimuli/Morph85.png,Stimuli/BlurLevel5/BlurEditedMorph85,Stimuli/BlurLevel5/BlurEditedMorph85.png,Stimuli/BlurLevel5/NumberedMorphs/BlurEditedMorph85.png,Stimuli/BlurLevel5/OriginalBlur/BlurEditedMorph85.png,Stimuli/BlurMorphTrio/EditedMorph85.png,020264right.gif,Stimuli/normal_thumbnails/85right.gif,1,0,1,0,0,24,24,84,,,88,2,25,317,1.828384254,-1.7049959,85,653.2916691,653.7913651,653.2916691,653.7913651,21.08843537,1574293468,1574293471,3.783284187,96,143,-58,-58,1574293465,1574293468,,,IS,1,21,F,Undergrad,2019_Nov_20_1534,AdjustExp1,3.1.5,59.82055437,Experiment
114,Stimuli/Morph114.JPG,Stimuli/Morph114.png,Stimuli/BlurLevel5/BlurEditedMorph114,Stimuli/BlurLevel5/BlurEditedMorph114.png,Stimuli/BlurLevel5/NumberedMorphs/BlurEditedMorph114.png,Stimuli/BlurLevel5/OriginalBlur/BlurEditedMorph114.png,Stimuli/BlurMorphTrio/EditedMorph114.png,None,None,1,0,1,0,0,25,25,113,,,98,2,26,315,1.767766953,-1.767766953,114,660.2247839,660.924802,660.2247839,660.924802,85.03401361,1574293475,1574293477,2.799672842,72,103,11,11,1574293472,1574293475,,,IS,1,21,F,Undergrad,2019_Nov_20_1534,AdjustExp1,3.1.5,59.82055437,Experiment
145,Stimuli/Morph145.JPG,Stimuli/Morph145.png,Stimuli/BlurLevel5/BlurEditedMorph145,Stimuli/BlurLevel5/BlurEditedMorph145.png,Stimuli/BlurLevel5/NumberedMorphs/BlurEditedMorph145.png,Stimuli/BlurLevel5/OriginalBlur/BlurEditedMorph145.png,Stimuli/BlurMorphTrio/EditedMorph145.png,None,None,1,0,1,0,0,26,26,144,,,14,2,27,265,-0.217889357,-2.490486745,145,665.7261128,666.2246219,665.7261128,666.2246219,97.27891156,1574293480,1574293483,2.900493145,35,147,-2,-2,1574293478,1574293480,,,IS,1,21,F,Undergrad,2019_Nov_20_1534,AdjustExp1,3.1.5,59.82055437,Experiment
24,Stimuli/Morph24.JPG,Stimuli/Morph24.png,Stimuli/BlurLevel5/BlurEditedMorph24,Stimuli/BlurLevel5/BlurEditedMorph24.png,Stimuli/BlurLevel5/NumberedMorphs/BlurEditedMorph24.png,Stimuli/BlurLevel5/OriginalBlur/BlurEditedMorph24.png,Stimuli/BlurMorphTrio/EditedMorph24.png,010068right.gif,Stimuli/normal_thumbnails/24right.gif,1,0,1,0,0,27,27,23,,,15,2,28,262,-0.347932752,-2.475670172,24,670.9459414,671.4405171,670.9459414,671.4405171,85.03401361,1574293485,1574293489,3.650352955,26,35,-11,-11,1574293483,1574293485,,,IS,1,21,F,Undergrad,2019_Nov_20_1534,AdjustExp1,3.1.5,59.82055437,Experiment
120,Stimuli/Morph120.JPG,Stimuli/Morph120.png,Stimuli/BlurLevel5/BlurEditedMorph120,Stimuli/BlurLevel5/BlurEditedMorph120.png,Stimuli/BlurLevel5/NumberedMorphs/BlurEditedMorph120.png,Stimuli/BlurLevel5/OriginalBlur/BlurEditedMorph120.png,Stimuli/BlurMorphTrio/EditedMorph120.png,None,None,1,0,1,0,0,28,28,119,,,83,2,29,194,-2.425739316,-0.604804739,120,677.1909214,677.7407068,677.1909214,677.7407068,75.51020408,1574293491,1574293493,1.81671381,130,138,-18,-18,1574293489,1574293491,,,IS,1,21,F,Undergrad,2019_Nov_20_1534,AdjustExp1,3.1.5,59.82055437,Experiment
22,Stimuli/Morph22.JPG,Stimuli/Morph22.png,Stimuli/BlurLevel5/BlurEditedMorph22,Stimuli/BlurLevel5/BlurEditedMorph22.png,Stimuli/BlurLevel5/NumberedMorphs/BlurEditedMorph22.png,Stimuli/BlurLevel5/OriginalBlur/BlurEditedMorph22.png,Stimuli/BlurMorphTrio/EditedMorph22.png,010055right.gif,Stimuli/normal_thumbnails/22right.gif,1,0,1,0,0,29,29,21,,,57,2,30,2,2.498477068,0.087248742,22,681.9572055,682.4575582,681.9572055,682.4575582,98.63945578,1574293496,1574293501,4.700137854,87,23,-1,-1,1574293494,1574293496,,,IS,1,21,F,Undergrad,2019_Nov_20_1534,AdjustExp1,3.1.5,59.82055437,Experiment
132,Stimuli/Morph132.JPG,Stimuli/Morph132.png,Stimuli/BlurLevel5/BlurEditedMorph132,Stimuli/BlurLevel5/BlurEditedMorph132.png,Stimuli/BlurLevel5/NumberedMorphs/BlurEditedMorph132.png,Stimuli/BlurLevel5/OriginalBlur/BlurEditedMorph132.png,Stimuli/BlurMorphTrio/EditedMorph132.png,None,None,1,0,1,0,0,30,30,131,,,90,2,31,292,0.936516484,-2.317959636,132,689.0408676,689.5741445,689.0408676,689.5741445,93.19727891,1574293503,1574293504,0.883463144,137,137,-5,-5,1574293501,1574293503,,,IS,1,21,F,Undergrad,2019_Nov_20_1534,AdjustExp1,3.1.5,59.82055437,Experiment
35,Stimuli/Morph35.JPG,Stimuli/Morph35.png,Stimuli/BlurLevel5/BlurEditedMorph35,Stimuli/BlurLevel5/BlurEditedMorph35.png,Stimuli/BlurLevel5/NumberedMorphs/BlurEditedMorph35.png,Stimuli/BlurLevel5/OriginalBlur/BlurEditedMorph35.png,Stimuli/BlurMorphTrio/EditedMorph35.png,010094right.gif,Stimuli/normal_thumbnails/35right.gif,1,0,1,0,0,31,31,34,,,33,2,32,148,-2.12012024,1.324798161,35,692.6968737,693.1904631,692.6968737,693.1904631,95.91836735,1574293507,1574293509,2.200292826,10,32,3,3,1574293505,1574293507,,,IS,1,21,F,Undergrad,2019_Nov_20_1534,AdjustExp1,3.1.5,59.82055437,Experiment
80,Stimuli/Morph80.JPG,Stimuli/Morph80.png,Stimuli/BlurLevel5/BlurEditedMorph80,Stimuli/BlurLevel5/BlurEditedMorph80.png,Stimuli/BlurLevel5/NumberedMorphs/BlurEditedMorph80.png,Stimuli/BlurLevel5/OriginalBlur/BlurEditedMorph80.png,Stimuli/BlurMorphTrio/EditedMorph80.png,020240right.gif,Stimuli/normal_thumbnails/80right.gif,1,0,1,0,0,32,32,79,,,4,2,33,58,1.324798161,2.12012024,80,697.8917467,698.4908521,697.8917467,698.4908521,95.91836735,1574293512,1574293516,3.416515827,45,83,-3,-3,1574293510,1574293512,,,IS,1,21,F,Undergrad,2019_Nov_20_1534,AdjustExp1,3.1.5,59.82055437,Experiment
51,Stimuli/Morph51.JPG,Stimuli/Morph51.png,Stimuli/BlurLevel5/BlurEditedMorph51,Stimuli/BlurLevel5/BlurEditedMorph51.png,Stimuli/BlurLevel5/NumberedMorphs/BlurEditedMorph51.png,Stimuli/BlurLevel5/OriginalBlur/BlurEditedMorph51.png,Stimuli/BlurMorphTrio/EditedMorph51.png,010146right.gif,Stimuli/normal_thumbnails/51right.gif,1,0,1,0,0,33,33,50,,,20,2,34,276,0.261321158,-2.486304738,51,704.0242531,704.5412715,704.0242531,704.5412715,98.63945578,1574293518,1574293520,2.032431841,101,50,1,1,1574293516,1574293518,,,IS,1,21,F,Undergrad,2019_Nov_20_1534,AdjustExp1,3.1.5,59.82055437,Experiment
62,Stimuli/Morph62.JPG,Stimuli/Morph62.png,Stimuli/BlurLevel5/BlurEditedMorph62,Stimuli/BlurLevel5/BlurEditedMorph62.png,Stimuli/BlurLevel5/NumberedMorphs/BlurEditedMorph62.png,Stimuli/BlurLevel5/OriginalBlur/BlurEditedMorph62.png,Stimuli/BlurMorphTrio/EditedMorph62.png,020205right.gif,Stimuli/normal_thumbnails/62right.gif,1,0,1,0,0,34,34,61,,,62,2,35,164,-2.40315424,0.68909339,62,708.8905643,709.390217,708.8905643,709.390217,89.11564626,1574293523,1574293527,3.316655159,130,54,8,8,1574293521,1574293523,,,IS,1,21,F,Undergrad,2019_Nov_20_1534,AdjustExp1,3.1.5,59.82055437,Experiment
33,Stimuli/Morph33.JPG,Stimuli/Morph33.png,Stimuli/BlurLevel5/BlurEditedMorph33,Stimuli/BlurLevel5/BlurEditedMorph33.png,Stimuli/BlurLevel5/NumberedMorphs/BlurEditedMorph33.png,Stimuli/BlurLevel5/OriginalBlur/BlurEditedMorph33.png,Stimuli/BlurMorphTrio/EditedMorph33.png,010089right.gif,Stimuli/normal_thumbnails/33right.gif,1,0,1,0,0,35,35,32,,,60,2,36,2,2.498477068,0.087248742,33,715.0414222,715.5571685,715.0414222,715.5571685,94.55782313,1574293529,1574293532,2.899444818,49,29,4,4,1574293527,1574293529,,,IS,1,21,F,Undergrad,2019_Nov_20_1534,AdjustExp1,3.1.5,59.82055437,Experiment
25,Stimuli/Morph25.JPG,Stimuli/Morph25.png,Stimuli/BlurLevel5/BlurEditedMorph25,Stimuli/BlurLevel5/BlurEditedMorph25.png,Stimuli/BlurLevel5/NumberedMorphs/BlurEditedMorph25.png,Stimuli/BlurLevel5/OriginalBlur/BlurEditedMorph25.png,Stimuli/BlurMorphTrio/EditedMorph25.png,010069right.gif,Stimuli/normal_thumbnails/25right.gif,1,0,1,0,0,36,36,24,,,84,2,37,301,1.287595187,-2.142918252,25,720.5080323,721.0070142,720.5080323,721.0070142,86.39455782,1574293535,1574293537,2.049021959,57,15,10,10,1574293532,1574293535,,,IS,1,21,F,Undergrad,2019_Nov_20_1534,AdjustExp1,3.1.5,59.82055437,Experiment
147,Stimuli/Morph147.JPG,Stimuli/Morph147.png,Stimuli/BlurLevel5/BlurEditedMorph147,Stimuli/BlurLevel5/BlurEditedMorph147.png,Stimuli/BlurLevel5/NumberedMorphs/BlurEditedMorph147.png,Stimuli/BlurLevel5/OriginalBlur/BlurEditedMorph147.png,Stimuli/BlurMorphTrio/EditedMorph147.png,None,None,1,0,1,0,0,37,37,146,,,22,2,38,61,1.212024051,2.186549268,147,724.8570553,725.3573546,724.8570553,725.3573546,94.55782313,1574293539,1574293540,1.233952999,13,143,4,4,1574293537,1574293539,,,IS,1,21,F,Undergrad,2019_Nov_20_1534,AdjustExp1,3.1.5,59.82055437,Experiment
76,Stimuli/Morph76.JPG,Stimuli/Morph76.png,Stimuli/BlurLevel5/BlurEditedMorph76,Stimuli/BlurLevel5/BlurEditedMorph76.png,Stimuli/BlurLevel5/NumberedMorphs/BlurEditedMorph76.png,Stimuli/BlurLevel5/OriginalBlur/BlurEditedMorph76.png,Stimuli/BlurMorphTrio/EditedMorph76.png,020234right.gif,Stimuli/normal_thumbnails/76right.gif,1,0,1,0,0,38,38,75,,,36,2,39,126,-1.469463131,2.022542486,76,728.5571583,729.0563726,728.5571583,729.0563726,90.47619048,1574293543,1574293545,2.600726128,109,83,-7,-7,1574293541,1574293543,,,IS,1,21,F,Undergrad,2019_Nov_20_1534,AdjustExp1,3.1.5,59.82055437,Experiment
20,Stimuli/Morph20.JPG,Stimuli/Morph20.png,Stimuli/BlurLevel5/BlurEditedMorph20,Stimuli/BlurLevel5/BlurEditedMorph20.png,Stimuli/BlurLevel5/NumberedMorphs/BlurEditedMorph20.png,Stimuli/BlurLevel5/OriginalBlur/BlurEditedMorph20.png,Stimuli/BlurMorphTrio/EditedMorph20.png,010046right.gif,Stimuli/normal_thumbnails/20right.gif,1,0,1,0,0,39,39,19,,,80,2,40,117,-1.134976249,2.22751631,20,733.7954262,734.2898294,733.7954262,734.2898294,89.11564626,1574293548,1574293551,3.115877867,121,12,8,8,1574293546,1574293548,,,IS,1,21,F,Undergrad,2019_Nov_20_1534,AdjustExp1,3.1.5,59.82055437,Experiment
110,Stimuli/Morph110.JPG,Stimuli/Morph110.png,Stimuli/BlurLevel5/BlurEditedMorph110,Stimuli/BlurLevel5/BlurEditedMorph110.png,Stimuli/BlurLevel5/NumberedMorphs/BlurEditedMorph110.png,Stimuli/BlurLevel5/OriginalBlur/BlurEditedMorph110.png,Stimuli/BlurMorphTrio/EditedMorph110.png,None,None,1,0,1,0,0,40,40,109,,,82,2,41,350,2.462019383,-0.434120444,110,739.5397273,740.123421,739.5397273,740.123421,98.63945578,1574293554,1574293556,2.167305946,95,109,1,1,1574293551,1574293554,,,IS,1,21,F,Undergrad,2019_Nov_20_1534,AdjustExp1,3.1.5,59.82055437,Experiment
23,Stimuli/Morph23.JPG,Stimuli/Morph23.png,Stimuli/BlurLevel5/BlurEditedMorph23,Stimuli/BlurLevel5/BlurEditedMorph23.png,Stimuli/BlurLevel5/NumberedMorphs/BlurEditedMorph23.png,Stimuli/BlurLevel5/OriginalBlur/BlurEditedMorph23.png,Stimuli/BlurMorphTrio/EditedMorph23.png,010063right.gif,Stimuli/normal_thumbnails/23right.gif,1,0,1,0,0,41,41,22,,,89,2,42,195,-2.414814566,-0.647047613,23,744.506724,745.1065517,744.506724,745.1065517,86.39455782,1574293559,1574293562,3.433634758,88,13,10,10,1574293556,1574293559,,,IS,1,21,F,Undergrad,2019_Nov_20_1534,AdjustExp1,3.1.5,59.82055437,Experiment
11,Stimuli/Morph11.JPG,Stimuli/Morph11.png,Stimuli/BlurLevel5/BlurEditedMorph11,Stimuli/BlurLevel5/BlurEditedMorph11.png,Stimuli/BlurLevel5/NumberedMorphs/BlurEditedMorph11.png,Stimuli/BlurLevel5/OriginalBlur/BlurEditedMorph11.png,Stimuli/BlurMorphTrio/EditedMorph11.png,010024right.gif,Stimuli/normal_thumbnails/11right.gif,1,0,1,0,0,42,42,10,,,32,2,43,227,-1.7049959,-1.828384254,11,750.8258013,751.3232834,750.8258013,751.3232834,78.23129252,1574293565,1574293569,3.349152803,87,27,-16,-16,1574293563,1574293565,,,IS,1,21,F,Undergrad,2019_Nov_20_1534,AdjustExp1,3.1.5,59.82055437,Experiment
48,Stimuli/Morph48.JPG,Stimuli/Morph48.png,Stimuli/BlurLevel5/BlurEditedMorph48,Stimuli/BlurLevel5/BlurEditedMorph48.png,Stimuli/BlurLevel5/NumberedMorphs/BlurEditedMorph48.png,Stimuli/BlurLevel5/OriginalBlur/BlurEditedMorph48.png,Stimuli/BlurMorphTrio/EditedMorph48.png,010131right.gif,Stimuli/normal_thumbnails/48right.gif,1,0,1,0,0,43,43,47,,,94,2,44,193,-2.435925162,-0.562377636,48,757.3565596,757.8733547,757.3565596,757.8733547,98.63945578,1574293572,1574293574,2.18419528,13,49,-1,-1,1574293569,1574293572,,,IS,1,21,F,Undergrad,2019_Nov_20_1534,AdjustExp1,3.1.5,59.82055437,Experiment
107,Stimuli/Morph107.JPG,Stimuli/Morph107.png,Stimuli/BlurLevel5/BlurEditedMorph107,Stimuli/BlurLevel5/BlurEditedMorph107.png,Stimuli/BlurLevel5/NumberedMorphs/BlurEditedMorph107.png,Stimuli/BlurLevel5/OriginalBlur/BlurEditedMorph107.png,Stimuli/BlurMorphTrio/EditedMorph107.png,None,None,1,0,1,0,0,44,44,106,,,97,2,45,117,-1.134976249,2.22751631,107,762.4399882,762.940136,762.4399882,762.940136,34.69387755,1574293577,1574293578,1.500449181,29,8,99,-48,1574293574,1574293577,,,IS,1,21,F,Undergrad,2019_Nov_20_1534,AdjustExp1,3.1.5,59.82055437,Experiment
140,Stimuli/Morph140.JPG,Stimuli/Morph140.png,Stimuli/BlurLevel5/BlurEditedMorph140,Stimuli/BlurLevel5/BlurEditedMorph140.png,Stimuli/BlurLevel5/NumberedMorphs/BlurEditedMorph140.png,Stimuli/BlurLevel5/OriginalBlur/BlurEditedMorph140.png,Stimuli/BlurMorphTrio/EditedMorph140.png,None,None,1,0,1,0,0,45,45,139,,,3,2,46,74,0.68909339,2.40315424,140,766.7562218,767.2565188,766.7562218,767.2565188,82.31292517,1574293581,1574293584,2.600375891,98,127,13,13,1574293578,1574293581,,,IS,1,21,F,Undergrad,2019_Nov_20_1534,AdjustExp1,3.1.5,59.82055437,Experiment
112,Stimuli/Morph112.JPG,Stimuli/Morph112.png,Stimuli/BlurLevel5/BlurEditedMorph112,Stimuli/BlurLevel5/BlurEditedMorph112.png,Stimuli/BlurLevel5/NumberedMorphs/BlurEditedMorph112.png,Stimuli/BlurLevel5/OriginalBlur/BlurEditedMorph112.png,Stimuli/BlurMorphTrio/EditedMorph112.png,None,None,1,0,1,0,0,46,46,111,,,50,2,47,348,2.445369002,-0.519779227,112,771.773494,772.2901002,771.773494,772.2901002,93.19727891,1574293586,1574293588,1.866730928,91,117,-5,-5,1574293584,1574293586,,,IS,1,21,F,Undergrad,2019_Nov_20_1534,AdjustExp1,3.1.5,59.82055437,Experiment
1,Stimuli/Morph1.JPG,Stimuli/Morph1.png,Stimuli/BlurLevel5/BlurEditedMorph1,Stimuli/BlurLevel5/BlurEditedMorph1.png,Stimuli/BlurLevel5/NumberedMorphs/BlurEditedMorph1.png,Stimuli/BlurLevel5/OriginalBlur/BlurEditedMorph1.png,Stimuli/BlurMorphTrio/EditedMorph1.png,010003right.gif,Stimuli/normal_thumbnails/1right.gif,1,0,1,0,0,47,47,0,,,87,2,48,193,-2.435925162,-0.562377636,1,776.5232192,777.1393149,776.5232192,777.1393149,78.23129252,1574293591,1574293592,1.233785152,117,132,-131,16,1574293588,1574293591,,,IS,1,21,F,Undergrad,2019_Nov_20_1534,AdjustExp1,3.1.5,59.82055437,Experiment
95,Stimuli/Morph95.JPG,Stimuli/Morph95.png,Stimuli/BlurLevel5/BlurEditedMorph95,Stimuli/BlurLevel5/BlurEditedMorph95.png,Stimuli/BlurLevel5/NumberedMorphs/BlurEditedMorph95.png,Stimuli/BlurLevel5/OriginalBlur/BlurEditedMorph95.png,Stimuli/BlurMorphTrio/EditedMorph95.png,020287right.gif,Stimuli/normal_thumbnails/95right.gif,1,0,1,0,0,48,48,94,,,34,2,49,230,-1.606969024,-1.915111108,95,780.8087682,781.422976,780.8087682,781.422976,72.78911565,1574293595,1574293596,1.099751949,139,115,-20,-20,1574293592,1574293595,,,IS,1,21,F,Undergrad,2019_Nov_20_1534,AdjustExp1,3.1.5,59.82055437,Experiment
135,Stimuli/Morph135.JPG,Stimuli/Morph135.png,Stimuli/BlurLevel5/BlurEditedMorph135,Stimuli/BlurLevel5/BlurEditedMorph135.png,Stimuli/BlurLevel5/NumberedMorphs/BlurEditedMorph135.png,Stimuli/BlurLevel5/OriginalBlur/BlurEditedMorph135.png,Stimuli/BlurMorphTrio/EditedMorph135.png,None,None,1,0,1,0,0,49,49,134,,,59,2,50,300,1.25,-2.165063509,135,784.2889847,784.7886634,784.2889847,784.7886634,89.11564626,1574293599,1574293600,1.333222866,122,127,8,8,1574293597,1574293599,,,IS,1,21,F,Undergrad,2019_Nov_20_1534,AdjustExp1,3.1.5,59.82055437,Experiment
64,Stimuli/Morph64.JPG,Stimuli/Morph64.png,Stimuli/BlurLevel5/BlurEditedMorph64,Stimuli/BlurLevel5/BlurEditedMorph64.png,Stimuli/BlurLevel5/NumberedMorphs/BlurEditedMorph64.png,Stimuli/BlurLevel5/OriginalBlur/BlurEditedMorph64.png,Stimuli/BlurMorphTrio/EditedMorph64.png,020208right.gif,Stimuli/normal_thumbnails/64right.gif,1,0,1,0,0,50,50,63,,,20,2,51,196,-2.40315424,-0.68909339,64,788.0725509,788.5729045,788.0725509,788.5729045,93.19727891,1574293602,1574293605,2.582863092,53,59,5,5,1574293600,1574293602,,,IS,1,21,F,Undergrad,2019_Nov_20_1534,AdjustExp1,3.1.5,59.82055437,Experiment
63,Stimuli/Morph63.JPG,Stimuli/Morph63.png,Stimuli/BlurLevel5/BlurEditedMorph63,Stimuli/BlurLevel5/BlurEditedMorph63.png,Stimuli/BlurLevel5/NumberedMorphs/BlurEditedMorph63.png,Stimuli/BlurLevel5/OriginalBlur/BlurEditedMorph63.png,Stimuli/BlurMorphTrio/EditedMorph63.png,020206right.gif,Stimuli/normal_thumbnails/63right.gif,1,0,1,0,0,51,51,62,,,99,2,52,283,0.562377636,-2.435925162,63,792.9740324,793.5058095,792.9740324,793.5058095,95.91836735,1574293607,1574293609,1.185566187,71,60,3,3,1574293605,1574293607,,,IS,1,21,F,Undergrad,2019_Nov_20_1534,AdjustExp1,3.1.5,59.82055437,Experiment
72,Stimuli/Morph72.JPG,Stimuli/Morph72.png,Stimuli/BlurLevel5/BlurEditedMorph72,Stimuli/BlurLevel5/BlurEditedMorph72.png,Stimuli/BlurLevel5/NumberedMorphs/BlurEditedMorph72.png,Stimuli/BlurLevel5/OriginalBlur/BlurEditedMorph72.png,Stimuli/BlurMorphTrio/EditedMorph72.png,020227right.gif,Stimuli/normal_thumbnails/72right.gif,1,0,1,0,0,52,52,71,,,64,2,53,64,1.095927867,2.246985116,72,796.8400478,797.3559953,796.8400478,797.3559953,98.63945578,1574293611,1574293613,2.049230099,74,73,-1,-1,1574293609,1574293611,,,IS,1,21,F,Undergrad,2019_Nov_20_1534,AdjustExp1,3.1.5,59.82055437,Experiment
73,Stimuli/Morph73.JPG,Stimuli/Morph73.png,Stimuli/BlurLevel5/BlurEditedMorph73,Stimuli/BlurLevel5/BlurEditedMorph73.png,Stimuli/BlurLevel5/NumberedMorphs/BlurEditedMorph73.png,Stimuli/BlurLevel5/OriginalBlur/BlurEditedMorph73.png,Stimuli/BlurMorphTrio/EditedMorph73.png,020230right.gif,Stimuli/normal_thumbnails/73right.gif,1,0,1,0,0,53,53,72,,,7,2,54,192,-2.445369002,-0.519779227,73,801.805734,802.4218458,801.805734,802.4218458,95.91836735,1574293616,1574293620,3.368083,137,70,3,3,1574293614,1574293616,,,IS,1,21,F,Undergrad,2019_Nov_20_1534,AdjustExp1,3.1.5,59.82055437,Experiment
56,Stimuli/Morph56.JPG,Stimuli/Morph56.png,Stimuli/BlurLevel5/BlurEditedMorph56,Stimuli/BlurLevel5/BlurEditedMorph56.png,Stimuli/BlurLevel5/NumberedMorphs/BlurEditedMorph56.png,Stimuli/BlurLevel5/OriginalBlur/BlurEditedMorph56.png,Stimuli/BlurMorphTrio/EditedMorph56.png,010157right.gif,Stimuli/normal_thumbnails/56right.gif,1,0,1,0,0,54,54,55,,,54,2,55,329,2.142918252,-1.287595187,56,807.8232212,808.3224178,807.8232212,808.3224178,98.63945578,1574293622,1574293623,1.09963274,81,57,-1,-1,1574293620,1574293622,,,IS,1,21,F,Undergrad,2019_Nov_20_1534,AdjustExp1,3.1.5,59.82055437,Experiment
36,Stimuli/Morph36.JPG,Stimuli/Morph36.png,Stimuli/BlurLevel5/BlurEditedMorph36,Stimuli/BlurLevel5/BlurEditedMorph36.png,Stimuli/BlurLevel5/NumberedMorphs/BlurEditedMorph36.png,Stimuli/BlurLevel5/OriginalBlur/BlurEditedMorph36.png,Stimuli/BlurMorphTrio/EditedMorph36.png,010095right.gif,Stimuli/normal_thumbnails/36right.gif,1,0,1,0,0,55,55,35,,,36,2,56,139,-1.886773951,1.640147572,36,811.776116,812.273093,811.776116,812.273093,87.75510204,1574293626,1574293630,3.665465117,143,45,-9,-9,1574293623,1574293626,,,IS,1,21,F,Undergrad,2019_Nov_20_1534,AdjustExp1,3.1.5,59.82055437,Experiment
10,Stimuli/Morph10.JPG,Stimuli/Morph10.png,Stimuli/BlurLevel5/BlurEditedMorph10,Stimuli/BlurLevel5/BlurEditedMorph10.png,Stimuli/BlurLevel5/NumberedMorphs/BlurEditedMorph10.png,Stimuli/BlurLevel5/OriginalBlur/BlurEditedMorph10.png,Stimuli/BlurMorphTrio/EditedMorph10.png,010016right.gif,Stimuli/normal_thumbnails/10right.gif,1,0,1,0,0,56,56,9,,,31,2,57,137,-1.828384254,1.7049959,10,818.0453775,818.6058252,818.0453775,818.6058252,100,1574293632,1574293635,2.266238928,107,10,0,0,1574293630,1574293632,,,IS,1,21,F,Undergrad,2019_Nov_20_1534,AdjustExp1,3.1.5,59.82055437,Experiment
17,Stimuli/Morph17.JPG,Stimuli/Morph17.png,Stimuli/BlurLevel5/BlurEditedMorph17,Stimuli/BlurLevel5/BlurEditedMorph17.png,Stimuli/BlurLevel5/NumberedMorphs/BlurEditedMorph17.png,Stimuli/BlurLevel5/OriginalBlur/BlurEditedMorph17.png,Stimuli/BlurMorphTrio/EditedMorph17.png,010036right.gif,Stimuli/normal_thumbnails/17right.gif,1,0,1,0,0,57,57,16,,,38,2,58,237,-1.361597588,-2.09667642,17,823.3115956,823.8391296,823.3115956,823.8391296,94.55782313,1574293638,1574293640,2.499431372,111,13,4,4,1574293635,1574293638,,,IS,1,21,F,Undergrad,2019_Nov_20_1534,AdjustExp1,3.1.5,59.82055437,Experiment
121,Stimuli/Morph121.JPG,Stimuli/Morph121.png,Stimuli/BlurLevel5/BlurEditedMorph121,Stimuli/BlurLevel5/BlurEditedMorph121.png,Stimuli/BlurLevel5/NumberedMorphs/BlurEditedMorph121.png,Stimuli/BlurLevel5/OriginalBlur/BlurEditedMorph121.png,Stimuli/BlurMorphTrio/EditedMorph121.png,None,None,1,0,1,0,0,58,58,120,,,50,2,59,304,1.397982259,-2.072593931,121,828.6618961,829.1556727,828.6618961,829.1556727,72.78911565,1574293643,1574293645,1.617882729,8,141,-20,-20,1574293640,1574293643,,,IS,1,21,F,Undergrad,2019_Nov_20_1534,AdjustExp1,3.1.5,59.82055437,Experiment
31,Stimuli/Morph31.JPG,Stimuli/Morph31.png,Stimuli/BlurLevel5/BlurEditedMorph31,Stimuli/BlurLevel5/BlurEditedMorph31.png,Stimuli/BlurLevel5/NumberedMorphs/BlurEditedMorph31.png,Stimuli/BlurLevel5/OriginalBlur/BlurEditedMorph31.png,Stimuli/BlurMorphTrio/EditedMorph31.png,010079right.gif,Stimuli/normal_thumbnails/31right.gif,1,0,1,0,0,59,59,30,,,85,2,60,207,-2.22751631,-1.134976249,31,832.8229283,833.3224877,832.8229283,833.3224877,79.59183673,1574293647,1574293649,1.983626127,13,46,-15,-15,1574293645,1574293647,,,IS,1,21,F,Undergrad,2019_Nov_20_1534,AdjustExp1,3.1.5,59.82055437,Experiment
130,Stimuli/Morph130.JPG,Stimuli/Morph130.png,Stimuli/BlurLevel5/BlurEditedMorph130,Stimuli/BlurLevel5/BlurEditedMorph130.png,Stimuli/BlurLevel5/NumberedMorphs/BlurEditedMorph130.png,Stimuli/BlurLevel5/OriginalBlur/BlurEditedMorph130.png,Stimuli/BlurMorphTrio/EditedMorph130.png,None,None,1,0,1,0,0,60,60,129,,,67,2,61,120,-1.25,2.165063509,130,837.2898439,837.7889886,837.2898439,837.7889886,82.31292517,1574293652,1574293653,1.617068768,34,143,-13,-13,1574293649,1574293652,,,IS,1,21,F,Undergrad,2019_Nov_20_1534,AdjustExp1,3.1.5,59.82055437,Experiment
75,Stimuli/Morph75.JPG,Stimuli/Morph75.png,Stimuli/BlurLevel5/BlurEditedMorph75,Stimuli/BlurLevel5/BlurEditedMorph75.png,Stimuli/BlurLevel5/NumberedMorphs/BlurEditedMorph75.png,Stimuli/BlurLevel5/OriginalBlur/BlurEditedMorph75.png,Stimuli/BlurMorphTrio/EditedMorph75.png,020233right.gif,Stimuli/normal_thumbnails/75right.gif,1,0,1,0,0,61,61,74,,,52,2,62,237,-1.361597588,-2.09667642,75,841.438659,841.9391983,841.438659,841.9391983,76.8707483,1574293656,1574293659,2.99946332,122,58,17,17,1574293654,1574293656,,,IS,1,21,F,Undergrad,2019_Nov_20_1534,AdjustExp1,3.1.5,59.82055437,Experiment
5,Stimuli/Morph5.JPG,Stimuli/Morph5.png,Stimuli/BlurLevel5/BlurEditedMorph5,Stimuli/BlurLevel5/BlurEditedMorph5.png,Stimuli/BlurLevel5/NumberedMorphs/BlurEditedMorph5.png,Stimuli/BlurLevel5/OriginalBlur/BlurEditedMorph5.png,Stimuli/BlurMorphTrio/EditedMorph5.png,010011right.gif,Stimuli/normal_thumbnails/5right.gif,1,0,1,0,0,62,62,4,,,9,2,63,51,1.573300978,1.942864904,5,846.6225879,847.1211916,846.6225879,847.1211916,86.39455782,1574293661,1574293664,3.034533262,144,142,-137,10,1574293659,1574293661,,,IS,1,21,F,Undergrad,2019_Nov_20_1534,AdjustExp1,3.1.5,59.82055437,Experiment
4,Stimuli/Morph4.JPG,Stimuli/Morph4.png,Stimuli/BlurLevel5/BlurEditedMorph4,Stimuli/BlurLevel5/BlurEditedMorph4.png,Stimuli/BlurLevel5/NumberedMorphs/BlurEditedMorph4.png,Stimuli/BlurLevel5/OriginalBlur/BlurEditedMorph4.png,Stimuli/BlurMorphTrio/EditedMorph4.png,010010right.gif,Stimuli/normal_thumbnails/4right.gif,1,0,1,0,0,63,63,3,,,8,2,64,29,2.186549268,1.212024051,4,852.3052752,852.8388754,852.3052752,852.8388754,83.67346939,1574293667,1574293669,2.617155075,71,139,-135,12,1574293664,1574293667,,,IS,1,21,F,Undergrad,2019_Nov_20_1534,AdjustExp1,3.1.5,59.82055437,Experiment
27,Stimuli/Morph27.JPG,Stimuli/Morph27.png,Stimuli/BlurLevel5/BlurEditedMorph27,Stimuli/BlurLevel5/BlurEditedMorph27.png,Stimuli/BlurLevel5/NumberedMorphs/BlurEditedMorph27.png,Stimuli/BlurLevel5/OriginalBlur/BlurEditedMorph27.png,Stimuli/BlurMorphTrio/EditedMorph27.png,010072right.gif,Stimuli/normal_thumbnails/27right.gif,1,0,1,0,0,64,64,26,,,27,2,65,26,2.246985116,1.095927867,27,857.7217153,858.2218639,857.7217153,858.2218639,79.59183673,1574293672,1574293676,3.933674097,46,12,15,15,1574293670,1574293672,,,IS,1,21,F,Undergrad,2019_Nov_20_1534,AdjustExp1,3.1.5,59.82055437,Experiment
55,Stimuli/Morph55.JPG,Stimuli/Morph55.png,Stimuli/BlurLevel5/BlurEditedMorph55,Stimuli/BlurLevel5/BlurEditedMorph55.png,Stimuli/BlurLevel5/NumberedMorphs/BlurEditedMorph55.png,Stimuli/BlurLevel5/OriginalBlur/BlurEditedMorph55.png,Stimuli/BlurMorphTrio/EditedMorph55.png,010151right.gif,Stimuli/normal_thumbnails/55right.gif,1,0,1,0,0,65,65,54,,,43,2,66,260,-0.434120444,-2.462019383,55,864.2724484,864.8554404,864.2724484,864.8554404,94.55782313,1574293679,1574293680,1.616312981,56,51,4,4,1574293676,1574293679,,,IS,1,21,F,Undergrad,2019_Nov_20_1534,AdjustExp1,3.1.5,59.82055437,Experiment
69,Stimuli/Morph69.JPG,Stimuli/Morph69.png,Stimuli/BlurLevel5/BlurEditedMorph69,Stimuli/BlurLevel5/BlurEditedMorph69.png,Stimuli/BlurLevel5/NumberedMorphs/BlurEditedMorph69.png,Stimuli/BlurLevel5/OriginalBlur/BlurEditedMorph69.png,Stimuli/BlurMorphTrio/EditedMorph69.png,020220right.gif,Stimuli/normal_thumbnails/69right.gif,1,0,1,0,0,66,66,68,,,57,2,67,58,1.324798161,2.12012024,69,868.688574,869.27495,868.688574,869.27495,94.55782313,1574293683,1574293686,3.399883747,112,65,4,4,1574293681,1574293683,,,IS,1,21,F,Undergrad,2019_Nov_20_1534,AdjustExp1,3.1.5,59.82055437,Experiment
108,Stimuli/Morph108.JPG,Stimuli/Morph108.png,Stimuli/BlurLevel5/BlurEditedMorph108,Stimuli/BlurLevel5/BlurEditedMorph108.png,Stimuli/BlurLevel5/NumberedMorphs/BlurEditedMorph108.png,Stimuli/BlurLevel5/OriginalBlur/BlurEditedMorph108.png,Stimuli/BlurMorphTrio/EditedMorph108.png,None,None,1,0,1,0,0,67,67,107,,,74,2,68,166,-2.425739316,0.604804739,108,874.9389765,875.4387347,874.9389765,875.4387347,75.51020408,1574293689,1574293692,2.733121872,109,126,-18,-18,1574293687,1574293689,,,IS,1,21,F,Undergrad,2019_Nov_20_1534,AdjustExp1,3.1.5,59.82055437,Experiment
7,Stimuli/Morph7.JPG,Stimuli/Morph7.png,Stimuli/BlurLevel5/BlurEditedMorph7,Stimuli/BlurLevel5/BlurEditedMorph7.png,Stimuli/BlurLevel5/NumberedMorphs/BlurEditedMorph7.png,Stimuli/BlurLevel5/OriginalBlur/BlurEditedMorph7.png,Stimuli/BlurMorphTrio/EditedMorph7.png,010013right.gif,Stimuli/normal_thumbnails/7right.gif,1,0,1,0,0,68,68,6,,,6,2,69,4,2.493910126,0.174391184,7,880.4547536,880.9717852,880.4547536,880.9717852,87.75510204,1574293695,1574293697,1.950686932,129,145,-138,9,1574293692,1574293695,,,IS,1,21,F,Undergrad,2019_Nov_20_1534,AdjustExp1,3.1.5,59.82055437,Experiment
116,Stimuli/Morph116.JPG,Stimuli/Morph116.png,Stimuli/BlurLevel5/BlurEditedMorph116,Stimuli/BlurLevel5/BlurEditedMorph116.png,Stimuli/BlurLevel5/NumberedMorphs/BlurEditedMorph116.png,Stimuli/BlurLevel5/OriginalBlur/BlurEditedMorph116.png,Stimuli/BlurMorphTrio/EditedMorph116.png,None,None,1,0,1,0,0,69,69,115,,,30,2,70,202,-2.317959636,-0.936516484,116,885.3550349,885.9384995,885.3550349,885.9384995,90.47619048,1574293700,1574293702,2.467077017,97,109,7,7,1574293697,1574293700,,,IS,1,21,F,Undergrad,2019_Nov_20_1534,AdjustExp1,3.1.5,59.82055437,Experiment
60,Stimuli/Morph60.JPG,Stimuli/Morph60.png,Stimuli/BlurLevel5/BlurEditedMorph60,Stimuli/BlurLevel5/BlurEditedMorph60.png,Stimuli/BlurLevel5/NumberedMorphs/BlurEditedMorph60.png,Stimuli/BlurLevel5/OriginalBlur/BlurEditedMorph60.png,Stimuli/BlurMorphTrio/EditedMorph60.png,020200right.gif,Stimuli/normal_thumbnails/60right.gif,1,0,1,0,0,70,70,59,,,77,2,71,135,-1.767766953,1.767766953,60,890.5885935,891.0880429,890.5885935,891.0880429,98.63945578,1574293705,1574293706,1.500454187,73,59,1,1,1574293702,1574293705,,,IS,1,21,F,Undergrad,2019_Nov_20_1534,AdjustExp1,3.1.5,59.82055437,Experiment
21,Stimuli/Morph21.JPG,Stimuli/Morph21.png,Stimuli/BlurLevel5/BlurEditedMorph21,Stimuli/BlurLevel5/BlurEditedMorph21.png,Stimuli/BlurLevel5/NumberedMorphs/BlurEditedMorph21.png,Stimuli/BlurLevel5/OriginalBlur/BlurEditedMorph21.png,Stimuli/BlurMorphTrio/EditedMorph21.png,010049right.gif,Stimuli/normal_thumbnails/21right.gif,1,0,1,0,0,71,71,20,,,3,2,72,39,1.942864904,1.573300978,21,894.9757283,895.4712842,894.9757283,895.4712842,93.19727891,1574293709,1574293712,2.666370869,40,16,5,5,1574293707,1574293709,,,IS,1,21,F,Undergrad,2019_Nov_20_1534,AdjustExp1,3.1.5,59.82055437,Experiment
52,Stimuli/Morph52.JPG,Stimuli/Morph52.png,Stimuli/BlurLevel5/BlurEditedMorph52,Stimuli/BlurLevel5/BlurEditedMorph52.png,Stimuli/BlurLevel5/NumberedMorphs/BlurEditedMorph52.png,Stimuli/BlurLevel5/OriginalBlur/BlurEditedMorph52.png,Stimuli/BlurMorphTrio/EditedMorph52.png,010148right.gif,Stimuli/normal_thumbnails/52right.gif,1,0,1,0,0,72,72,51,,,60,2,73,50,1.606969024,1.915111108,52,900.5885165,901.4380976,900.5885165,901.4380976,90.47619048,1574293715,1574293718,2.234451056,40,59,-7,-7,1574293712,1574293715,,,IS,1,21,F,Undergrad,2019_Nov_20_1534,AdjustExp1,3.1.5,59.82055437,Experiment
146,Stimuli/Morph146.JPG,Stimuli/Morph146.png,Stimuli/BlurLevel5/BlurEditedMorph146,Stimuli/BlurLevel5/BlurEditedMorph146.png,Stimuli/BlurLevel5/NumberedMorphs/BlurEditedMorph146.png,Stimuli/BlurLevel5/OriginalBlur/BlurEditedMorph146.png,Stimuli/BlurMorphTrio/EditedMorph146.png,None,None,1,0,1,0,0,73,73,145,,,68,2,74,329,2.142918252,-1.287595187,146,905.6243627,906.2213747,905.6243627,906.2213747,98.63945578,1574293720,1574293721,1.416914225,12,147,-1,-1,1574293718,1574293720,,,IS,1,21,F,Undergrad,2019_Nov_20_1534,AdjustExp1,3.1.5,59.82055437,Experiment
58,Stimuli/Morph58.JPG,Stimuli/Morph58.png,Stimuli/BlurLevel5/BlurEditedMorph58,Stimuli/BlurLevel5/BlurEditedMorph58.png,Stimuli/BlurLevel5/NumberedMorphs/BlurEditedMorph58.png,Stimuli/BlurLevel5/OriginalBlur/BlurEditedMorph58.png,Stimuli/BlurMorphTrio/EditedMorph58.png,010159right.gif,Stimuli/normal_thumbnails/58right.gif,1,0,1,0,0,74,74,57,,,65,2,75,158,-2.317959636,0.936516484,58,909.5894254,910.1046358,909.5894254,910.1046358,98.63945578,1574293724,1574293725,1.301190853,72,59,-1,-1,1574293722,1574293724,,,IS,1,21,F,Undergrad,2019_Nov_20_1534,AdjustExp1,3.1.5,59.82055437,Experiment
144,Stimuli/Morph144.JPG,Stimuli/Morph144.png,Stimuli/BlurLevel5/BlurEditedMorph144,Stimuli/BlurLevel5/BlurEditedMorph144.png,Stimuli/BlurLevel5/NumberedMorphs/BlurEditedMorph144.png,Stimuli/BlurLevel5/OriginalBlur/BlurEditedMorph144.png,Stimuli/BlurMorphTrio/EditedMorph144.png,None,None,1,0,1,0,0,75,75,143,,,12,2,76,125,-1.433941091,2.047880111,144,913.6386101,914.1547202,913.6386101,914.1547202,87.75510204,1574293728,1574293731,2.651129961,81,6,138,-9,1574293726,1574293728,,,IS,1,21,F,Undergrad,2019_Nov_20_1534,AdjustExp1,3.1.5,59.82055437,Experiment
3,Stimuli/Morph3.JPG,Stimuli/Morph3.png,Stimuli/BlurLevel5/BlurEditedMorph3,Stimuli/BlurLevel5/BlurEditedMorph3.png,Stimuli/BlurLevel5/NumberedMorphs/BlurEditedMorph3.png,Stimuli/BlurLevel5/OriginalBlur/BlurEditedMorph3.png,Stimuli/BlurMorphTrio/EditedMorph3.png,010009right.gif,Stimuli/normal_thumbnails/3right.gif,1,0,1,0,0,76,76,2,,,38,2,77,265,-0.217889357,-2.490486745,3,919.2043321,919.7045133,919.2043321,919.7045133,94.55782313,1574293733,1574293736,2.800648928,87,146,-143,4,1574293731,1574293733,,,IS,1,21,F,Undergrad,2019_Nov_20_1534,AdjustExp1,3.1.5,59.82055437,Experiment
96,Stimuli/Morph96.JPG,Stimuli/Morph96.png,Stimuli/BlurLevel5/BlurEditedMorph96,Stimuli/BlurLevel5/BlurEditedMorph96.png,Stimuli/BlurLevel5/NumberedMorphs/BlurEditedMorph96.png,Stimuli/BlurLevel5/OriginalBlur/BlurEditedMorph96.png,Stimuli/BlurMorphTrio/EditedMorph96.png,020292right.gif,Stimuli/normal_thumbnails/96right.gif,1,0,1,0,0,77,77,95,,,88,2,78,158,-2.317959636,0.936516484,96,924.8376568,925.3377397,924.8376568,925.3377397,97.27891156,1574293739,1574293743,3.717089891,104,98,-2,-2,1574293737,1574293739,,,IS,1,21,F,Undergrad,2019_Nov_20_1534,AdjustExp1,3.1.5,59.82055437,Experiment
89,Stimuli/Morph89.JPG,Stimuli/Morph89.png,Stimuli/BlurLevel5/BlurEditedMorph89,Stimuli/BlurLevel5/BlurEditedMorph89.png,Stimuli/BlurLevel5/NumberedMorphs/BlurEditedMorph89.png,Stimuli/BlurLevel5/OriginalBlur/BlurEditedMorph89.png,Stimuli/BlurMorphTrio/EditedMorph89.png,020273right.gif,Stimuli/normal_thumbnails/89right.gif,1,0,1,0,0,78,78,88,,,83,2,79,357,2.496573837,-0.130839891,89,931.3218763,931.9045586,931.3218763,931.9045586,100,1574293746,1574293747,1.782988071,136,89,0,0,1574293743,1574293746,,,IS,1,21,F,Undergrad,2019_Nov_20_1534,AdjustExp1,3.1.5,59.82055437,Experiment
13,Stimuli/Morph13.JPG,Stimuli/Morph13.png,Stimuli/BlurLevel5/BlurEditedMorph13,Stimuli/BlurLevel5/BlurEditedMorph13.png,Stimuli/BlurLevel5/NumberedMorphs/BlurEditedMorph13.png,Stimuli/BlurLevel5/OriginalBlur/BlurEditedMorph13.png,Stimuli/BlurMorphTrio/EditedMorph13.png,010027right.gif,Stimuli/normal_thumbnails/13right.gif,1,0,1,0,0,79,79,12,,,52,2,80,351,2.469220851,-0.391086163,13,935.8043549,936.3042957,935.8043549,936.3042957,89.11564626,1574293750,1574293752,2.433869123,144,5,8,8,1574293748,1574293750,,,IS,1,21,F,Undergrad,2019_Nov_20_1534,AdjustExp1,3.1.5,59.82055437,Experiment
41,Stimuli/Morph41.JPG,Stimuli/Morph41.png,Stimuli/BlurLevel5/BlurEditedMorph41,Stimuli/BlurLevel5/BlurEditedMorph41.png,Stimuli/BlurLevel5/NumberedMorphs/BlurEditedMorph41.png,Stimuli/BlurLevel5/OriginalBlur/BlurEditedMorph41.png,Stimuli/BlurMorphTrio/EditedMorph41.png,010112right.gif,Stimuli/normal_thumbnails/41right.gif,1,0,1,0,0,80,80,40,,,25,2,81,4,2.493910126,0.174391184,41,940.7405368,941.2370933,940.7405368,941.2370933,78.23129252,1574293755,1574293757,2.499953985,30,57,-16,-16,1574293753,1574293755,,,IS,1,21,F,Undergrad,2019_Nov_20_1534,AdjustExp1,3.1.5,59.82055437,Experiment
9,Stimuli/Morph9.JPG,Stimuli/Morph9.png,Stimuli/BlurLevel5/BlurEditedMorph9,Stimuli/BlurLevel5/BlurEditedMorph9.png,Stimuli/BlurLevel5/NumberedMorphs/BlurEditedMorph9.png,Stimuli/BlurLevel5/OriginalBlur/BlurEditedMorph9.png,Stimuli/BlurMorphTrio/EditedMorph9.png,010015right.gif,Stimuli/normal_thumbnails/9right.gif,1,0,1,0,0,81,81,8,,,51,2,82,173,-2.481365379,0.304673359,9,945.9203125,946.4204734,945.9203125,946.4204734,78.23129252,1574293760,1574293761,0.833256006,140,140,-131,16,1574293758,1574293760,,,IS,1,21,F,Undergrad,2019_Nov_20_1534,AdjustExp1,3.1.5,59.82055437,Experiment
99,Stimuli/Morph99.JPG,Stimuli/Morph99.png,Stimuli/BlurLevel5/BlurEditedMorph99,Stimuli/BlurLevel5/BlurEditedMorph99.png,Stimuli/BlurLevel5/NumberedMorphs/BlurEditedMorph99.png,Stimuli/BlurLevel5/OriginalBlur/BlurEditedMorph99.png,Stimuli/BlurMorphTrio/EditedMorph99.png,020299right.gif,Stimuli/normal_thumbnails/99right.gif,1,0,1,0,0,82,82,98,,,14,2,83,84,0.261321158,2.486304738,99,949.7106432,950.2041364,949.7106432,950.2041364,87.75510204,1574293764,1574293766,2.267511845,137,108,-9,-9,1574293761,1574293764,,,IS,1,21,F,Undergrad,2019_Nov_20_1534,AdjustExp1,3.1.5,59.82055437,Experiment
38,Stimuli/Morph38.JPG,Stimuli/Morph38.png,Stimuli/BlurLevel5/BlurEditedMorph38,Stimuli/BlurLevel5/BlurEditedMorph38.png,Stimuli/BlurLevel5/NumberedMorphs/BlurEditedMorph38.png,Stimuli/BlurLevel5/OriginalBlur/BlurEditedMorph38.png,Stimuli/BlurMorphTrio/EditedMorph38.png,010108right.gif,Stimuli/normal_thumbnails/38right.gif,1,0,1,0,0,83,83,37,,,82,2,84,33,2.09667642,1.361597588,38,954.4203589,954.9205483,954.4203589,954.9205483,90.47619048,1574293769,1574293773,4.200799942,62,45,-7,-7,1574293766,1574293769,,,IS,1,21,F,Undergrad,2019_Nov_20_1534,AdjustExp1,3.1.5,59.82055437,Experiment
53,Stimuli/Morph53.JPG,Stimuli/Morph53.png,Stimuli/BlurLevel5/BlurEditedMorph53,Stimuli/BlurLevel5/BlurEditedMorph53.png,Stimuli/BlurLevel5/NumberedMorphs/BlurEditedMorph53.png,Stimuli/BlurLevel5/OriginalBlur/BlurEditedMorph53.png,Stimuli/BlurMorphTrio/EditedMorph53.png,010149right.gif,Stimuli/normal_thumbnails/53right.gif,1,0,1,0,0,84,84,52,,,46,2,85,314,1.736645926,-1.798349501,53,961.1919618,961.9866135,961.1919618,961.9866135,78.23129252,1574293776,1574293778,2.266860008,58,37,16,16,1574293773,1574293776,,,IS,1,21,F,Undergrad,2019_Nov_20_1534,AdjustExp1,3.1.5,59.82055437,Experiment
