stimulusID,stimulus_JPG,stimulusPath,stimulusPath2,stimulusPath3,stimulusPath4,stimulusPath5,stimulusPath6,xRayOriginal,xRayPath,Blocks.thisRepN,Blocks.thisTrialN,Blocks.thisN,Blocks.thisIndex,Trials.thisRepN,Trials.thisTrialN,Trials.thisN,Trials.thisIndex,text_2.started,text_2.stopped,xrayID,blockNumber,trialNumber,stimLocationDeg,stimXCoord,stimYCoord,stimulusID,xray1.started,xray1.stopped,tumors.started,tumors.stopped,trialCorrect%,startRespTime,endRespTime,RT,morphTrack,morphID,errorRaw,errorCorrected,startStimTime,endStimTime,key_resp.keys,key_resp.rt,participant,session,age,gender,status,date,expName,psychopyVersion,frameRate,blockType
81,Stimuli/Morph81.JPG,Stimuli/Morph81.png,Stimuli/BlurLevel5/BlurEditedMorph81,Stimuli/BlurLevel5/BlurEditedMorph81.png,Stimuli/BlurLevel5/NumberedMorphs/BlurEditedMorph81.png,Stimuli/BlurLevel5/OriginalBlur/BlurEditedMorph81.png,Stimuli/BlurMorphTrio/EditedMorph81.png,020245right.gif,Stimuli/normal_thumbnails/81right.gif,0,0,0,0,0,0,0,80,29.51960992,None,53,1,1,177,-2.496573837,0.130839891,81,46.67132278,47.16918449,46.67132278,47.16918449,93.19727891,1574374435,1574374438,3.417241812,124,86,-5,-5,1574374433,1574374435,,,JP,1,19,M,Undergrad,2019_Nov_21_1413,AdjustExp1,3.1.5,60.2617854,Experiment
113,Stimuli/Morph113.JPG,Stimuli/Morph113.png,Stimuli/BlurLevel5/BlurEditedMorph113,Stimuli/BlurLevel5/BlurEditedMorph113.png,Stimuli/BlurLevel5/NumberedMorphs/BlurEditedMorph113.png,Stimuli/BlurLevel5/OriginalBlur/BlurEditedMorph113.png,Stimuli/BlurMorphTrio/EditedMorph113.png,None,None,0,0,0,0,0,1,1,112,,,12,1,2,46,1.736645926,1.798349501,113,52.56916474,53.06932055,52.56916474,53.06932055,93.19727891,1574374441,1574374443,2.699919939,65,108,5,5,1574374438,1574374441,,,JP,1,19,M,Undergrad,2019_Nov_21_1413,AdjustExp1,3.1.5,60.2617854,Experiment
36,Stimuli/Morph36.JPG,Stimuli/Morph36.png,Stimuli/BlurLevel5/BlurEditedMorph36,Stimuli/BlurLevel5/BlurEditedMorph36.png,Stimuli/BlurLevel5/NumberedMorphs/BlurEditedMorph36.png,Stimuli/BlurLevel5/OriginalBlur/BlurEditedMorph36.png,Stimuli/BlurMorphTrio/EditedMorph36.png,010095right.gif,Stimuli/normal_thumbnails/36right.gif,0,0,0,0,0,2,2,35,,,70,1,3,46,1.736645926,1.798349501,36,57.54236257,58.03598079,57.54236257,58.03598079,94.55782313,1574374446,1574374449,3.299952984,31,32,4,4,1574374444,1574374446,,,JP,1,19,M,Undergrad,2019_Nov_21_1413,AdjustExp1,3.1.5,60.2617854,Experiment
59,Stimuli/Morph59.JPG,Stimuli/Morph59.png,Stimuli/BlurLevel5/BlurEditedMorph59,Stimuli/BlurLevel5/BlurEditedMorph59.png,Stimuli/BlurLevel5/NumberedMorphs/BlurEditedMorph59.png,Stimuli/BlurLevel5/OriginalBlur/BlurEditedMorph59.png,Stimuli/BlurMorphTrio/EditedMorph59.png,010160right.gif,Stimuli/normal_thumbnails/59right.gif,0,0,0,0,0,3,3,58,,,95,1,4,79,0.477022488,2.454067959,59,63.36853221,63.86888978,63.36853221,63.86888978,95.91836735,1574374451,1574374455,3.399800062,43,62,-3,-3,1574374449,1574374451,,,JP,1,19,M,Undergrad,2019_Nov_21_1413,AdjustExp1,3.1.5,60.2617854,Experiment
13,Stimuli/Morph13.JPG,Stimuli/Morph13.png,Stimuli/BlurLevel5/BlurEditedMorph13,Stimuli/BlurLevel5/BlurEditedMorph13.png,Stimuli/BlurLevel5/NumberedMorphs/BlurEditedMorph13.png,Stimuli/BlurLevel5/OriginalBlur/BlurEditedMorph13.png,Stimuli/BlurMorphTrio/EditedMorph13.png,010027right.gif,Stimuli/normal_thumbnails/13right.gif,0,0,0,0,0,4,4,12,,,42,1,5,4,2.493910126,0.174391184,13,69.30842915,69.80220022,69.30842915,69.80220022,86.39455782,1574374457,1574374464,6.633285046,82,23,-10,-10,1574374455,1574374457,,,JP,1,19,M,Undergrad,2019_Nov_21_1413,AdjustExp1,3.1.5,60.2617854,Experiment
126,Stimuli/Morph126.JPG,Stimuli/Morph126.png,Stimuli/BlurLevel5/BlurEditedMorph126,Stimuli/BlurLevel5/BlurEditedMorph126.png,Stimuli/BlurLevel5/NumberedMorphs/BlurEditedMorph126.png,Stimuli/BlurLevel5/OriginalBlur/BlurEditedMorph126.png,Stimuli/BlurMorphTrio/EditedMorph126.png,None,None,0,0,0,0,0,5,5,125,,,62,1,6,79,0.477022488,2.454067959,126,78.65183886,79.15185747,78.65183886,79.15185747,68.70748299,1574374467,1574374469,2.332854986,124,103,23,23,1574374464,1574374467,,,JP,1,19,M,Undergrad,2019_Nov_21_1413,AdjustExp1,3.1.5,60.2617854,Experiment
16,Stimuli/Morph16.JPG,Stimuli/Morph16.png,Stimuli/BlurLevel5/BlurEditedMorph16,Stimuli/BlurLevel5/BlurEditedMorph16.png,Stimuli/BlurLevel5/NumberedMorphs/BlurEditedMorph16.png,Stimuli/BlurLevel5/OriginalBlur/BlurEditedMorph16.png,Stimuli/BlurMorphTrio/EditedMorph16.png,010034right.gif,Stimuli/normal_thumbnails/16right.gif,0,0,0,0,0,6,6,15,,,95,1,7,305,1.433941091,-2.047880111,16,83.52386068,84.01823673,83.52386068,84.01823673,97.27891156,1574374472,1574374474,2.533419132,44,18,-2,-2,1574374469,1574374472,,,JP,1,19,M,Undergrad,2019_Nov_21_1413,AdjustExp1,3.1.5,60.2617854,Experiment
133,Stimuli/Morph133.JPG,Stimuli/Morph133.png,Stimuli/BlurLevel5/BlurEditedMorph133,Stimuli/BlurLevel5/BlurEditedMorph133.png,Stimuli/BlurLevel5/NumberedMorphs/BlurEditedMorph133.png,Stimuli/BlurLevel5/OriginalBlur/BlurEditedMorph133.png,Stimuli/BlurMorphTrio/EditedMorph133.png,None,None,0,0,0,0,0,7,7,132,,,69,1,8,89,0.043631016,2.499619238,133,88.82558828,89.31850234,88.82558828,89.31850234,70.06802721,1574374477,1574374481,4.400430918,129,111,22,22,1574374474,1574374477,,,JP,1,19,M,Undergrad,2019_Nov_21_1413,AdjustExp1,3.1.5,60.2617854,Experiment
130,Stimuli/Morph130.JPG,Stimuli/Morph130.png,Stimuli/BlurLevel5/BlurEditedMorph130,Stimuli/BlurLevel5/BlurEditedMorph130.png,Stimuli/BlurLevel5/NumberedMorphs/BlurEditedMorph130.png,Stimuli/BlurLevel5/OriginalBlur/BlurEditedMorph130.png,Stimuli/BlurMorphTrio/EditedMorph130.png,None,None,0,0,0,0,0,8,8,129,,,76,1,9,42,1.857862064,1.672826516,130,95.33919193,95.83479793,95.33919193,95.83479793,76.8707483,1574374483,1574374487,3.149770975,44,113,17,17,1574374482,1574374483,,,JP,1,19,M,Undergrad,2019_Nov_21_1413,AdjustExp1,3.1.5,60.2617854,Experiment
99,Stimuli/Morph99.JPG,Stimuli/Morph99.png,Stimuli/BlurLevel5/BlurEditedMorph99,Stimuli/BlurLevel5/BlurEditedMorph99.png,Stimuli/BlurLevel5/NumberedMorphs/BlurEditedMorph99.png,Stimuli/BlurLevel5/OriginalBlur/BlurEditedMorph99.png,Stimuli/BlurMorphTrio/EditedMorph99.png,020299right.gif,Stimuli/normal_thumbnails/99right.gif,0,0,0,0,0,9,9,98,,,6,1,10,313,1.7049959,-1.828384254,99,100.9204448,101.4186959,100.9204448,101.4186959,98.63945578,1574374489,1574374492,3.083413124,122,100,-1,-1,1574374487,1574374489,,,JP,1,19,M,Undergrad,2019_Nov_21_1413,AdjustExp1,3.1.5,60.2617854,Experiment
100,Stimuli/Morph100.JPG,Stimuli/Morph100.png,Stimuli/BlurLevel5/BlurEditedMorph100,Stimuli/BlurLevel5/BlurEditedMorph100.png,Stimuli/BlurLevel5/NumberedMorphs/BlurEditedMorph100.png,Stimuli/BlurLevel5/OriginalBlur/BlurEditedMorph100.png,Stimuli/BlurMorphTrio/EditedMorph100.png,020297right.gif,Stimuli/normal_thumbnails/100right.gif,0,0,0,0,0,10,10,99,,,61,1,11,356,2.493910126,-0.174391184,100,106.6867104,107.1852464,106.6867104,107.1852464,93.19727891,1574374495,1574374497,2.116642952,85,95,5,5,1574374492,1574374495,,,JP,1,19,M,Undergrad,2019_Nov_21_1413,AdjustExp1,3.1.5,60.2617854,Experiment
6,Stimuli/Morph6.JPG,Stimuli/Morph6.png,Stimuli/BlurLevel5/BlurEditedMorph6,Stimuli/BlurLevel5/BlurEditedMorph6.png,Stimuli/BlurLevel5/NumberedMorphs/BlurEditedMorph6.png,Stimuli/BlurLevel5/OriginalBlur/BlurEditedMorph6.png,Stimuli/BlurMorphTrio/EditedMorph6.png,010012right.gif,Stimuli/normal_thumbnails/6right.gif,0,0,0,0,0,11,11,5,,,12,1,12,277,0.304673359,-2.481365379,6,111.7345934,112.2353308,111.7345934,112.2353308,83.67346939,1574374500,1574374503,3.350021839,6,18,-12,-12,1574374497,1574374500,,,JP,1,19,M,Undergrad,2019_Nov_21_1413,AdjustExp1,3.1.5,60.2617854,Experiment
124,Stimuli/Morph124.JPG,Stimuli/Morph124.png,Stimuli/BlurLevel5/BlurEditedMorph124,Stimuli/BlurLevel5/BlurEditedMorph124.png,Stimuli/BlurLevel5/NumberedMorphs/BlurEditedMorph124.png,Stimuli/BlurLevel5/OriginalBlur/BlurEditedMorph124.png,Stimuli/BlurMorphTrio/EditedMorph124.png,None,None,0,0,0,0,0,12,12,123,,,46,1,13,292,0.936516484,-2.317959636,124,117.50208,118.0012986,117.50208,118.0012986,78.23129252,1574374506,1574374510,4.899451256,80,108,16,16,1574374503,1574374506,,,JP,1,19,M,Undergrad,2019_Nov_21_1413,AdjustExp1,3.1.5,60.2617854,Experiment
88,Stimuli/Morph88.JPG,Stimuli/Morph88.png,Stimuli/BlurLevel5/BlurEditedMorph88,Stimuli/BlurLevel5/BlurEditedMorph88.png,Stimuli/BlurLevel5/NumberedMorphs/BlurEditedMorph88.png,Stimuli/BlurLevel5/OriginalBlur/BlurEditedMorph88.png,Stimuli/BlurMorphTrio/EditedMorph88.png,020271right.gif,Stimuli/normal_thumbnails/88right.gif,0,0,0,0,0,13,13,87,,,5,1,14,340,2.349231552,-0.855050358,88,125.051428,125.5519698,125.051428,125.5519698,87.75510204,1574374513,1574374516,2.599956989,54,97,-9,-9,1574374511,1574374513,,,JP,1,19,M,Undergrad,2019_Nov_21_1413,AdjustExp1,3.1.5,60.2617854,Experiment
56,Stimuli/Morph56.JPG,Stimuli/Morph56.png,Stimuli/BlurLevel5/BlurEditedMorph56,Stimuli/BlurLevel5/BlurEditedMorph56.png,Stimuli/BlurLevel5/NumberedMorphs/BlurEditedMorph56.png,Stimuli/BlurLevel5/OriginalBlur/BlurEditedMorph56.png,Stimuli/BlurMorphTrio/EditedMorph56.png,010157right.gif,Stimuli/normal_thumbnails/56right.gif,0,0,0,0,0,14,14,55,,,55,1,15,1,2.499619238,0.043631016,56,130.2184225,130.7186188,130.2184225,130.7186188,95.91836735,1574374518,1574374521,2.817516088,41,53,3,3,1574374516,1574374518,,,JP,1,19,M,Undergrad,2019_Nov_21_1413,AdjustExp1,3.1.5,60.2617854,Experiment
55,Stimuli/Morph55.JPG,Stimuli/Morph55.png,Stimuli/BlurLevel5/BlurEditedMorph55,Stimuli/BlurLevel5/BlurEditedMorph55.png,Stimuli/BlurLevel5/NumberedMorphs/BlurEditedMorph55.png,Stimuli/BlurLevel5/OriginalBlur/BlurEditedMorph55.png,Stimuli/BlurMorphTrio/EditedMorph55.png,010151right.gif,Stimuli/normal_thumbnails/55right.gif,0,0,0,0,0,15,15,54,,,39,1,16,214,-2.072593931,-1.397982259,55,135.7365364,136.2349223,135.7365364,136.2349223,82.31292517,1574374524,1574374528,3.916874886,118,42,13,13,1574374521,1574374524,,,JP,1,19,M,Undergrad,2019_Nov_21_1413,AdjustExp1,3.1.5,60.2617854,Experiment
116,Stimuli/Morph116.JPG,Stimuli/Morph116.png,Stimuli/BlurLevel5/BlurEditedMorph116,Stimuli/BlurLevel5/BlurEditedMorph116.png,Stimuli/BlurLevel5/NumberedMorphs/BlurEditedMorph116.png,Stimuli/BlurLevel5/OriginalBlur/BlurEditedMorph116.png,Stimuli/BlurMorphTrio/EditedMorph116.png,None,None,0,0,0,0,0,16,16,115,,,36,1,17,105,-0.647047613,2.414814566,116,142.2059033,142.7014944,142.2059033,142.7014944,80.95238095,1574374530,1574374533,3.101749897,19,102,14,14,1574374528,1574374530,,,JP,1,19,M,Undergrad,2019_Nov_21_1413,AdjustExp1,3.1.5,60.2617854,Experiment
138,Stimuli/Morph138.JPG,Stimuli/Morph138.png,Stimuli/BlurLevel5/BlurEditedMorph138,Stimuli/BlurLevel5/BlurEditedMorph138.png,Stimuli/BlurLevel5/NumberedMorphs/BlurEditedMorph138.png,Stimuli/BlurLevel5/OriginalBlur/BlurEditedMorph138.png,Stimuli/BlurMorphTrio/EditedMorph138.png,None,None,0,0,0,0,0,17,17,137,,,87,1,18,291,0.895919874,-2.333951066,138,148.005938,148.5011541,148.005938,148.5011541,87.75510204,1574374536,1574374541,4.950222015,107,147,-9,-9,1574374534,1574374536,,,JP,1,19,M,Undergrad,2019_Nov_21_1413,AdjustExp1,3.1.5,60.2617854,Experiment
53,Stimuli/Morph53.JPG,Stimuli/Morph53.png,Stimuli/BlurLevel5/BlurEditedMorph53,Stimuli/BlurLevel5/BlurEditedMorph53.png,Stimuli/BlurLevel5/NumberedMorphs/BlurEditedMorph53.png,Stimuli/BlurLevel5/OriginalBlur/BlurEditedMorph53.png,Stimuli/BlurMorphTrio/EditedMorph53.png,010149right.gif,Stimuli/normal_thumbnails/53right.gif,0,0,0,0,0,18,18,52,,,86,1,19,81,0.391086163,2.469220851,53,155.3083782,155.8006477,155.3083782,155.8006477,95.91836735,1574374543,1574374546,2.249860048,26,50,3,3,1574374541,1574374543,,,JP,1,19,M,Undergrad,2019_Nov_21_1413,AdjustExp1,3.1.5,60.2617854,Experiment
34,Stimuli/Morph34.JPG,Stimuli/Morph34.png,Stimuli/BlurLevel5/BlurEditedMorph34,Stimuli/BlurLevel5/BlurEditedMorph34.png,Stimuli/BlurLevel5/NumberedMorphs/BlurEditedMorph34.png,Stimuli/BlurLevel5/OriginalBlur/BlurEditedMorph34.png,Stimuli/BlurMorphTrio/EditedMorph34.png,010090right.gif,Stimuli/normal_thumbnails/34right.gif,0,0,0,0,0,19,19,33,,,93,1,20,275,0.217889357,-2.490486745,34,160.5350272,161.0345642,160.5350272,161.0345642,100,1574374549,1574374551,2.650599003,42,34,0,0,1574374546,1574374549,,,JP,1,19,M,Undergrad,2019_Nov_21_1413,AdjustExp1,3.1.5,60.2617854,Experiment
92,Stimuli/Morph92.JPG,Stimuli/Morph92.png,Stimuli/BlurLevel5/BlurEditedMorph92,Stimuli/BlurLevel5/BlurEditedMorph92.png,Stimuli/BlurLevel5/NumberedMorphs/BlurEditedMorph92.png,Stimuli/BlurLevel5/OriginalBlur/BlurEditedMorph92.png,Stimuli/BlurMorphTrio/EditedMorph92.png,020277right.gif,Stimuli/normal_thumbnails/92right.gif,0,0,0,0,0,20,20,91,,,13,1,21,177,-2.496573837,0.130839891,92,165.9178792,166.4176104,165.9178792,166.4176104,53.7414966,1574374554,1574374557,3.183529854,62,126,-34,-34,1574374551,1574374554,,,JP,1,19,M,Undergrad,2019_Nov_21_1413,AdjustExp1,3.1.5,60.2617854,Experiment
127,Stimuli/Morph127.JPG,Stimuli/Morph127.png,Stimuli/BlurLevel5/BlurEditedMorph127,Stimuli/BlurLevel5/BlurEditedMorph127.png,Stimuli/BlurLevel5/NumberedMorphs/BlurEditedMorph127.png,Stimuli/BlurLevel5/OriginalBlur/BlurEditedMorph127.png,Stimuli/BlurMorphTrio/EditedMorph127.png,None,None,0,0,0,0,0,21,21,126,,,46,1,22,358,2.498477068,-0.087248742,127,171.6002614,172.1009194,171.6002614,172.1009194,95.91836735,1574374560,1574374565,5.583166361,37,124,3,3,1574374557,1574374560,,,JP,1,19,M,Undergrad,2019_Nov_21_1413,AdjustExp1,3.1.5,60.2617854,Experiment
46,Stimuli/Morph46.JPG,Stimuli/Morph46.png,Stimuli/BlurLevel5/BlurEditedMorph46,Stimuli/BlurLevel5/BlurEditedMorph46.png,Stimuli/BlurLevel5/NumberedMorphs/BlurEditedMorph46.png,Stimuli/BlurLevel5/OriginalBlur/BlurEditedMorph46.png,Stimuli/BlurMorphTrio/EditedMorph46.png,010128right.gif,Stimuli/normal_thumbnails/46right.gif,0,0,0,0,0,22,22,45,,,53,1,23,335,2.265769468,-1.056545654,46,179.9680162,180.4674072,179.9680162,180.4674072,98.63945578,1574374568,1574374572,4.217813015,15,47,-1,-1,1574374565,1574374568,,,JP,1,19,M,Undergrad,2019_Nov_21_1413,AdjustExp1,3.1.5,60.2617854,Experiment
48,Stimuli/Morph48.JPG,Stimuli/Morph48.png,Stimuli/BlurLevel5/BlurEditedMorph48,Stimuli/BlurLevel5/BlurEditedMorph48.png,Stimuli/BlurLevel5/NumberedMorphs/BlurEditedMorph48.png,Stimuli/BlurLevel5/OriginalBlur/BlurEditedMorph48.png,Stimuli/BlurMorphTrio/EditedMorph48.png,010131right.gif,Stimuli/normal_thumbnails/48right.gif,0,0,0,0,0,23,23,47,,,63,1,24,89,0.043631016,2.499619238,48,186.5502945,187.0508857,186.5502945,187.0508857,93.19727891,1574374575,1574374575,0.867070913,43,43,5,5,1574374572,1574374575,,,JP,1,19,M,Undergrad,2019_Nov_21_1413,AdjustExp1,3.1.5,60.2617854,Experiment
103,Stimuli/Morph103.JPG,Stimuli/Morph103.png,Stimuli/BlurLevel5/BlurEditedMorph103,Stimuli/BlurLevel5/BlurEditedMorph103.png,Stimuli/BlurLevel5/NumberedMorphs/BlurEditedMorph103.png,Stimuli/BlurLevel5/OriginalBlur/BlurEditedMorph103.png,Stimuli/BlurMorphTrio/EditedMorph103.png,None,None,0,0,0,0,0,24,24,102,,,14,1,25,228,-1.672826516,-1.857862064,103,190.2502197,190.7505613,190.2502197,190.7505613,94.55782313,1574374578,1574374581,2.266311169,122,99,4,4,1574374576,1574374578,,,JP,1,19,M,Undergrad,2019_Nov_21_1413,AdjustExp1,3.1.5,60.2617854,Experiment
82,Stimuli/Morph82.JPG,Stimuli/Morph82.png,Stimuli/BlurLevel5/BlurEditedMorph82,Stimuli/BlurLevel5/BlurEditedMorph82.png,Stimuli/BlurLevel5/NumberedMorphs/BlurEditedMorph82.png,Stimuli/BlurLevel5/OriginalBlur/BlurEditedMorph82.png,Stimuli/BlurMorphTrio/EditedMorph82.png,020247right.gif,Stimuli/normal_thumbnails/82right.gif,0,0,0,0,0,25,25,81,,,39,1,26,51,1.573300978,1.942864904,82,194.9068932,195.400827,194.9068932,195.400827,60.54421769,1574374583,1574374586,3.183213949,45,111,-29,-29,1574374581,1574374583,,,JP,1,19,M,Undergrad,2019_Nov_21_1413,AdjustExp1,3.1.5,60.2617854,Experiment
77,Stimuli/Morph77.JPG,Stimuli/Morph77.png,Stimuli/BlurLevel5/BlurEditedMorph77,Stimuli/BlurLevel5/BlurEditedMorph77.png,Stimuli/BlurLevel5/NumberedMorphs/BlurEditedMorph77.png,Stimuli/BlurLevel5/OriginalBlur/BlurEditedMorph77.png,Stimuli/BlurMorphTrio/EditedMorph77.png,020235right.gif,Stimuli/normal_thumbnails/77right.gif,0,0,0,0,0,26,26,76,,,31,1,27,47,1.7049959,1.828384254,77,200.6665138,201.1670221,200.6665138,201.1670221,87.75510204,1574374589,1574374594,5.067196846,73,86,-9,-9,1574374586,1574374589,,,JP,1,19,M,Undergrad,2019_Nov_21_1413,AdjustExp1,3.1.5,60.2617854,Experiment
45,Stimuli/Morph45.JPG,Stimuli/Morph45.png,Stimuli/BlurLevel5/BlurEditedMorph45,Stimuli/BlurLevel5/BlurEditedMorph45.png,Stimuli/BlurLevel5/NumberedMorphs/BlurEditedMorph45.png,Stimuli/BlurLevel5/OriginalBlur/BlurEditedMorph45.png,Stimuli/BlurMorphTrio/EditedMorph45.png,010127right.gif,Stimuli/normal_thumbnails/45right.gif,0,0,0,0,0,27,27,44,,,3,1,28,99,-0.391086163,2.469220851,45,208.2171861,208.717067,208.2171861,208.717067,98.63945578,1574374596,1574374599,2.583435059,144,46,-1,-1,1574374594,1574374596,,,JP,1,19,M,Undergrad,2019_Nov_21_1413,AdjustExp1,3.1.5,60.2617854,Experiment
7,Stimuli/Morph7.JPG,Stimuli/Morph7.png,Stimuli/BlurLevel5/BlurEditedMorph7,Stimuli/BlurLevel5/BlurEditedMorph7.png,Stimuli/BlurLevel5/NumberedMorphs/BlurEditedMorph7.png,Stimuli/BlurLevel5/OriginalBlur/BlurEditedMorph7.png,Stimuli/BlurMorphTrio/EditedMorph7.png,010013right.gif,Stimuli/normal_thumbnails/7right.gif,0,0,0,0,0,28,28,6,,,6,1,29,81,0.391086163,2.469220851,7,213.2223756,213.7170138,213.2223756,213.7170138,98.63945578,1574374601,1574374608,6.600227118,133,8,-1,-1,1574374599,1574374601,,,JP,1,19,M,Undergrad,2019_Nov_21_1413,AdjustExp1,3.1.5,60.2617854,Experiment
132,Stimuli/Morph132.JPG,Stimuli/Morph132.png,Stimuli/BlurLevel5/BlurEditedMorph132,Stimuli/BlurLevel5/BlurEditedMorph132.png,Stimuli/BlurLevel5/NumberedMorphs/BlurEditedMorph132.png,Stimuli/BlurLevel5/OriginalBlur/BlurEditedMorph132.png,Stimuli/BlurMorphTrio/EditedMorph132.png,None,None,0,0,0,0,0,29,29,131,,,33,1,30,157,-2.301262134,0.976827821,132,222.1171506,222.6170431,222.1171506,222.6170431,83.67346939,1574374610,1574374614,3.583440065,41,120,12,12,1574374608,1574374610,,,JP,1,19,M,Undergrad,2019_Nov_21_1413,AdjustExp1,3.1.5,60.2617854,Experiment
73,Stimuli/Morph73.JPG,Stimuli/Morph73.png,Stimuli/BlurLevel5/BlurEditedMorph73,Stimuli/BlurLevel5/BlurEditedMorph73.png,Stimuli/BlurLevel5/NumberedMorphs/BlurEditedMorph73.png,Stimuli/BlurLevel5/OriginalBlur/BlurEditedMorph73.png,Stimuli/BlurMorphTrio/EditedMorph73.png,020230right.gif,Stimuli/normal_thumbnails/73right.gif,0,0,0,0,0,30,30,72,,,72,1,31,322,1.970026884,-1.539153688,73,228.0511033,228.5497403,228.0511033,228.5497403,67.34693878,1574374616,1574374621,4.550527096,65,97,-24,-24,1574374614,1574374616,,,JP,1,19,M,Undergrad,2019_Nov_21_1413,AdjustExp1,3.1.5,60.2617854,Experiment
44,Stimuli/Morph44.JPG,Stimuli/Morph44.png,Stimuli/BlurLevel5/BlurEditedMorph44,Stimuli/BlurLevel5/BlurEditedMorph44.png,Stimuli/BlurLevel5/NumberedMorphs/BlurEditedMorph44.png,Stimuli/BlurLevel5/OriginalBlur/BlurEditedMorph44.png,Stimuli/BlurMorphTrio/EditedMorph44.png,010126right.gif,Stimuli/normal_thumbnails/44right.gif,0,0,0,0,0,31,31,43,,,97,1,32,147,-2.09667642,1.361597588,44,235.3833195,235.883372,235.3833195,235.883372,98.63945578,1574374623,1574374627,4.017492056,97,43,1,1,1574374621,1574374623,,,JP,1,19,M,Undergrad,2019_Nov_21_1413,AdjustExp1,3.1.5,60.2617854,Experiment
84,Stimuli/Morph84.JPG,Stimuli/Morph84.png,Stimuli/BlurLevel5/BlurEditedMorph84,Stimuli/BlurLevel5/BlurEditedMorph84.png,Stimuli/BlurLevel5/NumberedMorphs/BlurEditedMorph84.png,Stimuli/BlurLevel5/OriginalBlur/BlurEditedMorph84.png,Stimuli/BlurMorphTrio/EditedMorph84.png,020261right.gif,Stimuli/normal_thumbnails/84right.gif,0,0,0,0,0,32,32,83,,,80,1,33,314,1.736645926,-1.798349501,84,241.8828422,242.3832539,241.8828422,242.3832539,61.9047619,1574374630,1574374632,2.53334713,18,112,-28,-28,1574374628,1574374630,,,JP,1,19,M,Undergrad,2019_Nov_21_1413,AdjustExp1,3.1.5,60.2617854,Experiment
8,Stimuli/Morph8.JPG,Stimuli/Morph8.png,Stimuli/BlurLevel5/BlurEditedMorph8,Stimuli/BlurLevel5/BlurEditedMorph8.png,Stimuli/BlurLevel5/NumberedMorphs/BlurEditedMorph8.png,Stimuli/BlurLevel5/OriginalBlur/BlurEditedMorph8.png,Stimuli/BlurMorphTrio/EditedMorph8.png,010014right.gif,Stimuli/normal_thumbnails/8right.gif,0,0,0,0,0,33,33,7,,,49,1,34,224,-1.798349501,-1.736645926,8,247.1333833,247.6332223,247.1333833,247.6332223,100,1574374635,1574374637,2.217766762,16,8,0,0,1574374633,1574374635,,,JP,1,19,M,Undergrad,2019_Nov_21_1413,AdjustExp1,3.1.5,60.2617854,Experiment
114,Stimuli/Morph114.JPG,Stimuli/Morph114.png,Stimuli/BlurLevel5/BlurEditedMorph114,Stimuli/BlurLevel5/BlurEditedMorph114.png,Stimuli/BlurLevel5/NumberedMorphs/BlurEditedMorph114.png,Stimuli/BlurLevel5/OriginalBlur/BlurEditedMorph114.png,Stimuli/BlurMorphTrio/EditedMorph114.png,None,None,0,0,0,0,0,34,34,113,,,2,1,35,254,-0.68909339,-2.40315424,114,251.8175886,252.3166272,251.8175886,252.3166272,78.23129252,1574374640,1574374643,2.749582052,53,98,16,16,1574374638,1574374640,,,JP,1,19,M,Undergrad,2019_Nov_21_1413,AdjustExp1,3.1.5,60.2617854,Experiment
38,Stimuli/Morph38.JPG,Stimuli/Morph38.png,Stimuli/BlurLevel5/BlurEditedMorph38,Stimuli/BlurLevel5/BlurEditedMorph38.png,Stimuli/BlurLevel5/NumberedMorphs/BlurEditedMorph38.png,Stimuli/BlurLevel5/OriginalBlur/BlurEditedMorph38.png,Stimuli/BlurMorphTrio/EditedMorph38.png,010108right.gif,Stimuli/normal_thumbnails/38right.gif,0,0,0,0,0,35,35,37,,,24,1,36,234,-1.469463131,-2.022542486,38,257.1826437,257.6829798,257.1826437,257.6829798,93.19727891,1574374645,1574374648,2.717126846,135,33,5,5,1574374643,1574374645,,,JP,1,19,M,Undergrad,2019_Nov_21_1413,AdjustExp1,3.1.5,60.2617854,Experiment
50,Stimuli/Morph50.JPG,Stimuli/Morph50.png,Stimuli/BlurLevel5/BlurEditedMorph50,Stimuli/BlurLevel5/BlurEditedMorph50.png,Stimuli/BlurLevel5/NumberedMorphs/BlurEditedMorph50.png,Stimuli/BlurLevel5/OriginalBlur/BlurEditedMorph50.png,Stimuli/BlurMorphTrio/EditedMorph50.png,010142right.gif,Stimuli/normal_thumbnails/50right.gif,0,0,0,0,0,36,36,49,,,67,1,37,293,0.976827821,-2.301262134,50,262.3659283,262.8653547,262.3659283,262.8653547,95.91836735,1574374650,1574374654,3.133839846,110,53,-3,-3,1574374648,1574374650,,,JP,1,19,M,Undergrad,2019_Nov_21_1413,AdjustExp1,3.1.5,60.2617854,Experiment
144,Stimuli/Morph144.JPG,Stimuli/Morph144.png,Stimuli/BlurLevel5/BlurEditedMorph144,Stimuli/BlurLevel5/BlurEditedMorph144.png,Stimuli/BlurLevel5/NumberedMorphs/BlurEditedMorph144.png,Stimuli/BlurLevel5/OriginalBlur/BlurEditedMorph144.png,Stimuli/BlurMorphTrio/EditedMorph144.png,None,None,0,0,0,0,0,37,37,143,,,8,1,38,111,-0.895919874,2.333951066,144,268.2067417,268.6985054,268.2067417,268.6985054,82.31292517,1574374656,1574374662,5.400254965,4,131,13,13,1574374654,1574374656,,,JP,1,19,M,Undergrad,2019_Nov_21_1413,AdjustExp1,3.1.5,60.2617854,Experiment
32,Stimuli/Morph32.JPG,Stimuli/Morph32.png,Stimuli/BlurLevel5/BlurEditedMorph32,Stimuli/BlurLevel5/BlurEditedMorph32.png,Stimuli/BlurLevel5/NumberedMorphs/BlurEditedMorph32.png,Stimuli/BlurLevel5/OriginalBlur/BlurEditedMorph32.png,Stimuli/BlurMorphTrio/EditedMorph32.png,010080right.gif,Stimuli/normal_thumbnails/32right.gif,0,0,0,0,0,38,38,31,,,43,1,39,133,-1.7049959,1.828384254,32,275.8895991,276.3822715,275.8895991,276.3822715,90.47619048,1574374664,1574374671,6.633313894,16,39,-7,-7,1574374662,1574374664,,,JP,1,19,M,Undergrad,2019_Nov_21_1413,AdjustExp1,3.1.5,60.2617854,Experiment
23,Stimuli/Morph23.JPG,Stimuli/Morph23.png,Stimuli/BlurLevel5/BlurEditedMorph23,Stimuli/BlurLevel5/BlurEditedMorph23.png,Stimuli/BlurLevel5/NumberedMorphs/BlurEditedMorph23.png,Stimuli/BlurLevel5/OriginalBlur/BlurEditedMorph23.png,Stimuli/BlurMorphTrio/EditedMorph23.png,010063right.gif,Stimuli/normal_thumbnails/23right.gif,0,0,0,0,0,39,39,22,,,80,1,40,136,-1.798349501,1.736645926,23,284.749781,285.2497119,284.749781,285.2497119,94.55782313,1574374673,1574374678,5.400948048,17,19,4,4,1574374671,1574374673,,,JP,1,19,M,Undergrad,2019_Nov_21_1413,AdjustExp1,3.1.5,60.2617854,Experiment
98,Stimuli/Morph98.JPG,Stimuli/Morph98.png,Stimuli/BlurLevel5/BlurEditedMorph98,Stimuli/BlurLevel5/BlurEditedMorph98.png,Stimuli/BlurLevel5/NumberedMorphs/BlurEditedMorph98.png,Stimuli/BlurLevel5/OriginalBlur/BlurEditedMorph98.png,Stimuli/BlurMorphTrio/EditedMorph98.png,020298right.gif,Stimuli/normal_thumbnails/98right.gif,0,0,0,0,0,40,40,97,,,82,1,41,339,2.333951066,-0.895919874,98,292.6319363,293.1329679,292.6319363,293.1329679,90.47619048,1574374681,1574374684,3.633436203,92,105,-7,-7,1574374678,1574374681,,,JP,1,19,M,Undergrad,2019_Nov_21_1413,AdjustExp1,3.1.5,60.2617854,Experiment
52,Stimuli/Morph52.JPG,Stimuli/Morph52.png,Stimuli/BlurLevel5/BlurEditedMorph52,Stimuli/BlurLevel5/BlurEditedMorph52.png,Stimuli/BlurLevel5/NumberedMorphs/BlurEditedMorph52.png,Stimuli/BlurLevel5/OriginalBlur/BlurEditedMorph52.png,Stimuli/BlurMorphTrio/EditedMorph52.png,010148right.gif,Stimuli/normal_thumbnails/52right.gif,0,0,0,0,0,41,41,51,,,41,1,42,166,-2.425739316,0.604804739,52,298.8494622,299.3487012,298.8494622,299.3487012,97.27891156,1574374687,1574374689,1.817433834,67,50,2,2,1574374685,1574374687,,,JP,1,19,M,Undergrad,2019_Nov_21_1413,AdjustExp1,3.1.5,60.2617854,Experiment
69,Stimuli/Morph69.JPG,Stimuli/Morph69.png,Stimuli/BlurLevel5/BlurEditedMorph69,Stimuli/BlurLevel5/BlurEditedMorph69.png,Stimuli/BlurLevel5/NumberedMorphs/BlurEditedMorph69.png,Stimuli/BlurLevel5/OriginalBlur/BlurEditedMorph69.png,Stimuli/BlurMorphTrio/EditedMorph69.png,020220right.gif,Stimuli/normal_thumbnails/69right.gif,0,0,0,0,0,42,42,68,,,32,1,43,77,0.562377636,2.435925162,69,303.4162958,303.9150588,303.4162958,303.9150588,82.31292517,1574374691,1574374694,2.765521049,56,56,13,13,1574374689,1574374691,,,JP,1,19,M,Undergrad,2019_Nov_21_1413,AdjustExp1,3.1.5,60.2617854,Experiment
5,Stimuli/Morph5.JPG,Stimuli/Morph5.png,Stimuli/BlurLevel5/BlurEditedMorph5,Stimuli/BlurLevel5/BlurEditedMorph5.png,Stimuli/BlurLevel5/NumberedMorphs/BlurEditedMorph5.png,Stimuli/BlurLevel5/OriginalBlur/BlurEditedMorph5.png,Stimuli/BlurMorphTrio/EditedMorph5.png,010011right.gif,Stimuli/normal_thumbnails/5right.gif,0,0,0,0,0,43,43,4,,,1,1,44,135,-1.767766953,1.767766953,5,308.1491046,308.6492524,308.1491046,308.6492524,80.95238095,1574374696,1574374700,3.950220823,127,19,-14,-14,1574374695,1574374696,,,JP,1,19,M,Undergrad,2019_Nov_21_1413,AdjustExp1,3.1.5,60.2617854,Experiment
17,Stimuli/Morph17.JPG,Stimuli/Morph17.png,Stimuli/BlurLevel5/BlurEditedMorph17,Stimuli/BlurLevel5/BlurEditedMorph17.png,Stimuli/BlurLevel5/NumberedMorphs/BlurEditedMorph17.png,Stimuli/BlurLevel5/OriginalBlur/BlurEditedMorph17.png,Stimuli/BlurMorphTrio/EditedMorph17.png,010036right.gif,Stimuli/normal_thumbnails/17right.gif,0,0,0,0,0,44,44,16,,,66,1,45,71,0.813920386,2.363796439,17,314.501411,314.999082,314.501411,314.999082,83.67346939,1574374703,1574374706,3.599978924,39,29,-12,-12,1574374700,1574374703,,,JP,1,19,M,Undergrad,2019_Nov_21_1413,AdjustExp1,3.1.5,60.2617854,Experiment
54,Stimuli/Morph54.JPG,Stimuli/Morph54.png,Stimuli/BlurLevel5/BlurEditedMorph54,Stimuli/BlurLevel5/BlurEditedMorph54.png,Stimuli/BlurLevel5/NumberedMorphs/BlurEditedMorph54.png,Stimuli/BlurLevel5/OriginalBlur/BlurEditedMorph54.png,Stimuli/BlurMorphTrio/EditedMorph54.png,010150right.gif,Stimuli/normal_thumbnails/54right.gif,0,0,0,0,0,45,45,53,,,60,1,46,80,0.434120444,2.462019383,54,320.9817371,321.4823227,320.9817371,321.4823227,98.63945578,1574374709,1574374712,3.066742182,137,53,1,1,1574374706,1574374709,,,JP,1,19,M,Undergrad,2019_Nov_21_1413,AdjustExp1,3.1.5,60.2617854,Experiment
83,Stimuli/Morph83.JPG,Stimuli/Morph83.png,Stimuli/BlurLevel5/BlurEditedMorph83,Stimuli/BlurLevel5/BlurEditedMorph83.png,Stimuli/BlurLevel5/NumberedMorphs/BlurEditedMorph83.png,Stimuli/BlurLevel5/OriginalBlur/BlurEditedMorph83.png,Stimuli/BlurMorphTrio/EditedMorph83.png,020259right.gif,Stimuli/normal_thumbnails/83right.gif,0,0,0,0,0,46,46,82,,,81,1,47,278,0.347932752,-2.475670172,83,326.4834502,326.9823534,326.4834502,326.9823534,85.03401361,1574374715,1574374717,2.299690962,17,94,-11,-11,1574374712,1574374715,,,JP,1,19,M,Undergrad,2019_Nov_21_1413,AdjustExp1,3.1.5,60.2617854,Experiment
49,Stimuli/Morph49.JPG,Stimuli/Morph49.png,Stimuli/BlurLevel5/BlurEditedMorph49,Stimuli/BlurLevel5/BlurEditedMorph49.png,Stimuli/BlurLevel5/NumberedMorphs/BlurEditedMorph49.png,Stimuli/BlurLevel5/OriginalBlur/BlurEditedMorph49.png,Stimuli/BlurMorphTrio/EditedMorph49.png,010135right.gif,Stimuli/normal_thumbnails/49right.gif,0,0,0,0,0,47,47,48,,,60,1,48,85,0.217889357,2.490486745,49,331.2014272,331.6988715,331.2014272,331.6988715,97.27891156,1574374719,1574374722,3.000727177,105,51,-2,-2,1574374717,1574374719,,,JP,1,19,M,Undergrad,2019_Nov_21_1413,AdjustExp1,3.1.5,60.2617854,Experiment
67,Stimuli/Morph67.JPG,Stimuli/Morph67.png,Stimuli/BlurLevel5/BlurEditedMorph67,Stimuli/BlurLevel5/BlurEditedMorph67.png,Stimuli/BlurLevel5/NumberedMorphs/BlurEditedMorph67.png,Stimuli/BlurLevel5/OriginalBlur/BlurEditedMorph67.png,Stimuli/BlurMorphTrio/EditedMorph67.png,020217right.gif,Stimuli/normal_thumbnails/67right.gif,0,0,0,0,0,48,48,66,,,36,1,49,134,-1.736645926,1.798349501,67,336.7868122,337.2818839,336.7868122,337.2818839,95.91836735,1574374725,1574374728,2.783867359,127,64,3,3,1574374723,1574374725,,,JP,1,19,M,Undergrad,2019_Nov_21_1413,AdjustExp1,3.1.5,60.2617854,Experiment
79,Stimuli/Morph79.JPG,Stimuli/Morph79.png,Stimuli/BlurLevel5/BlurEditedMorph79,Stimuli/BlurLevel5/BlurEditedMorph79.png,Stimuli/BlurLevel5/NumberedMorphs/BlurEditedMorph79.png,Stimuli/BlurLevel5/OriginalBlur/BlurEditedMorph79.png,Stimuli/BlurMorphTrio/EditedMorph79.png,020239right.gif,Stimuli/normal_thumbnails/79right.gif,0,0,0,0,0,49,49,78,,,64,1,50,115,-1.056545654,2.265769468,79,341.8341957,342.3322415,341.8341957,342.3322415,75.51020408,1574374730,1574374732,2.066013336,121,61,18,18,1574374728,1574374730,,,JP,1,19,M,Undergrad,2019_Nov_21_1413,AdjustExp1,3.1.5,60.2617854,Experiment
118,Stimuli/Morph118.JPG,Stimuli/Morph118.png,Stimuli/BlurLevel5/BlurEditedMorph118,Stimuli/BlurLevel5/BlurEditedMorph118.png,Stimuli/BlurLevel5/NumberedMorphs/BlurEditedMorph118.png,Stimuli/BlurLevel5/OriginalBlur/BlurEditedMorph118.png,Stimuli/BlurMorphTrio/EditedMorph118.png,None,None,0,0,0,0,0,50,50,117,,,84,1,51,16,2.40315424,0.68909339,118,346.1476496,346.6488822,346.1476496,346.6488822,68.70748299,1574374734,1574374740,6.283122778,81,95,23,23,1574374732,1574374734,,,JP,1,19,M,Undergrad,2019_Nov_21_1413,AdjustExp1,3.1.5,60.2617854,Experiment
39,Stimuli/Morph39.JPG,Stimuli/Morph39.png,Stimuli/BlurLevel5/BlurEditedMorph39,Stimuli/BlurLevel5/BlurEditedMorph39.png,Stimuli/BlurLevel5/NumberedMorphs/BlurEditedMorph39.png,Stimuli/BlurLevel5/OriginalBlur/BlurEditedMorph39.png,Stimuli/BlurMorphTrio/EditedMorph39.png,010109right.gif,Stimuli/normal_thumbnails/39right.gif,0,0,0,0,0,51,51,38,,,15,1,52,66,1.016841608,2.283863644,39,354.8541725,355.3484,354.8541725,355.3484,90.47619048,1574374743,1574374746,2.633906841,61,32,7,7,1574374741,1574374743,,,JP,1,19,M,Undergrad,2019_Nov_21_1413,AdjustExp1,3.1.5,60.2617854,Experiment
68,Stimuli/Morph68.JPG,Stimuli/Morph68.png,Stimuli/BlurLevel5/BlurEditedMorph68,Stimuli/BlurLevel5/BlurEditedMorph68.png,Stimuli/BlurLevel5/NumberedMorphs/BlurEditedMorph68.png,Stimuli/BlurLevel5/OriginalBlur/BlurEditedMorph68.png,Stimuli/BlurMorphTrio/EditedMorph68.png,020218right.gif,Stimuli/normal_thumbnails/68right.gif,0,0,0,0,0,52,52,67,,,58,1,53,49,1.640147572,1.886773951,68,360.0704554,360.565316,360.0704554,360.565316,72.78911565,1574374748,1574374750,1.733477831,45,48,20,20,1574374746,1574374748,,,JP,1,19,M,Undergrad,2019_Nov_21_1413,AdjustExp1,3.1.5,60.2617854,Experiment
105,Stimuli/Morph105.JPG,Stimuli/Morph105.png,Stimuli/BlurLevel5/BlurEditedMorph105,Stimuli/BlurLevel5/BlurEditedMorph105.png,Stimuli/BlurLevel5/NumberedMorphs/BlurEditedMorph105.png,Stimuli/BlurLevel5/OriginalBlur/BlurEditedMorph105.png,Stimuli/BlurMorphTrio/EditedMorph105.png,None,None,0,0,0,0,0,53,53,104,,,69,1,54,278,0.347932752,-2.475670172,105,364.4501334,364.947995,364.4501334,364.947995,95.91836735,1574374752,1574374755,2.783593893,53,102,3,3,1574374750,1574374752,,,JP,1,19,M,Undergrad,2019_Nov_21_1413,AdjustExp1,3.1.5,60.2617854,Experiment
63,Stimuli/Morph63.JPG,Stimuli/Morph63.png,Stimuli/BlurLevel5/BlurEditedMorph63,Stimuli/BlurLevel5/BlurEditedMorph63.png,Stimuli/BlurLevel5/NumberedMorphs/BlurEditedMorph63.png,Stimuli/BlurLevel5/OriginalBlur/BlurEditedMorph63.png,Stimuli/BlurMorphTrio/EditedMorph63.png,020206right.gif,Stimuli/normal_thumbnails/63right.gif,0,0,0,0,0,54,54,62,,,36,1,55,346,2.425739316,-0.604804739,63,369.7670266,370.2649231,369.7670266,370.2649231,98.63945578,1574374758,1574374760,1.933128834,76,62,1,1,1574374756,1574374758,,,JP,1,19,M,Undergrad,2019_Nov_21_1413,AdjustExp1,3.1.5,60.2617854,Experiment
66,Stimuli/Morph66.JPG,Stimuli/Morph66.png,Stimuli/BlurLevel5/BlurEditedMorph66,Stimuli/BlurLevel5/BlurEditedMorph66.png,Stimuli/BlurLevel5/NumberedMorphs/BlurEditedMorph66.png,Stimuli/BlurLevel5/OriginalBlur/BlurEditedMorph66.png,Stimuli/BlurMorphTrio/EditedMorph66.png,020212right.gif,Stimuli/normal_thumbnails/66right.gif,0,0,0,0,0,55,55,65,,,37,1,56,283,0.562377636,-2.435925162,66,374.467694,374.9652878,374.467694,374.9652878,64.62585034,1574374762,1574374766,3.951108217,79,40,26,26,1574374760,1574374762,,,JP,1,19,M,Undergrad,2019_Nov_21_1413,AdjustExp1,3.1.5,60.2617854,Experiment
87,Stimuli/Morph87.JPG,Stimuli/Morph87.png,Stimuli/BlurLevel5/BlurEditedMorph87,Stimuli/BlurLevel5/BlurEditedMorph87.png,Stimuli/BlurLevel5/NumberedMorphs/BlurEditedMorph87.png,Stimuli/BlurLevel5/OriginalBlur/BlurEditedMorph87.png,Stimuli/BlurMorphTrio/EditedMorph87.png,020270right.gif,Stimuli/normal_thumbnails/87right.gif,0,0,0,0,0,56,56,86,,,73,1,57,160,-2.349231552,0.855050358,87,380.9472694,381.4482026,380.9472694,381.4482026,87.75510204,1574374769,1574374771,1.850509167,117,96,-9,-9,1574374767,1574374769,,,JP,1,19,M,Undergrad,2019_Nov_21_1413,AdjustExp1,3.1.5,60.2617854,Experiment
24,Stimuli/Morph24.JPG,Stimuli/Morph24.png,Stimuli/BlurLevel5/BlurEditedMorph24,Stimuli/BlurLevel5/BlurEditedMorph24.png,Stimuli/BlurLevel5/NumberedMorphs/BlurEditedMorph24.png,Stimuli/BlurLevel5/OriginalBlur/BlurEditedMorph24.png,Stimuli/BlurMorphTrio/EditedMorph24.png,010068right.gif,Stimuli/normal_thumbnails/24right.gif,0,0,0,0,0,57,57,23,,,57,1,58,64,1.095927867,2.246985116,24,385.5843442,386.0815491,385.5843442,386.0815491,98.63945578,1574374774,1574374778,4.350386858,53,25,-1,-1,1574374771,1574374774,,,JP,1,19,M,Undergrad,2019_Nov_21_1413,AdjustExp1,3.1.5,60.2617854,Experiment
57,Stimuli/Morph57.JPG,Stimuli/Morph57.png,Stimuli/BlurLevel5/BlurEditedMorph57,Stimuli/BlurLevel5/BlurEditedMorph57.png,Stimuli/BlurLevel5/NumberedMorphs/BlurEditedMorph57.png,Stimuli/BlurLevel5/OriginalBlur/BlurEditedMorph57.png,Stimuli/BlurMorphTrio/EditedMorph57.png,010158right.gif,Stimuli/normal_thumbnails/57right.gif,0,0,0,0,0,58,58,56,,,67,1,59,211,-2.142918252,-1.287595187,57,392.4479996,392.9475746,392.4479996,392.9475746,76.8707483,1574374780,1574374783,2.416734934,68,40,17,17,1574374778,1574374780,,,JP,1,19,M,Undergrad,2019_Nov_21_1413,AdjustExp1,3.1.5,60.2617854,Experiment
75,Stimuli/Morph75.JPG,Stimuli/Morph75.png,Stimuli/BlurLevel5/BlurEditedMorph75,Stimuli/BlurLevel5/BlurEditedMorph75.png,Stimuli/BlurLevel5/NumberedMorphs/BlurEditedMorph75.png,Stimuli/BlurLevel5/OriginalBlur/BlurEditedMorph75.png,Stimuli/BlurMorphTrio/EditedMorph75.png,020233right.gif,Stimuli/normal_thumbnails/75right.gif,0,0,0,0,0,59,59,74,,,23,1,60,346,2.425739316,-0.604804739,75,397.1812138,397.6812704,397.1812138,397.6812704,40.13605442,1574374785,1574374789,3.516750813,12,119,-44,-44,1574374783,1574374785,,,JP,1,19,M,Undergrad,2019_Nov_21_1413,AdjustExp1,3.1.5,60.2617854,Experiment
2,Stimuli/Morph2.JPG,Stimuli/Morph2.png,Stimuli/BlurLevel5/BlurEditedMorph2,Stimuli/BlurLevel5/BlurEditedMorph2.png,Stimuli/BlurLevel5/NumberedMorphs/BlurEditedMorph2.png,Stimuli/BlurLevel5/OriginalBlur/BlurEditedMorph2.png,Stimuli/BlurMorphTrio/EditedMorph2.png,010006right.gif,Stimuli/normal_thumbnails/2right.gif,0,0,0,0,0,60,60,1,,,14,1,61,284,0.604804739,-2.425739316,2,403.1301374,403.6310293,403.1301374,403.6310293,85.03401361,1574374791,1574374794,3.166710854,89,13,-11,-11,1574374789,1574374791,,,JP,1,19,M,Undergrad,2019_Nov_21_1413,AdjustExp1,3.1.5,60.2617854,Experiment
131,Stimuli/Morph131.JPG,Stimuli/Morph131.png,Stimuli/BlurLevel5/BlurEditedMorph131,Stimuli/BlurLevel5/BlurEditedMorph131.png,Stimuli/BlurLevel5/NumberedMorphs/BlurEditedMorph131.png,Stimuli/BlurLevel5/OriginalBlur/BlurEditedMorph131.png,Stimuli/BlurMorphTrio/EditedMorph131.png,None,None,0,0,0,0,0,61,61,130,,,87,1,62,329,2.142918252,-1.287595187,131,408.6337928,409.1311602,408.6337928,409.1311602,86.39455782,1574374797,1574374800,3.183196068,8,141,-10,-10,1574374795,1574374797,,,JP,1,19,M,Undergrad,2019_Nov_21_1413,AdjustExp1,3.1.5,60.2617854,Experiment
97,Stimuli/Morph97.JPG,Stimuli/Morph97.png,Stimuli/BlurLevel5/BlurEditedMorph97,Stimuli/BlurLevel5/BlurEditedMorph97.png,Stimuli/BlurLevel5/NumberedMorphs/BlurEditedMorph97.png,Stimuli/BlurLevel5/OriginalBlur/BlurEditedMorph97.png,Stimuli/BlurMorphTrio/EditedMorph97.png,020294right.gif,Stimuli/normal_thumbnails/97right.gif,0,0,0,0,0,62,62,96,,,84,1,63,85,0.217889357,2.490486745,97,414.2156844,414.7146901,414.2156844,414.7146901,91.83673469,1574374802,1574374804,1.849318981,115,103,-6,-6,1574374800,1574374802,,,JP,1,19,M,Undergrad,2019_Nov_21_1413,AdjustExp1,3.1.5,60.2617854,Experiment
21,Stimuli/Morph21.JPG,Stimuli/Morph21.png,Stimuli/BlurLevel5/BlurEditedMorph21,Stimuli/BlurLevel5/BlurEditedMorph21.png,Stimuli/BlurLevel5/NumberedMorphs/BlurEditedMorph21.png,Stimuli/BlurLevel5/OriginalBlur/BlurEditedMorph21.png,Stimuli/BlurMorphTrio/EditedMorph21.png,010049right.gif,Stimuli/normal_thumbnails/21right.gif,0,0,0,0,0,63,63,20,,,28,1,64,89,0.043631016,2.499619238,21,418.8471472,419.3474306,418.8471472,419.3474306,98.63945578,1574374807,1574374810,2.683407068,95,20,1,1,1574374804,1574374807,,,JP,1,19,M,Undergrad,2019_Nov_21_1413,AdjustExp1,3.1.5,60.2617854,Experiment
90,Stimuli/Morph90.JPG,Stimuli/Morph90.png,Stimuli/BlurLevel5/BlurEditedMorph90,Stimuli/BlurLevel5/BlurEditedMorph90.png,Stimuli/BlurLevel5/NumberedMorphs/BlurEditedMorph90.png,Stimuli/BlurLevel5/OriginalBlur/BlurEditedMorph90.png,Stimuli/BlurMorphTrio/EditedMorph90.png,020275right.gif,Stimuli/normal_thumbnails/90right.gif,0,0,0,0,0,64,64,89,,,72,1,65,5,2.490486745,0.217889357,90,424.1502475,424.6476629,424.1502475,424.6476629,98.63945578,1574374812,1574374815,2.483533621,88,91,-1,-1,1574374810,1574374812,,,JP,1,19,M,Undergrad,2019_Nov_21_1413,AdjustExp1,3.1.5,60.2617854,Experiment
85,Stimuli/Morph85.JPG,Stimuli/Morph85.png,Stimuli/BlurLevel5/BlurEditedMorph85,Stimuli/BlurLevel5/BlurEditedMorph85.png,Stimuli/BlurLevel5/NumberedMorphs/BlurEditedMorph85.png,Stimuli/BlurLevel5/OriginalBlur/BlurEditedMorph85.png,Stimuli/BlurMorphTrio/EditedMorph85.png,020264right.gif,Stimuli/normal_thumbnails/85right.gif,0,0,0,0,0,65,65,84,,,97,1,66,321,1.942864904,-1.573300978,85,429.4633096,429.9629376,429.4633096,429.9629376,93.19727891,1574374817,1574374820,2.783412933,89,90,-5,-5,1574374815,1574374817,,,JP,1,19,M,Undergrad,2019_Nov_21_1413,AdjustExp1,3.1.5,60.2617854,Experiment
30,Stimuli/Morph30.JPG,Stimuli/Morph30.png,Stimuli/BlurLevel5/BlurEditedMorph30,Stimuli/BlurLevel5/BlurEditedMorph30.png,Stimuli/BlurLevel5/NumberedMorphs/BlurEditedMorph30.png,Stimuli/BlurLevel5/OriginalBlur/BlurEditedMorph30.png,Stimuli/BlurMorphTrio/EditedMorph30.png,010076right.gif,Stimuli/normal_thumbnails/30right.gif,0,0,0,0,0,66,66,29,,,64,1,67,255,-0.647047613,-2.414814566,30,434.6006658,435.0973832,434.6006658,435.0973832,87.75510204,1574374823,1574374825,2.066618919,8,21,9,9,1574374821,1574374823,,,JP,1,19,M,Undergrad,2019_Nov_21_1413,AdjustExp1,3.1.5,60.2617854,Experiment
31,Stimuli/Morph31.JPG,Stimuli/Morph31.png,Stimuli/BlurLevel5/BlurEditedMorph31,Stimuli/BlurLevel5/BlurEditedMorph31.png,Stimuli/BlurLevel5/NumberedMorphs/BlurEditedMorph31.png,Stimuli/BlurLevel5/OriginalBlur/BlurEditedMorph31.png,Stimuli/BlurMorphTrio/EditedMorph31.png,010079right.gif,Stimuli/normal_thumbnails/31right.gif,0,0,0,0,0,67,67,30,,,34,1,68,343,2.39076189,-0.730929262,31,439.5333297,440.0306857,439.5333297,440.0306857,95.91836735,1574374828,1574374830,2.900609732,106,28,3,3,1574374825,1574374828,,,JP,1,19,M,Undergrad,2019_Nov_21_1413,AdjustExp1,3.1.5,60.2617854,Experiment
104,Stimuli/Morph104.JPG,Stimuli/Morph104.png,Stimuli/BlurLevel5/BlurEditedMorph104,Stimuli/BlurLevel5/BlurEditedMorph104.png,Stimuli/BlurLevel5/NumberedMorphs/BlurEditedMorph104.png,Stimuli/BlurLevel5/OriginalBlur/BlurEditedMorph104.png,Stimuli/BlurMorphTrio/EditedMorph104.png,None,None,0,0,0,0,0,68,68,103,,,91,1,69,11,2.454067959,0.477022488,104,445.1801619,445.6801845,445.1801619,445.6801845,98.63945578,1574374833,1574374835,1.366739035,129,103,1,1,1574374831,1574374833,,,JP,1,19,M,Undergrad,2019_Nov_21_1413,AdjustExp1,3.1.5,60.2617854,Experiment
35,Stimuli/Morph35.JPG,Stimuli/Morph35.png,Stimuli/BlurLevel5/BlurEditedMorph35,Stimuli/BlurLevel5/BlurEditedMorph35.png,Stimuli/BlurLevel5/NumberedMorphs/BlurEditedMorph35.png,Stimuli/BlurLevel5/OriginalBlur/BlurEditedMorph35.png,Stimuli/BlurMorphTrio/EditedMorph35.png,010094right.gif,Stimuli/normal_thumbnails/35right.gif,0,0,0,0,0,69,69,34,,,28,1,70,308,1.539153688,-1.970026884,35,449.4041531,449.897241,449.4041531,449.897241,97.27891156,1574374837,1574374840,2.800315857,111,33,2,2,1574374835,1574374837,,,JP,1,19,M,Undergrad,2019_Nov_21_1413,AdjustExp1,3.1.5,60.2617854,Experiment
10,Stimuli/Morph10.JPG,Stimuli/Morph10.png,Stimuli/BlurLevel5/BlurEditedMorph10,Stimuli/BlurLevel5/BlurEditedMorph10.png,Stimuli/BlurLevel5/NumberedMorphs/BlurEditedMorph10.png,Stimuli/BlurLevel5/OriginalBlur/BlurEditedMorph10.png,Stimuli/BlurMorphTrio/EditedMorph10.png,010016right.gif,Stimuli/normal_thumbnails/10right.gif,0,0,0,0,0,70,70,9,,,12,1,71,199,-2.363796439,-0.813920386,10,454.6635336,455.1634519,454.6635336,455.1634519,90.47619048,1574374843,1574374846,3.516690969,67,17,-7,-7,1574374840,1574374843,,,JP,1,19,M,Undergrad,2019_Nov_21_1413,AdjustExp1,3.1.5,60.2617854,Experiment
112,Stimuli/Morph112.JPG,Stimuli/Morph112.png,Stimuli/BlurLevel5/BlurEditedMorph112,Stimuli/BlurLevel5/BlurEditedMorph112.png,Stimuli/BlurLevel5/NumberedMorphs/BlurEditedMorph112.png,Stimuli/BlurLevel5/OriginalBlur/BlurEditedMorph112.png,Stimuli/BlurMorphTrio/EditedMorph112.png,None,None,0,0,0,0,0,71,71,111,,,13,1,72,331,2.186549268,-1.212024051,112,460.6627059,461.1638896,460.6627059,461.1638896,94.55782313,1574374849,1574374851,2.466315985,66,108,4,4,1574374846,1574374849,,,JP,1,19,M,Undergrad,2019_Nov_21_1413,AdjustExp1,3.1.5,60.2617854,Experiment
108,Stimuli/Morph108.JPG,Stimuli/Morph108.png,Stimuli/BlurLevel5/BlurEditedMorph108,Stimuli/BlurLevel5/BlurEditedMorph108.png,Stimuli/BlurLevel5/NumberedMorphs/BlurEditedMorph108.png,Stimuli/BlurLevel5/OriginalBlur/BlurEditedMorph108.png,Stimuli/BlurMorphTrio/EditedMorph108.png,None,None,0,0,0,0,0,72,72,107,,,40,1,73,233,-1.504537558,-1.996588775,108,465.5330757,466.0303303,465.5330757,466.0303303,85.03401361,1574374854,1574374856,2.567015171,114,97,11,11,1574374851,1574374854,,,JP,1,19,M,Undergrad,2019_Nov_21_1413,AdjustExp1,3.1.5,60.2617854,Experiment
14,Stimuli/Morph14.JPG,Stimuli/Morph14.png,Stimuli/BlurLevel5/BlurEditedMorph14,Stimuli/BlurLevel5/BlurEditedMorph14.png,Stimuli/BlurLevel5/NumberedMorphs/BlurEditedMorph14.png,Stimuli/BlurLevel5/OriginalBlur/BlurEditedMorph14.png,Stimuli/BlurMorphTrio/EditedMorph14.png,010030right.gif,Stimuli/normal_thumbnails/14right.gif,0,0,0,0,0,73,73,13,,,8,1,74,142,-1.970026884,1.539153688,14,470.8005779,471.2963278,470.8005779,471.2963278,94.55782313,1574374859,1574374861,2.233192921,140,18,-4,-4,1574374856,1574374859,,,JP,1,19,M,Undergrad,2019_Nov_21_1413,AdjustExp1,3.1.5,60.2617854,Experiment
78,Stimuli/Morph78.JPG,Stimuli/Morph78.png,Stimuli/BlurLevel5/BlurEditedMorph78,Stimuli/BlurLevel5/BlurEditedMorph78.png,Stimuli/BlurLevel5/NumberedMorphs/BlurEditedMorph78.png,Stimuli/BlurLevel5/OriginalBlur/BlurEditedMorph78.png,Stimuli/BlurMorphTrio/EditedMorph78.png,020238right.gif,Stimuli/normal_thumbnails/78right.gif,0,0,0,0,0,74,74,77,,,72,1,75,234,-1.469463131,-2.022542486,78,475.4800663,475.9804663,475.4800663,475.9804663,90.47619048,1574374864,1574374868,4.617253065,100,85,-7,-7,1574374861,1574374863,,,JP,1,19,M,Undergrad,2019_Nov_21_1413,AdjustExp1,3.1.5,60.2617854,Experiment
106,Stimuli/Morph106.JPG,Stimuli/Morph106.png,Stimuli/BlurLevel5/BlurEditedMorph106,Stimuli/BlurLevel5/BlurEditedMorph106.png,Stimuli/BlurLevel5/NumberedMorphs/BlurEditedMorph106.png,Stimuli/BlurLevel5/OriginalBlur/BlurEditedMorph106.png,Stimuli/BlurMorphTrio/EditedMorph106.png,None,None,0,0,0,0,0,75,75,105,,,83,1,76,183,-2.496573837,-0.130839891,106,482.8628616,483.3638114,482.8628616,483.3638114,83.67346939,1574374871,1574374873,2.000525236,76,94,12,12,1574374868,1574374871,,,JP,1,19,M,Undergrad,2019_Nov_21_1413,AdjustExp1,3.1.5,60.2617854,Experiment
22,Stimuli/Morph22.JPG,Stimuli/Morph22.png,Stimuli/BlurLevel5/BlurEditedMorph22,Stimuli/BlurLevel5/BlurEditedMorph22.png,Stimuli/BlurLevel5/NumberedMorphs/BlurEditedMorph22.png,Stimuli/BlurLevel5/OriginalBlur/BlurEditedMorph22.png,Stimuli/BlurMorphTrio/EditedMorph22.png,010055right.gif,Stimuli/normal_thumbnails/22right.gif,0,0,0,0,0,76,76,21,,,67,1,77,60,1.25,2.165063509,22,487.6131556,488.1164025,487.6131556,488.1164025,98.63945578,1574374876,1574374881,5.116525173,97,23,-1,-1,1574374873,1574374876,,,JP,1,19,M,Undergrad,2019_Nov_21_1413,AdjustExp1,3.1.5,60.2617854,Experiment
119,Stimuli/Morph119.JPG,Stimuli/Morph119.png,Stimuli/BlurLevel5/BlurEditedMorph119,Stimuli/BlurLevel5/BlurEditedMorph119.png,Stimuli/BlurLevel5/NumberedMorphs/BlurEditedMorph119.png,Stimuli/BlurLevel5/OriginalBlur/BlurEditedMorph119.png,Stimuli/BlurMorphTrio/EditedMorph119.png,None,None,0,0,0,0,0,77,77,118,,,27,1,78,88,0.087248742,2.498477068,119,495.2854383,495.7800203,495.2854383,495.7800203,71.42857143,1574374883,1574374886,2.699933052,142,98,21,21,1574374881,1574374883,,,JP,1,19,M,Undergrad,2019_Nov_21_1413,AdjustExp1,3.1.5,60.2617854,Experiment
60,Stimuli/Morph60.JPG,Stimuli/Morph60.png,Stimuli/BlurLevel5/BlurEditedMorph60,Stimuli/BlurLevel5/BlurEditedMorph60.png,Stimuli/BlurLevel5/NumberedMorphs/BlurEditedMorph60.png,Stimuli/BlurLevel5/OriginalBlur/BlurEditedMorph60.png,Stimuli/BlurMorphTrio/EditedMorph60.png,020200right.gif,Stimuli/normal_thumbnails/60right.gif,0,0,0,0,0,78,78,59,,,82,1,79,290,0.855050358,-2.349231552,60,500.7294848,501.2300405,500.7294848,501.2300405,98.63945578,1574374889,1574374891,2.433410168,111,59,1,1,1574374886,1574374889,,,JP,1,19,M,Undergrad,2019_Nov_21_1413,AdjustExp1,3.1.5,60.2617854,Experiment
58,Stimuli/Morph58.JPG,Stimuli/Morph58.png,Stimuli/BlurLevel5/BlurEditedMorph58,Stimuli/BlurLevel5/BlurEditedMorph58.png,Stimuli/BlurLevel5/NumberedMorphs/BlurEditedMorph58.png,Stimuli/BlurLevel5/OriginalBlur/BlurEditedMorph58.png,Stimuli/BlurMorphTrio/EditedMorph58.png,010159right.gif,Stimuli/normal_thumbnails/58right.gif,0,0,0,0,0,79,79,57,,,61,1,80,199,-2.363796439,-0.813920386,58,505.9956396,506.4965237,505.9956396,506.4965237,80.95238095,1574374894,1574374897,2.700668812,106,44,14,14,1574374891,1574374894,,,JP,1,19,M,Undergrad,2019_Nov_21_1413,AdjustExp1,3.1.5,60.2617854,Experiment
19,Stimuli/Morph19.JPG,Stimuli/Morph19.png,Stimuli/BlurLevel5/BlurEditedMorph19,Stimuli/BlurLevel5/BlurEditedMorph19.png,Stimuli/BlurLevel5/NumberedMorphs/BlurEditedMorph19.png,Stimuli/BlurLevel5/OriginalBlur/BlurEditedMorph19.png,Stimuli/BlurMorphTrio/EditedMorph19.png,010045right.gif,Stimuli/normal_thumbnails/19right.gif,0,0,0,0,0,80,80,18,,,86,1,81,119,-1.212024051,2.186549268,19,511.4463876,511.946186,511.4463876,511.946186,91.83673469,1574374900,1574374902,2.600078106,51,25,-6,-6,1574374897,1574374900,,,JP,1,19,M,Undergrad,2019_Nov_21_1413,AdjustExp1,3.1.5,60.2617854,Experiment
143,Stimuli/Morph143.JPG,Stimuli/Morph143.png,Stimuli/BlurLevel5/BlurEditedMorph143,Stimuli/BlurLevel5/BlurEditedMorph143.png,Stimuli/BlurLevel5/NumberedMorphs/BlurEditedMorph143.png,Stimuli/BlurLevel5/OriginalBlur/BlurEditedMorph143.png,Stimuli/BlurMorphTrio/EditedMorph143.png,None,None,0,0,0,0,0,81,81,142,,,32,1,82,198,-2.377641291,-0.772542486,143,516.6624748,517.1627824,516.6624748,517.1627824,95.91836735,1574374905,1574374908,3.633352041,36,146,-3,-3,1574374903,1574374905,,,JP,1,19,M,Undergrad,2019_Nov_21_1413,AdjustExp1,3.1.5,60.2617854,Experiment
15,Stimuli/Morph15.JPG,Stimuli/Morph15.png,Stimuli/BlurLevel5/BlurEditedMorph15,Stimuli/BlurLevel5/BlurEditedMorph15.png,Stimuli/BlurLevel5/NumberedMorphs/BlurEditedMorph15.png,Stimuli/BlurLevel5/OriginalBlur/BlurEditedMorph15.png,Stimuli/BlurMorphTrio/EditedMorph15.png,010031right.gif,Stimuli/normal_thumbnails/15right.gif,0,0,0,0,0,82,82,14,,,40,1,83,159,-2.333951066,0.895919874,15,522.6629675,523.1630381,522.6629675,523.1630381,95.91836735,1574374911,1574374918,7.033477068,73,18,-3,-3,1574374909,1574374911,,,JP,1,19,M,Undergrad,2019_Nov_21_1413,AdjustExp1,3.1.5,60.2617854,Experiment
136,Stimuli/Morph136.JPG,Stimuli/Morph136.png,Stimuli/BlurLevel5/BlurEditedMorph136,Stimuli/BlurLevel5/BlurEditedMorph136.png,Stimuli/BlurLevel5/NumberedMorphs/BlurEditedMorph136.png,Stimuli/BlurLevel5/OriginalBlur/BlurEditedMorph136.png,Stimuli/BlurMorphTrio/EditedMorph136.png,None,None,0,0,0,0,0,83,83,135,,,19,1,84,183,-2.496573837,-0.130839891,136,532.2800267,532.7792362,532.2800267,532.7792362,95.91836735,1574374920,1574374924,3.199681997,134,139,-3,-3,1574374918,1574374920,,,JP,1,19,M,Undergrad,2019_Nov_21_1413,AdjustExp1,3.1.5,60.2617854,Experiment
125,Stimuli/Morph125.JPG,Stimuli/Morph125.png,Stimuli/BlurLevel5/BlurEditedMorph125,Stimuli/BlurLevel5/BlurEditedMorph125.png,Stimuli/BlurLevel5/NumberedMorphs/BlurEditedMorph125.png,Stimuli/BlurLevel5/OriginalBlur/BlurEditedMorph125.png,Stimuli/BlurMorphTrio/EditedMorph125.png,None,None,0,0,0,0,0,84,84,124,,,25,1,85,26,2.246985116,1.095927867,125,537.9624404,538.4626773,537.9624404,538.4626773,89.11564626,1574374926,1574374928,1.666714191,100,117,8,8,1574374924,1574374926,,,JP,1,19,M,Undergrad,2019_Nov_21_1413,AdjustExp1,3.1.5,60.2617854,Experiment
66,Stimuli/Morph66.JPG,Stimuli/Morph66.png,Stimuli/BlurLevel5/BlurEditedMorph66,Stimuli/BlurLevel5/BlurEditedMorph66.png,Stimuli/BlurLevel5/NumberedMorphs/BlurEditedMorph66.png,Stimuli/BlurLevel5/OriginalBlur/BlurEditedMorph66.png,Stimuli/BlurMorphTrio/EditedMorph66.png,020212right.gif,Stimuli/normal_thumbnails/66right.gif,1,0,1,0,0,0,0,65,,,65,2,1,209,-2.186549268,-1.212024051,66,562.061355,562.5623861,562.061355,562.5623861,70.06802721,1574374950,1574374952,1.482707977,23,44,22,22,1574374948,1574374950,space,19.0239014,JP,1,19,M,Undergrad,2019_Nov_21_1413,AdjustExp1,3.1.5,60.2617854,Experiment
7,Stimuli/Morph7.JPG,Stimuli/Morph7.png,Stimuli/BlurLevel5/BlurEditedMorph7,Stimuli/BlurLevel5/BlurEditedMorph7.png,Stimuli/BlurLevel5/NumberedMorphs/BlurEditedMorph7.png,Stimuli/BlurLevel5/OriginalBlur/BlurEditedMorph7.png,Stimuli/BlurMorphTrio/EditedMorph7.png,010013right.gif,Stimuli/normal_thumbnails/7right.gif,1,0,1,0,0,1,1,6,,,32,2,2,208,-2.207368982,-1.173678907,7,565.935188,566.4291801,565.935188,566.4291801,95.91836735,1574374954,1574374957,3.200084925,1,10,-3,-3,1574374952,1574374954,,,JP,1,19,M,Undergrad,2019_Nov_21_1413,AdjustExp1,3.1.5,60.2617854,Experiment
41,Stimuli/Morph41.JPG,Stimuli/Morph41.png,Stimuli/BlurLevel5/BlurEditedMorph41,Stimuli/BlurLevel5/BlurEditedMorph41.png,Stimuli/BlurLevel5/NumberedMorphs/BlurEditedMorph41.png,Stimuli/BlurLevel5/OriginalBlur/BlurEditedMorph41.png,Stimuli/BlurMorphTrio/EditedMorph41.png,010112right.gif,Stimuli/normal_thumbnails/41right.gif,1,0,1,0,0,2,2,40,,,16,2,3,231,-1.573300978,-1.942864904,41,571.8334855,572.3290218,571.8334855,572.3290218,90.47619048,1574374960,1574374962,1.900109053,8,34,7,7,1574374957,1574374960,,,JP,1,19,M,Undergrad,2019_Nov_21_1413,AdjustExp1,3.1.5,60.2617854,Experiment
72,Stimuli/Morph72.JPG,Stimuli/Morph72.png,Stimuli/BlurLevel5/BlurEditedMorph72,Stimuli/BlurLevel5/BlurEditedMorph72.png,Stimuli/BlurLevel5/NumberedMorphs/BlurEditedMorph72.png,Stimuli/BlurLevel5/OriginalBlur/BlurEditedMorph72.png,Stimuli/BlurMorphTrio/EditedMorph72.png,020227right.gif,Stimuli/normal_thumbnails/72right.gif,1,0,1,0,0,3,3,71,,,41,2,4,264,-0.261321158,-2.486304738,72,576.2298688,576.7282528,576.2298688,576.7282528,89.11564626,1574374964,1574374966,2.183100939,50,64,8,8,1574374962,1574374964,,,JP,1,19,M,Undergrad,2019_Nov_21_1413,AdjustExp1,3.1.5,60.2617854,Experiment
12,Stimuli/Morph12.JPG,Stimuli/Morph12.png,Stimuli/BlurLevel5/BlurEditedMorph12,Stimuli/BlurLevel5/BlurEditedMorph12.png,Stimuli/BlurLevel5/NumberedMorphs/BlurEditedMorph12.png,Stimuli/BlurLevel5/OriginalBlur/BlurEditedMorph12.png,Stimuli/BlurMorphTrio/EditedMorph12.png,010026right.gif,Stimuli/normal_thumbnails/12right.gif,1,0,1,0,0,4,4,11,,,72,2,5,150,-2.165063509,1.25,12,580.7447332,581.2457662,580.7447332,581.2457662,95.91836735,1574374969,1574374971,2.065885067,114,15,-3,-3,1574374967,1574374969,,,JP,1,19,M,Undergrad,2019_Nov_21_1413,AdjustExp1,3.1.5,60.2617854,Experiment
9,Stimuli/Morph9.JPG,Stimuli/Morph9.png,Stimuli/BlurLevel5/BlurEditedMorph9,Stimuli/BlurLevel5/BlurEditedMorph9.png,Stimuli/BlurLevel5/NumberedMorphs/BlurEditedMorph9.png,Stimuli/BlurLevel5/OriginalBlur/BlurEditedMorph9.png,Stimuli/BlurMorphTrio/EditedMorph9.png,010015right.gif,Stimuli/normal_thumbnails/9right.gif,1,0,1,0,0,5,5,8,,,81,2,6,236,-1.397982259,-2.072593931,9,585.078368,585.5783458,585.078368,585.5783458,95.91836735,1574374973,1574374976,2.883801937,35,12,-3,-3,1574374971,1574374973,,,JP,1,19,M,Undergrad,2019_Nov_21_1413,AdjustExp1,3.1.5,60.2617854,Experiment
100,Stimuli/Morph100.JPG,Stimuli/Morph100.png,Stimuli/BlurLevel5/BlurEditedMorph100,Stimuli/BlurLevel5/BlurEditedMorph100.png,Stimuli/BlurLevel5/NumberedMorphs/BlurEditedMorph100.png,Stimuli/BlurLevel5/OriginalBlur/BlurEditedMorph100.png,Stimuli/BlurMorphTrio/EditedMorph100.png,020297right.gif,Stimuli/normal_thumbnails/100right.gif,1,0,1,0,0,6,6,99,,,7,2,7,181,-2.499619238,-0.043631016,100,590.5348984,591.0282437,590.5348984,591.0282437,100,1574374979,1574374980,1.667011023,136,100,0,0,1574374976,1574374979,,,JP,1,19,M,Undergrad,2019_Nov_21_1413,AdjustExp1,3.1.5,60.2617854,Experiment
30,Stimuli/Morph30.JPG,Stimuli/Morph30.png,Stimuli/BlurLevel5/BlurEditedMorph30,Stimuli/BlurLevel5/BlurEditedMorph30.png,Stimuli/BlurLevel5/NumberedMorphs/BlurEditedMorph30.png,Stimuli/BlurLevel5/OriginalBlur/BlurEditedMorph30.png,Stimuli/BlurMorphTrio/EditedMorph30.png,010076right.gif,Stimuli/normal_thumbnails/30right.gif,1,0,1,0,0,7,7,29,,,68,2,8,195,-2.414814566,-0.647047613,30,594.8457057,595.3452838,594.8457057,595.3452838,93.19727891,1574374983,1574374987,3.800713062,132,35,-5,-5,1574374980,1574374983,,,JP,1,19,M,Undergrad,2019_Nov_21_1413,AdjustExp1,3.1.5,60.2617854,Experiment
84,Stimuli/Morph84.JPG,Stimuli/Morph84.png,Stimuli/BlurLevel5/BlurEditedMorph84,Stimuli/BlurLevel5/BlurEditedMorph84.png,Stimuli/BlurLevel5/NumberedMorphs/BlurEditedMorph84.png,Stimuli/BlurLevel5/OriginalBlur/BlurEditedMorph84.png,Stimuli/BlurMorphTrio/EditedMorph84.png,020261right.gif,Stimuli/normal_thumbnails/84right.gif,1,0,1,0,0,8,8,83,,,44,2,9,159,-2.333951066,0.895919874,84,601.2951879,601.7970242,601.2951879,601.7970242,70.06802721,1574374989,1574374992,2.549701214,34,106,-22,-22,1574374987,1574374989,,,JP,1,19,M,Undergrad,2019_Nov_21_1413,AdjustExp1,3.1.5,60.2617854,Experiment
137,Stimuli/Morph137.JPG,Stimuli/Morph137.png,Stimuli/BlurLevel5/BlurEditedMorph137,Stimuli/BlurLevel5/BlurEditedMorph137.png,Stimuli/BlurLevel5/NumberedMorphs/BlurEditedMorph137.png,Stimuli/BlurLevel5/OriginalBlur/BlurEditedMorph137.png,Stimuli/BlurMorphTrio/EditedMorph137.png,None,None,1,0,1,0,0,9,9,136,,,69,2,10,42,1.857862064,1.672826516,137,606.7286356,607.2283146,606.7286356,607.2283146,76.8707483,1574374995,1574374999,3.96564126,27,120,17,17,1574374992,1574374995,,,JP,1,19,M,Undergrad,2019_Nov_21_1413,AdjustExp1,3.1.5,60.2617854,Experiment
118,Stimuli/Morph118.JPG,Stimuli/Morph118.png,Stimuli/BlurLevel5/BlurEditedMorph118,Stimuli/BlurLevel5/BlurEditedMorph118.png,Stimuli/BlurLevel5/NumberedMorphs/BlurEditedMorph118.png,Stimuli/BlurLevel5/OriginalBlur/BlurEditedMorph118.png,Stimuli/BlurMorphTrio/EditedMorph118.png,None,None,1,0,1,0,0,10,10,117,,,19,2,11,335,2.265769468,-1.056545654,118,613.6946632,614.194759,613.6946632,614.194759,82.31292517,1574375002,1574375004,2.549123764,42,105,13,13,1574374999,1574375002,,,JP,1,19,M,Undergrad,2019_Nov_21_1413,AdjustExp1,3.1.5,60.2617854,Experiment
56,Stimuli/Morph56.JPG,Stimuli/Morph56.png,Stimuli/BlurLevel5/BlurEditedMorph56,Stimuli/BlurLevel5/BlurEditedMorph56.png,Stimuli/BlurLevel5/NumberedMorphs/BlurEditedMorph56.png,Stimuli/BlurLevel5/OriginalBlur/BlurEditedMorph56.png,Stimuli/BlurMorphTrio/EditedMorph56.png,010157right.gif,Stimuli/normal_thumbnails/56right.gif,1,0,1,0,0,11,11,55,,,77,2,12,6,2.486304738,0.261321158,56,618.847873,619.344824,618.847873,619.344824,82.31292517,1574375007,1574375010,2.633715868,118,43,13,13,1574375005,1574375007,,,JP,1,19,M,Undergrad,2019_Nov_21_1413,AdjustExp1,3.1.5,60.2617854,Experiment
64,Stimuli/Morph64.JPG,Stimuli/Morph64.png,Stimuli/BlurLevel5/BlurEditedMorph64,Stimuli/BlurLevel5/BlurEditedMorph64.png,Stimuli/BlurLevel5/NumberedMorphs/BlurEditedMorph64.png,Stimuli/BlurLevel5/OriginalBlur/BlurEditedMorph64.png,Stimuli/BlurMorphTrio/EditedMorph64.png,020208right.gif,Stimuli/normal_thumbnails/64right.gif,1,0,1,0,0,12,12,63,,,1,2,13,156,-2.283863644,1.016841608,64,623.428575,623.9284104,623.428575,623.9284104,91.83673469,1574375011,1574375015,3.750349998,51,58,6,6,1574375010,1574375011,,,JP,1,19,M,Undergrad,2019_Nov_21_1413,AdjustExp1,3.1.5,60.2617854,Experiment
133,Stimuli/Morph133.JPG,Stimuli/Morph133.png,Stimuli/BlurLevel5/BlurEditedMorph133,Stimuli/BlurLevel5/BlurEditedMorph133.png,Stimuli/BlurLevel5/NumberedMorphs/BlurEditedMorph133.png,Stimuli/BlurLevel5/OriginalBlur/BlurEditedMorph133.png,Stimuli/BlurMorphTrio/EditedMorph133.png,None,None,1,0,1,0,0,13,13,132,,,2,2,14,245,-1.056545654,-2.265769468,133,629.6781298,630.1776898,629.6781298,630.1776898,65.98639456,1574375018,1574375020,2.032748938,145,108,25,25,1574375015,1574375018,,,JP,1,19,M,Undergrad,2019_Nov_21_1413,AdjustExp1,3.1.5,60.2617854,Experiment
31,Stimuli/Morph31.JPG,Stimuli/Morph31.png,Stimuli/BlurLevel5/BlurEditedMorph31,Stimuli/BlurLevel5/BlurEditedMorph31.png,Stimuli/BlurLevel5/NumberedMorphs/BlurEditedMorph31.png,Stimuli/BlurLevel5/OriginalBlur/BlurEditedMorph31.png,Stimuli/BlurMorphTrio/EditedMorph31.png,010079right.gif,Stimuli/normal_thumbnails/31right.gif,1,0,1,0,0,14,14,30,,,91,2,15,1,2.499619238,0.043631016,31,634.1470746,634.6448459,634.1470746,634.6448459,97.27891156,1574375022,1574375024,2.166263819,75,33,-2,-2,1574375020,1574375022,,,JP,1,19,M,Undergrad,2019_Nov_21_1413,AdjustExp1,3.1.5,60.2617854,Experiment
33,Stimuli/Morph33.JPG,Stimuli/Morph33.png,Stimuli/BlurLevel5/BlurEditedMorph33,Stimuli/BlurLevel5/BlurEditedMorph33.png,Stimuli/BlurLevel5/NumberedMorphs/BlurEditedMorph33.png,Stimuli/BlurLevel5/OriginalBlur/BlurEditedMorph33.png,Stimuli/BlurMorphTrio/EditedMorph33.png,010089right.gif,Stimuli/normal_thumbnails/33right.gif,1,0,1,0,0,15,15,32,,,3,2,16,24,2.283863644,1.016841608,33,638.6825507,639.1780259,638.6825507,639.1780259,79.59183673,1574375027,1574375029,2.298500061,76,18,15,15,1574375025,1574375027,,,JP,1,19,M,Undergrad,2019_Nov_21_1413,AdjustExp1,3.1.5,60.2617854,Experiment
126,Stimuli/Morph126.JPG,Stimuli/Morph126.png,Stimuli/BlurLevel5/BlurEditedMorph126,Stimuli/BlurLevel5/BlurEditedMorph126.png,Stimuli/BlurLevel5/NumberedMorphs/BlurEditedMorph126.png,Stimuli/BlurLevel5/OriginalBlur/BlurEditedMorph126.png,Stimuli/BlurMorphTrio/EditedMorph126.png,None,None,1,0,1,0,0,16,16,125,,,44,2,17,56,1.397982259,2.072593931,126,643.377306,643.8784608,643.377306,643.8784608,70.06802721,1574375031,1574375037,5.249605179,112,104,22,22,1574375029,1574375031,,,JP,1,19,M,Undergrad,2019_Nov_21_1413,AdjustExp1,3.1.5,60.2617854,Experiment
4,Stimuli/Morph4.JPG,Stimuli/Morph4.png,Stimuli/BlurLevel5/BlurEditedMorph4,Stimuli/BlurLevel5/BlurEditedMorph4.png,Stimuli/BlurLevel5/NumberedMorphs/BlurEditedMorph4.png,Stimuli/BlurLevel5/OriginalBlur/BlurEditedMorph4.png,Stimuli/BlurMorphTrio/EditedMorph4.png,010010right.gif,Stimuli/normal_thumbnails/4right.gif,1,0,1,0,0,17,17,3,,,98,2,18,205,-2.265769468,-1.056545654,4,651.494715,651.9947915,651.494715,651.9947915,93.19727891,1574375040,1574375042,2.367707968,147,9,-5,-5,1574375037,1574375040,,,JP,1,19,M,Undergrad,2019_Nov_21_1413,AdjustExp1,3.1.5,60.2617854,Experiment
18,Stimuli/Morph18.JPG,Stimuli/Morph18.png,Stimuli/BlurLevel5/BlurEditedMorph18,Stimuli/BlurLevel5/BlurEditedMorph18.png,Stimuli/BlurLevel5/NumberedMorphs/BlurEditedMorph18.png,Stimuli/BlurLevel5/OriginalBlur/BlurEditedMorph18.png,Stimuli/BlurMorphTrio/EditedMorph18.png,010039right.gif,Stimuli/normal_thumbnails/18right.gif,1,0,1,0,0,18,18,17,,,99,2,19,244,-1.095927867,-2.246985116,18,656.3173083,656.8110176,656.3173083,656.8110176,98.63945578,1574375044,1574375047,3.066994905,92,17,1,1,1574375042,1574375044,,,JP,1,19,M,Undergrad,2019_Nov_21_1413,AdjustExp1,3.1.5,60.2617854,Experiment
101,Stimuli/Morph101.JPG,Stimuli/Morph101.png,Stimuli/BlurLevel5/BlurEditedMorph101,Stimuli/BlurLevel5/BlurEditedMorph101.png,Stimuli/BlurLevel5/NumberedMorphs/BlurEditedMorph101.png,Stimuli/BlurLevel5/OriginalBlur/BlurEditedMorph101.png,Stimuli/BlurMorphTrio/EditedMorph101.png,None,None,1,0,1,0,0,19,19,100,,,81,2,20,323,1.996588775,-1.504537558,101,661.8109789,662.310959,661.8109789,662.310959,98.63945578,1574375050,1574375053,3.266631126,61,100,1,1,1574375048,1574375050,,,JP,1,19,M,Undergrad,2019_Nov_21_1413,AdjustExp1,3.1.5,60.2617854,Experiment
20,Stimuli/Morph20.JPG,Stimuli/Morph20.png,Stimuli/BlurLevel5/BlurEditedMorph20,Stimuli/BlurLevel5/BlurEditedMorph20.png,Stimuli/BlurLevel5/NumberedMorphs/BlurEditedMorph20.png,Stimuli/BlurLevel5/OriginalBlur/BlurEditedMorph20.png,Stimuli/BlurMorphTrio/EditedMorph20.png,010046right.gif,Stimuli/normal_thumbnails/20right.gif,1,0,1,0,0,20,20,19,,,98,2,21,336,2.283863644,-1.016841608,20,667.5442228,668.0443337,667.5442228,668.0443337,91.83673469,1574375056,1574375058,2.465879917,47,26,-6,-6,1574375053,1574375056,,,JP,1,19,M,Undergrad,2019_Nov_21_1413,AdjustExp1,3.1.5,60.2617854,Experiment
80,Stimuli/Morph80.JPG,Stimuli/Morph80.png,Stimuli/BlurLevel5/BlurEditedMorph80,Stimuli/BlurLevel5/BlurEditedMorph80.png,Stimuli/BlurLevel5/NumberedMorphs/BlurEditedMorph80.png,Stimuli/BlurLevel5/OriginalBlur/BlurEditedMorph80.png,Stimuli/BlurMorphTrio/EditedMorph80.png,020240right.gif,Stimuli/normal_thumbnails/80right.gif,1,0,1,0,0,21,21,79,,,82,2,22,33,2.09667642,1.361597588,80,672.5840232,673.0772727,672.5840232,673.0772727,67.34693878,1574375061,1574375063,2.699461937,65,104,-24,-24,1574375058,1574375061,,,JP,1,19,M,Undergrad,2019_Nov_21_1413,AdjustExp1,3.1.5,60.2617854,Experiment
75,Stimuli/Morph75.JPG,Stimuli/Morph75.png,Stimuli/BlurLevel5/BlurEditedMorph75,Stimuli/BlurLevel5/BlurEditedMorph75.png,Stimuli/BlurLevel5/NumberedMorphs/BlurEditedMorph75.png,Stimuli/BlurLevel5/OriginalBlur/BlurEditedMorph75.png,Stimuli/BlurMorphTrio/EditedMorph75.png,020233right.gif,Stimuli/normal_thumbnails/75right.gif,1,0,1,0,0,22,22,74,,,21,2,23,48,1.672826516,1.857862064,75,677.727156,678.2278255,677.727156,678.2278255,79.59183673,1574375066,1574375069,3.733082056,43,90,-15,-15,1574375064,1574375066,,,JP,1,19,M,Undergrad,2019_Nov_21_1413,AdjustExp1,3.1.5,60.2617854,Experiment
62,Stimuli/Morph62.JPG,Stimuli/Morph62.png,Stimuli/BlurLevel5/BlurEditedMorph62,Stimuli/BlurLevel5/BlurEditedMorph62.png,Stimuli/BlurLevel5/NumberedMorphs/BlurEditedMorph62.png,Stimuli/BlurLevel5/OriginalBlur/BlurEditedMorph62.png,Stimuli/BlurMorphTrio/EditedMorph62.png,020205right.gif,Stimuli/normal_thumbnails/62right.gif,1,0,1,0,0,23,23,61,,,32,2,24,273,0.130839891,-2.496573837,62,684.161605,684.6607148,684.161605,684.6607148,78.23129252,1574375072,1574375076,4.033358812,121,46,16,16,1574375070,1574375072,,,JP,1,19,M,Undergrad,2019_Nov_21_1413,AdjustExp1,3.1.5,60.2617854,Experiment
91,Stimuli/Morph91.JPG,Stimuli/Morph91.png,Stimuli/BlurLevel5/BlurEditedMorph91,Stimuli/BlurLevel5/BlurEditedMorph91.png,Stimuli/BlurLevel5/NumberedMorphs/BlurEditedMorph91.png,Stimuli/BlurLevel5/OriginalBlur/BlurEditedMorph91.png,Stimuli/BlurMorphTrio/EditedMorph91.png,020276right.gif,Stimuli/normal_thumbnails/91right.gif,1,0,1,0,0,24,24,90,,,81,2,25,300,1.25,-2.165063509,91,690.5431099,691.0437324,690.5431099,691.0437324,94.55782313,1574375079,1574375082,3.566756964,51,95,-4,-4,1574375076,1574375079,,,JP,1,19,M,Undergrad,2019_Nov_21_1413,AdjustExp1,3.1.5,60.2617854,Experiment
43,Stimuli/Morph43.JPG,Stimuli/Morph43.png,Stimuli/BlurLevel5/BlurEditedMorph43,Stimuli/BlurLevel5/BlurEditedMorph43.png,Stimuli/BlurLevel5/NumberedMorphs/BlurEditedMorph43.png,Stimuli/BlurLevel5/OriginalBlur/BlurEditedMorph43.png,Stimuli/BlurMorphTrio/EditedMorph43.png,010124right.gif,Stimuli/normal_thumbnails/43right.gif,1,0,1,0,0,25,25,42,,,64,2,26,338,2.317959636,-0.936516484,43,696.3761996,696.8775945,696.3761996,696.8775945,95.91836735,1574375084,1574375086,1.917439938,86,40,3,3,1574375082,1574375084,,,JP,1,19,M,Undergrad,2019_Nov_21_1413,AdjustExp1,3.1.5,60.2617854,Experiment
109,Stimuli/Morph109.JPG,Stimuli/Morph109.png,Stimuli/BlurLevel5/BlurEditedMorph109,Stimuli/BlurLevel5/BlurEditedMorph109.png,Stimuli/BlurLevel5/NumberedMorphs/BlurEditedMorph109.png,Stimuli/BlurLevel5/OriginalBlur/BlurEditedMorph109.png,Stimuli/BlurMorphTrio/EditedMorph109.png,None,None,1,0,1,0,0,26,26,108,,,86,2,27,124,-1.397982259,2.072593931,109,700.6506024,701.1441074,700.6506024,701.1441074,85.03401361,1574375089,1574375090,1.383042812,107,98,11,11,1574375087,1574375089,,,JP,1,19,M,Undergrad,2019_Nov_21_1413,AdjustExp1,3.1.5,60.2617854,Experiment
120,Stimuli/Morph120.JPG,Stimuli/Morph120.png,Stimuli/BlurLevel5/BlurEditedMorph120,Stimuli/BlurLevel5/BlurEditedMorph120.png,Stimuli/BlurLevel5/NumberedMorphs/BlurEditedMorph120.png,Stimuli/BlurLevel5/OriginalBlur/BlurEditedMorph120.png,Stimuli/BlurMorphTrio/EditedMorph120.png,None,None,1,0,1,0,0,27,27,119,,,94,2,28,97,-0.304673359,2.481365379,120,704.5601345,705.0604929,704.5601345,705.0604929,85.03401361,1574375093,1574375095,1.983344316,26,109,11,11,1574375090,1574375093,,,JP,1,19,M,Undergrad,2019_Nov_21_1413,AdjustExp1,3.1.5,60.2617854,Experiment
95,Stimuli/Morph95.JPG,Stimuli/Morph95.png,Stimuli/BlurLevel5/BlurEditedMorph95,Stimuli/BlurLevel5/BlurEditedMorph95.png,Stimuli/BlurLevel5/NumberedMorphs/BlurEditedMorph95.png,Stimuli/BlurLevel5/OriginalBlur/BlurEditedMorph95.png,Stimuli/BlurMorphTrio/EditedMorph95.png,020287right.gif,Stimuli/normal_thumbnails/95right.gif,1,0,1,0,0,28,28,94,,,64,2,29,152,-2.207368982,1.173678907,95,708.8270705,709.3270647,708.8270705,709.3270647,91.83673469,1574375097,1574375101,4.466610193,65,89,6,6,1574375095,1574375097,,,JP,1,19,M,Undergrad,2019_Nov_21_1413,AdjustExp1,3.1.5,60.2617854,Experiment
108,Stimuli/Morph108.JPG,Stimuli/Morph108.png,Stimuli/BlurLevel5/BlurEditedMorph108,Stimuli/BlurLevel5/BlurEditedMorph108.png,Stimuli/BlurLevel5/NumberedMorphs/BlurEditedMorph108.png,Stimuli/BlurLevel5/OriginalBlur/BlurEditedMorph108.png,Stimuli/BlurMorphTrio/EditedMorph108.png,None,None,1,0,1,0,0,29,29,107,,,84,2,30,19,2.363796439,0.813920386,108,715.7621946,716.2597984,715.7621946,716.2597984,85.03401361,1574375104,1574375105,0.967509031,97,97,11,11,1574375102,1574375104,,,JP,1,19,M,Undergrad,2019_Nov_21_1413,AdjustExp1,3.1.5,60.2617854,Experiment
44,Stimuli/Morph44.JPG,Stimuli/Morph44.png,Stimuli/BlurLevel5/BlurEditedMorph44,Stimuli/BlurLevel5/BlurEditedMorph44.png,Stimuli/BlurLevel5/NumberedMorphs/BlurEditedMorph44.png,Stimuli/BlurLevel5/OriginalBlur/BlurEditedMorph44.png,Stimuli/BlurMorphTrio/EditedMorph44.png,010126right.gif,Stimuli/normal_thumbnails/44right.gif,1,0,1,0,0,30,30,43,,,34,2,31,78,0.519779227,2.445369002,44,719.6261252,720.1266975,719.6261252,720.1266975,93.19727891,1574375108,1574375111,2.883329868,6,39,5,5,1574375105,1574375108,,,JP,1,19,M,Undergrad,2019_Nov_21_1413,AdjustExp1,3.1.5,60.2617854,Experiment
59,Stimuli/Morph59.JPG,Stimuli/Morph59.png,Stimuli/BlurLevel5/BlurEditedMorph59,Stimuli/BlurLevel5/BlurEditedMorph59.png,Stimuli/BlurLevel5/NumberedMorphs/BlurEditedMorph59.png,Stimuli/BlurLevel5/OriginalBlur/BlurEditedMorph59.png,Stimuli/BlurMorphTrio/EditedMorph59.png,010160right.gif,Stimuli/normal_thumbnails/59right.gif,1,0,1,0,0,31,31,58,,,2,2,32,283,0.562377636,-2.435925162,59,724.9104393,725.4101074,724.9104393,725.4101074,79.59183673,1574375113,1574375115,2.417093754,58,44,15,15,1574375111,1574375113,,,JP,1,19,M,Undergrad,2019_Nov_21_1413,AdjustExp1,3.1.5,60.2617854,Experiment
46,Stimuli/Morph46.JPG,Stimuli/Morph46.png,Stimuli/BlurLevel5/BlurEditedMorph46,Stimuli/BlurLevel5/BlurEditedMorph46.png,Stimuli/BlurLevel5/NumberedMorphs/BlurEditedMorph46.png,Stimuli/BlurLevel5/OriginalBlur/BlurEditedMorph46.png,Stimuli/BlurMorphTrio/EditedMorph46.png,010128right.gif,Stimuli/normal_thumbnails/46right.gif,1,0,1,0,0,32,32,45,,,36,2,33,227,-1.7049959,-1.828384254,46,730.1260561,730.6268051,730.1260561,730.6268051,100,1574375118,1574375122,3.766999006,107,46,0,0,1574375116,1574375118,,,JP,1,19,M,Undergrad,2019_Nov_21_1413,AdjustExp1,3.1.5,60.2617854,Experiment
65,Stimuli/Morph65.JPG,Stimuli/Morph65.png,Stimuli/BlurLevel5/BlurEditedMorph65,Stimuli/BlurLevel5/BlurEditedMorph65.png,Stimuli/BlurLevel5/NumberedMorphs/BlurEditedMorph65.png,Stimuli/BlurLevel5/OriginalBlur/BlurEditedMorph65.png,Stimuli/BlurMorphTrio/EditedMorph65.png,020209right.gif,Stimuli/normal_thumbnails/65right.gif,1,0,1,0,0,33,33,64,,,41,2,34,312,1.672826516,-1.857862064,65,736.5499133,737.0430726,736.5499133,737.0430726,70.06802721,1574375125,1574375128,3.551118135,6,43,22,22,1574375122,1574375125,,,JP,1,19,M,Undergrad,2019_Nov_21_1413,AdjustExp1,3.1.5,60.2617854,Experiment
69,Stimuli/Morph69.JPG,Stimuli/Morph69.png,Stimuli/BlurLevel5/BlurEditedMorph69,Stimuli/BlurLevel5/BlurEditedMorph69.png,Stimuli/BlurLevel5/NumberedMorphs/BlurEditedMorph69.png,Stimuli/BlurLevel5/OriginalBlur/BlurEditedMorph69.png,Stimuli/BlurMorphTrio/EditedMorph69.png,020220right.gif,Stimuli/normal_thumbnails/69right.gif,1,0,1,0,0,34,34,68,,,51,2,35,40,1.915111108,1.606969024,69,742.8322999,743.3262892,742.8322999,743.3262892,75.51020408,1574375131,1574375133,2.567047834,139,51,18,18,1574375128,1574375131,,,JP,1,19,M,Undergrad,2019_Nov_21_1413,AdjustExp1,3.1.5,60.2617854,Experiment
74,Stimuli/Morph74.JPG,Stimuli/Morph74.png,Stimuli/BlurLevel5/BlurEditedMorph74,Stimuli/BlurLevel5/BlurEditedMorph74.png,Stimuli/BlurLevel5/NumberedMorphs/BlurEditedMorph74.png,Stimuli/BlurLevel5/OriginalBlur/BlurEditedMorph74.png,Stimuli/BlurMorphTrio/EditedMorph74.png,020232right.gif,Stimuli/normal_thumbnails/74right.gif,1,0,1,0,0,35,35,73,,,75,2,36,174,-2.486304738,0.261321158,74,747.8927938,748.4267168,747.8927938,748.4267168,86.39455782,1574375136,1574375141,5.032863855,109,64,10,10,1574375134,1574375136,,,JP,1,19,M,Undergrad,2019_Nov_21_1413,AdjustExp1,3.1.5,60.2617854,Experiment
51,Stimuli/Morph51.JPG,Stimuli/Morph51.png,Stimuli/BlurLevel5/BlurEditedMorph51,Stimuli/BlurLevel5/BlurEditedMorph51.png,Stimuli/BlurLevel5/NumberedMorphs/BlurEditedMorph51.png,Stimuli/BlurLevel5/OriginalBlur/BlurEditedMorph51.png,Stimuli/BlurMorphTrio/EditedMorph51.png,010146right.gif,Stimuli/normal_thumbnails/51right.gif,1,0,1,0,0,36,36,50,,,80,2,37,195,-2.414814566,-0.647047613,51,755.192389,755.693085,755.192389,755.693085,97.27891156,1574375143,1574375145,1.73327899,18,49,2,2,1574375141,1574375143,,,JP,1,19,M,Undergrad,2019_Nov_21_1413,AdjustExp1,3.1.5,60.2617854,Experiment
68,Stimuli/Morph68.JPG,Stimuli/Morph68.png,Stimuli/BlurLevel5/BlurEditedMorph68,Stimuli/BlurLevel5/BlurEditedMorph68.png,Stimuli/BlurLevel5/NumberedMorphs/BlurEditedMorph68.png,Stimuli/BlurLevel5/OriginalBlur/BlurEditedMorph68.png,Stimuli/BlurMorphTrio/EditedMorph68.png,020218right.gif,Stimuli/normal_thumbnails/68right.gif,1,0,1,0,0,37,37,67,,,19,2,38,164,-2.40315424,0.68909339,68,759.3764968,759.876395,759.3764968,759.876395,64.62585034,1574375147,1574375151,3.217184067,50,42,26,26,1574375145,1574375147,,,JP,1,19,M,Undergrad,2019_Nov_21_1413,AdjustExp1,3.1.5,60.2617854,Experiment
145,Stimuli/Morph145.JPG,Stimuli/Morph145.png,Stimuli/BlurLevel5/BlurEditedMorph145,Stimuli/BlurLevel5/BlurEditedMorph145.png,Stimuli/BlurLevel5/NumberedMorphs/BlurEditedMorph145.png,Stimuli/BlurLevel5/OriginalBlur/BlurEditedMorph145.png,Stimuli/BlurMorphTrio/EditedMorph145.png,None,None,1,0,1,0,0,38,38,144,,,76,2,39,258,-0.519779227,-2.445369002,145,764.730768,765.2265194,764.730768,765.2265194,94.55782313,1574375153,1574375155,1.916007996,109,2,143,-4,1574375151,1574375153,,,JP,1,19,M,Undergrad,2019_Nov_21_1413,AdjustExp1,3.1.5,60.2617854,Experiment
70,Stimuli/Morph70.JPG,Stimuli/Morph70.png,Stimuli/BlurLevel5/BlurEditedMorph70,Stimuli/BlurLevel5/BlurEditedMorph70.png,Stimuli/BlurLevel5/NumberedMorphs/BlurEditedMorph70.png,Stimuli/BlurLevel5/OriginalBlur/BlurEditedMorph70.png,Stimuli/BlurMorphTrio/EditedMorph70.png,020221right.gif,Stimuli/normal_thumbnails/70right.gif,1,0,1,0,0,39,39,69,,,10,2,40,237,-1.361597588,-2.09667642,70,769.2762153,769.7765079,769.2762153,769.7765079,61.9047619,1574375157,1574375161,3.534563065,33,42,28,28,1574375155,1574375157,,,JP,1,19,M,Undergrad,2019_Nov_21_1413,AdjustExp1,3.1.5,60.2617854,Experiment
102,Stimuli/Morph102.JPG,Stimuli/Morph102.png,Stimuli/BlurLevel5/BlurEditedMorph102,Stimuli/BlurLevel5/BlurEditedMorph102.png,Stimuli/BlurLevel5/NumberedMorphs/BlurEditedMorph102.png,Stimuli/BlurLevel5/OriginalBlur/BlurEditedMorph102.png,Stimuli/BlurMorphTrio/EditedMorph102.png,None,None,1,0,1,0,0,40,40,101,,,47,2,41,296,1.095927867,-2.246985116,102,775.829538,776.3261269,775.829538,776.3261269,90.47619048,1574375164,1574375166,1.833239079,52,95,7,7,1574375161,1574375164,,,JP,1,19,M,Undergrad,2019_Nov_21_1413,AdjustExp1,3.1.5,60.2617854,Experiment
142,Stimuli/Morph142.JPG,Stimuli/Morph142.png,Stimuli/BlurLevel5/BlurEditedMorph142,Stimuli/BlurLevel5/BlurEditedMorph142.png,Stimuli/BlurLevel5/NumberedMorphs/BlurEditedMorph142.png,Stimuli/BlurLevel5/OriginalBlur/BlurEditedMorph142.png,Stimuli/BlurMorphTrio/EditedMorph142.png,None,None,1,0,1,0,0,41,41,141,,,62,2,42,22,2.317959636,0.936516484,142,780.4253162,780.9259433,780.4253162,780.9259433,97.27891156,1574375168,1574375170,1.784481049,113,140,2,2,1574375166,1574375168,,,JP,1,19,M,Undergrad,2019_Nov_21_1413,AdjustExp1,3.1.5,60.2617854,Experiment
67,Stimuli/Morph67.JPG,Stimuli/Morph67.png,Stimuli/BlurLevel5/BlurEditedMorph67,Stimuli/BlurLevel5/BlurEditedMorph67.png,Stimuli/BlurLevel5/NumberedMorphs/BlurEditedMorph67.png,Stimuli/BlurLevel5/OriginalBlur/BlurEditedMorph67.png,Stimuli/BlurMorphTrio/EditedMorph67.png,020217right.gif,Stimuli/normal_thumbnails/67right.gif,1,0,1,0,0,42,42,66,,,63,2,43,86,0.174391184,2.493910126,67,784.7260662,785.2261512,784.7260662,785.2261512,98.63945578,1574375173,1574375175,2.566498041,39,68,-1,-1,1574375171,1574375173,,,JP,1,19,M,Undergrad,2019_Nov_21_1413,AdjustExp1,3.1.5,60.2617854,Experiment
13,Stimuli/Morph13.JPG,Stimuli/Morph13.png,Stimuli/BlurLevel5/BlurEditedMorph13,Stimuli/BlurLevel5/BlurEditedMorph13.png,Stimuli/BlurLevel5/NumberedMorphs/BlurEditedMorph13.png,Stimuli/BlurLevel5/OriginalBlur/BlurEditedMorph13.png,Stimuli/BlurMorphTrio/EditedMorph13.png,010027right.gif,Stimuli/normal_thumbnails/13right.gif,1,0,1,0,0,43,43,12,,,26,2,44,44,1.798349501,1.736645926,13,789.8475192,790.3427264,789.8475192,790.3427264,68.70748299,1574375178,1574375180,2.348895311,80,137,-124,23,1574375176,1574375178,,,JP,1,19,M,Undergrad,2019_Nov_21_1413,AdjustExp1,3.1.5,60.2617854,Experiment
96,Stimuli/Morph96.JPG,Stimuli/Morph96.png,Stimuli/BlurLevel5/BlurEditedMorph96,Stimuli/BlurLevel5/BlurEditedMorph96.png,Stimuli/BlurLevel5/NumberedMorphs/BlurEditedMorph96.png,Stimuli/BlurLevel5/OriginalBlur/BlurEditedMorph96.png,Stimuli/BlurMorphTrio/EditedMorph96.png,020292right.gif,Stimuli/normal_thumbnails/96right.gif,1,0,1,0,0,44,44,95,,,77,2,45,187,-2.481365379,-0.304673359,96,794.69159,795.1927037,794.69159,795.1927037,93.19727891,1574375183,1574375184,1.350058079,125,101,-5,-5,1574375180,1574375183,,,JP,1,19,M,Undergrad,2019_Nov_21_1413,AdjustExp1,3.1.5,60.2617854,Experiment
93,Stimuli/Morph93.JPG,Stimuli/Morph93.png,Stimuli/BlurLevel5/BlurEditedMorph93,Stimuli/BlurLevel5/BlurEditedMorph93.png,Stimuli/BlurLevel5/NumberedMorphs/BlurEditedMorph93.png,Stimuli/BlurLevel5/OriginalBlur/BlurEditedMorph93.png,Stimuli/BlurMorphTrio/EditedMorph93.png,020280right.gif,Stimuli/normal_thumbnails/93right.gif,1,0,1,0,0,45,45,92,,,86,2,46,45,1.767766953,1.767766953,93,798.7957955,799.292361,798.7957955,799.292361,94.55782313,1574375187,1574375190,3.233733177,74,97,-4,-4,1574375184,1574375187,,,JP,1,19,M,Undergrad,2019_Nov_21_1413,AdjustExp1,3.1.5,60.2617854,Experiment
144,Stimuli/Morph144.JPG,Stimuli/Morph144.png,Stimuli/BlurLevel5/BlurEditedMorph144,Stimuli/BlurLevel5/BlurEditedMorph144.png,Stimuli/BlurLevel5/NumberedMorphs/BlurEditedMorph144.png,Stimuli/BlurLevel5/OriginalBlur/BlurEditedMorph144.png,Stimuli/BlurMorphTrio/EditedMorph144.png,None,None,1,0,1,0,0,46,46,143,,,85,2,47,48,1.672826516,1.857862064,144,804.4475741,804.9424229,804.4475741,804.9424229,89.11564626,1574375192,1574375196,3.182430029,23,5,139,-8,1574375190,1574375192,,,JP,1,19,M,Undergrad,2019_Nov_21_1413,AdjustExp1,3.1.5,60.2617854,Experiment
79,Stimuli/Morph79.JPG,Stimuli/Morph79.png,Stimuli/BlurLevel5/BlurEditedMorph79,Stimuli/BlurLevel5/BlurEditedMorph79.png,Stimuli/BlurLevel5/NumberedMorphs/BlurEditedMorph79.png,Stimuli/BlurLevel5/OriginalBlur/BlurEditedMorph79.png,Stimuli/BlurMorphTrio/EditedMorph79.png,020239right.gif,Stimuli/normal_thumbnails/79right.gif,1,0,1,0,0,47,47,78,,,42,2,48,228,-1.672826516,-1.857862064,79,810.6258512,811.125543,810.6258512,811.125543,91.83673469,1574375199,1574375201,2.665891171,122,85,-6,-6,1574375196,1574375199,,,JP,1,19,M,Undergrad,2019_Nov_21_1413,AdjustExp1,3.1.5,60.2617854,Experiment
38,Stimuli/Morph38.JPG,Stimuli/Morph38.png,Stimuli/BlurLevel5/BlurEditedMorph38,Stimuli/BlurLevel5/BlurEditedMorph38.png,Stimuli/BlurLevel5/NumberedMorphs/BlurEditedMorph38.png,Stimuli/BlurLevel5/OriginalBlur/BlurEditedMorph38.png,Stimuli/BlurMorphTrio/EditedMorph38.png,010108right.gif,Stimuli/normal_thumbnails/38right.gif,1,0,1,0,0,48,48,37,,,74,2,49,316,1.798349501,-1.736645926,38,815.6463153,816.1421274,815.6463153,816.1421274,100,1574375204,1574375206,2.200436115,53,38,0,0,1574375202,1574375204,,,JP,1,19,M,Undergrad,2019_Nov_21_1413,AdjustExp1,3.1.5,60.2617854,Experiment
111,Stimuli/Morph111.JPG,Stimuli/Morph111.png,Stimuli/BlurLevel5/BlurEditedMorph111,Stimuli/BlurLevel5/BlurEditedMorph111.png,Stimuli/BlurLevel5/NumberedMorphs/BlurEditedMorph111.png,Stimuli/BlurLevel5/OriginalBlur/BlurEditedMorph111.png,Stimuli/BlurMorphTrio/EditedMorph111.png,None,None,1,0,1,0,0,49,49,110,,,41,2,50,51,1.573300978,1.942864904,111,820.1763432,820.6759103,820.1763432,820.6759103,90.47619048,1574375208,1574375211,2.833045959,130,104,7,7,1574375206,1574375208,,,JP,1,19,M,Undergrad,2019_Nov_21_1413,AdjustExp1,3.1.5,60.2617854,Experiment
138,Stimuli/Morph138.JPG,Stimuli/Morph138.png,Stimuli/BlurLevel5/BlurEditedMorph138,Stimuli/BlurLevel5/BlurEditedMorph138.png,Stimuli/BlurLevel5/NumberedMorphs/BlurEditedMorph138.png,Stimuli/BlurLevel5/OriginalBlur/BlurEditedMorph138.png,Stimuli/BlurMorphTrio/EditedMorph138.png,None,None,1,0,1,0,0,50,50,137,,,16,2,51,57,1.361597588,2.09667642,138,825.4083747,825.9085823,825.4083747,825.9085823,85.03401361,1574375213,1574375216,2.533383131,12,127,11,11,1574375211,1574375213,,,JP,1,19,M,Undergrad,2019_Nov_21_1413,AdjustExp1,3.1.5,60.2617854,Experiment
28,Stimuli/Morph28.JPG,Stimuli/Morph28.png,Stimuli/BlurLevel5/BlurEditedMorph28,Stimuli/BlurLevel5/BlurEditedMorph28.png,Stimuli/BlurLevel5/NumberedMorphs/BlurEditedMorph28.png,Stimuli/BlurLevel5/OriginalBlur/BlurEditedMorph28.png,Stimuli/BlurMorphTrio/EditedMorph28.png,010073right.gif,Stimuli/normal_thumbnails/28right.gif,1,0,1,0,0,51,51,27,,,7,2,52,0,2.5,0,28,830.5248922,831.0255053,830.5248922,831.0255053,89.11564626,1574375219,1574375221,2.165719986,141,20,8,8,1574375216,1574375219,,,JP,1,19,M,Undergrad,2019_Nov_21_1413,AdjustExp1,3.1.5,60.2617854,Experiment
19,Stimuli/Morph19.JPG,Stimuli/Morph19.png,Stimuli/BlurLevel5/BlurEditedMorph19,Stimuli/BlurLevel5/BlurEditedMorph19.png,Stimuli/BlurLevel5/NumberedMorphs/BlurEditedMorph19.png,Stimuli/BlurLevel5/OriginalBlur/BlurEditedMorph19.png,Stimuli/BlurMorphTrio/EditedMorph19.png,010045right.gif,Stimuli/normal_thumbnails/19right.gif,1,0,1,0,0,52,52,18,,,58,2,53,262,-0.347932752,-2.475670172,19,835.275627,835.7749931,835.275627,835.7749931,91.83673469,1574375223,1574375225,1.682692289,12,25,-6,-6,1574375221,1574375223,,,JP,1,19,M,Undergrad,2019_Nov_21_1413,AdjustExp1,3.1.5,60.2617854,Experiment
112,Stimuli/Morph112.JPG,Stimuli/Morph112.png,Stimuli/BlurLevel5/BlurEditedMorph112,Stimuli/BlurLevel5/BlurEditedMorph112.png,Stimuli/BlurLevel5/NumberedMorphs/BlurEditedMorph112.png,Stimuli/BlurLevel5/OriginalBlur/BlurEditedMorph112.png,Stimuli/BlurMorphTrio/EditedMorph112.png,None,None,1,0,1,0,0,53,53,111,,,60,2,54,101,-0.477022488,2.454067959,112,839.8584344,840.3586045,839.8584344,840.3586045,79.59183673,1574375228,1574375230,2.049013138,143,97,15,15,1574375225,1574375228,,,JP,1,19,M,Undergrad,2019_Nov_21_1413,AdjustExp1,3.1.5,60.2617854,Experiment
119,Stimuli/Morph119.JPG,Stimuli/Morph119.png,Stimuli/BlurLevel5/BlurEditedMorph119,Stimuli/BlurLevel5/BlurEditedMorph119.png,Stimuli/BlurLevel5/NumberedMorphs/BlurEditedMorph119.png,Stimuli/BlurLevel5/OriginalBlur/BlurEditedMorph119.png,Stimuli/BlurMorphTrio/EditedMorph119.png,None,None,1,0,1,0,0,54,54,118,,,94,2,55,189,-2.469220851,-0.391086163,119,844.9311678,845.4248332,844.9311678,845.4248332,98.63945578,1574375233,1574375236,2.817414999,39,118,1,1,1574375230,1574375233,,,JP,1,19,M,Undergrad,2019_Nov_21_1413,AdjustExp1,3.1.5,60.2617854,Experiment
50,Stimuli/Morph50.JPG,Stimuli/Morph50.png,Stimuli/BlurLevel5/BlurEditedMorph50,Stimuli/BlurLevel5/BlurEditedMorph50.png,Stimuli/BlurLevel5/NumberedMorphs/BlurEditedMorph50.png,Stimuli/BlurLevel5/OriginalBlur/BlurEditedMorph50.png,Stimuli/BlurMorphTrio/EditedMorph50.png,010142right.gif,Stimuli/normal_thumbnails/50right.gif,1,0,1,0,0,55,55,49,,,1,2,56,259,-0.477022488,-2.454067959,50,849.6920225,850.190791,849.6920225,850.190791,93.19727891,1574375238,1574375240,2.56653595,54,45,5,5,1574375236,1574375238,,,JP,1,19,M,Undergrad,2019_Nov_21_1413,AdjustExp1,3.1.5,60.2617854,Experiment
128,Stimuli/Morph128.JPG,Stimuli/Morph128.png,Stimuli/BlurLevel5/BlurEditedMorph128,Stimuli/BlurLevel5/BlurEditedMorph128.png,Stimuli/BlurLevel5/NumberedMorphs/BlurEditedMorph128.png,Stimuli/BlurLevel5/OriginalBlur/BlurEditedMorph128.png,Stimuli/BlurMorphTrio/EditedMorph128.png,None,None,1,0,1,0,0,56,56,127,,,66,2,57,284,0.604804739,-2.425739316,128,854.7909553,855.2914871,854.7909553,855.2914871,59.18367347,1574375243,1574375247,3.932864666,14,98,30,30,1574375241,1574375243,,,JP,1,19,M,Undergrad,2019_Nov_21_1413,AdjustExp1,3.1.5,60.2617854,Experiment
116,Stimuli/Morph116.JPG,Stimuli/Morph116.png,Stimuli/BlurLevel5/BlurEditedMorph116,Stimuli/BlurLevel5/BlurEditedMorph116.png,Stimuli/BlurLevel5/NumberedMorphs/BlurEditedMorph116.png,Stimuli/BlurLevel5/OriginalBlur/BlurEditedMorph116.png,Stimuli/BlurMorphTrio/EditedMorph116.png,None,None,1,0,1,0,0,57,57,115,,,7,2,58,207,-2.22751631,-1.134976249,116,861.4136556,861.9083675,861.4136556,861.9083675,89.11564626,1574375249,1574375252,2.116828918,72,124,-8,-8,1574375247,1574375249,,,JP,1,19,M,Undergrad,2019_Nov_21_1413,AdjustExp1,3.1.5,60.2617854,Experiment
104,Stimuli/Morph104.JPG,Stimuli/Morph104.png,Stimuli/BlurLevel5/BlurEditedMorph104,Stimuli/BlurLevel5/BlurEditedMorph104.png,Stimuli/BlurLevel5/NumberedMorphs/BlurEditedMorph104.png,Stimuli/BlurLevel5/OriginalBlur/BlurEditedMorph104.png,Stimuli/BlurMorphTrio/EditedMorph104.png,None,None,1,0,1,0,0,58,58,103,,,53,2,59,97,-0.304673359,2.481365379,104,866.2908604,866.7911799,866.2908604,866.7911799,86.39455782,1574375254,1574375258,3.216405869,83,114,-10,-10,1574375252,1574375254,,,JP,1,19,M,Undergrad,2019_Nov_21_1413,AdjustExp1,3.1.5,60.2617854,Experiment
22,Stimuli/Morph22.JPG,Stimuli/Morph22.png,Stimuli/BlurLevel5/BlurEditedMorph22,Stimuli/BlurLevel5/BlurEditedMorph22.png,Stimuli/BlurLevel5/NumberedMorphs/BlurEditedMorph22.png,Stimuli/BlurLevel5/OriginalBlur/BlurEditedMorph22.png,Stimuli/BlurMorphTrio/EditedMorph22.png,010055right.gif,Stimuli/normal_thumbnails/22right.gif,1,0,1,0,0,59,59,21,,,45,2,60,174,-2.486304738,0.261321158,22,871.9128438,872.4081016,871.9128438,872.4081016,95.91836735,1574375260,1574375263,3.449837208,134,25,-3,-3,1574375258,1574375260,,,JP,1,19,M,Undergrad,2019_Nov_21_1413,AdjustExp1,3.1.5,60.2617854,Experiment
25,Stimuli/Morph25.JPG,Stimuli/Morph25.png,Stimuli/BlurLevel5/BlurEditedMorph25,Stimuli/BlurLevel5/BlurEditedMorph25.png,Stimuli/BlurLevel5/NumberedMorphs/BlurEditedMorph25.png,Stimuli/BlurLevel5/OriginalBlur/BlurEditedMorph25.png,Stimuli/BlurMorphTrio/EditedMorph25.png,010069right.gif,Stimuli/normal_thumbnails/25right.gif,1,0,1,0,0,60,60,24,,,23,2,61,322,1.970026884,-1.539153688,25,877.6589392,878.1581456,877.6589392,878.1581456,97.27891156,1574375266,1574375269,3.56599617,72,27,-2,-2,1574375264,1574375266,,,JP,1,19,M,Undergrad,2019_Nov_21_1413,AdjustExp1,3.1.5,60.2617854,Experiment
115,Stimuli/Morph115.JPG,Stimuli/Morph115.png,Stimuli/BlurLevel5/BlurEditedMorph115,Stimuli/BlurLevel5/BlurEditedMorph115.png,Stimuli/BlurLevel5/NumberedMorphs/BlurEditedMorph115.png,Stimuli/BlurLevel5/OriginalBlur/BlurEditedMorph115.png,Stimuli/BlurMorphTrio/EditedMorph115.png,None,None,1,0,1,0,0,61,61,114,,,40,2,62,158,-2.317959636,0.936516484,115,883.5935826,884.0913615,883.5935826,884.0913615,100,1574375272,1574375275,3.350692987,63,115,0,0,1574375270,1574375272,,,JP,1,19,M,Undergrad,2019_Nov_21_1413,AdjustExp1,3.1.5,60.2617854,Experiment
5,Stimuli/Morph5.JPG,Stimuli/Morph5.png,Stimuli/BlurLevel5/BlurEditedMorph5,Stimuli/BlurLevel5/BlurEditedMorph5.png,Stimuli/BlurLevel5/NumberedMorphs/BlurEditedMorph5.png,Stimuli/BlurLevel5/OriginalBlur/BlurEditedMorph5.png,Stimuli/BlurMorphTrio/EditedMorph5.png,010011right.gif,Stimuli/normal_thumbnails/5right.gif,1,0,1,0,0,62,62,4,,,70,2,63,220,-1.915111108,-1.606969024,5,889.2753123,889.7747526,889.2753123,889.7747526,87.75510204,1574375277,1574375281,4.066297054,140,14,-9,-9,1574375275,1574375277,,,JP,1,19,M,Undergrad,2019_Nov_21_1413,AdjustExp1,3.1.5,60.2617854,Experiment
147,Stimuli/Morph147.JPG,Stimuli/Morph147.png,Stimuli/BlurLevel5/BlurEditedMorph147,Stimuli/BlurLevel5/BlurEditedMorph147.png,Stimuli/BlurLevel5/NumberedMorphs/BlurEditedMorph147.png,Stimuli/BlurLevel5/OriginalBlur/BlurEditedMorph147.png,Stimuli/BlurMorphTrio/EditedMorph147.png,None,None,1,0,1,0,0,63,63,146,,,35,2,64,359,2.499619238,-0.043631016,147,895.9316219,896.4246993,895.9316219,896.4246993,89.11564626,1574375284,1574375287,3.43234992,135,8,139,-8,1574375282,1574375284,,,JP,1,19,M,Undergrad,2019_Nov_21_1413,AdjustExp1,3.1.5,60.2617854,Experiment
23,Stimuli/Morph23.JPG,Stimuli/Morph23.png,Stimuli/BlurLevel5/BlurEditedMorph23,Stimuli/BlurLevel5/BlurEditedMorph23.png,Stimuli/BlurLevel5/NumberedMorphs/BlurEditedMorph23.png,Stimuli/BlurLevel5/OriginalBlur/BlurEditedMorph23.png,Stimuli/BlurMorphTrio/EditedMorph23.png,010063right.gif,Stimuli/normal_thumbnails/23right.gif,1,0,1,0,0,64,64,22,,,55,2,65,42,1.857862064,1.672826516,23,901.9088392,902.4067211,901.9088392,902.4067211,100,1574375290,1574375293,2.932843924,118,23,0,0,1574375288,1574375290,,,JP,1,19,M,Undergrad,2019_Nov_21_1413,AdjustExp1,3.1.5,60.2617854,Experiment
37,Stimuli/Morph37.JPG,Stimuli/Morph37.png,Stimuli/BlurLevel5/BlurEditedMorph37,Stimuli/BlurLevel5/BlurEditedMorph37.png,Stimuli/BlurLevel5/NumberedMorphs/BlurEditedMorph37.png,Stimuli/BlurLevel5/OriginalBlur/BlurEditedMorph37.png,Stimuli/BlurMorphTrio/EditedMorph37.png,010097right.gif,Stimuli/normal_thumbnails/37right.gif,1,0,1,0,0,65,65,36,,,76,2,66,310,1.606969024,-1.915111108,37,907.0080013,907.5077548,907.0080013,907.5077548,100,1574375295,1574375299,3.633653879,107,37,0,0,1574375293,1574375295,,,JP,1,19,M,Undergrad,2019_Nov_21_1413,AdjustExp1,3.1.5,60.2617854,Experiment
78,Stimuli/Morph78.JPG,Stimuli/Morph78.png,Stimuli/BlurLevel5/BlurEditedMorph78,Stimuli/BlurLevel5/BlurEditedMorph78.png,Stimuli/BlurLevel5/NumberedMorphs/BlurEditedMorph78.png,Stimuli/BlurLevel5/OriginalBlur/BlurEditedMorph78.png,Stimuli/BlurMorphTrio/EditedMorph78.png,020238right.gif,Stimuli/normal_thumbnails/78right.gif,1,0,1,0,0,66,66,77,,,16,2,67,65,1.056545654,2.265769468,78,913.0400692,913.5408465,913.0400692,913.5408465,71.42857143,1574375301,1574375303,2.033617973,118,99,-21,-21,1574375299,1574375301,,,JP,1,19,M,Undergrad,2019_Nov_21_1413,AdjustExp1,3.1.5,60.2617854,Experiment
143,Stimuli/Morph143.JPG,Stimuli/Morph143.png,Stimuli/BlurLevel5/BlurEditedMorph143,Stimuli/BlurLevel5/BlurEditedMorph143.png,Stimuli/BlurLevel5/NumberedMorphs/BlurEditedMorph143.png,Stimuli/BlurLevel5/OriginalBlur/BlurEditedMorph143.png,Stimuli/BlurMorphTrio/EditedMorph143.png,None,None,1,0,1,0,0,67,67,142,,,85,2,68,95,-0.217889357,2.490486745,143,917.4072329,917.9075573,917.4072329,917.9075573,93.19727891,1574375305,1574375308,2.416809082,54,1,142,-5,1574375303,1574375305,,,JP,1,19,M,Undergrad,2019_Nov_21_1413,AdjustExp1,3.1.5,60.2617854,Experiment
82,Stimuli/Morph82.JPG,Stimuli/Morph82.png,Stimuli/BlurLevel5/BlurEditedMorph82,Stimuli/BlurLevel5/BlurEditedMorph82.png,Stimuli/BlurLevel5/NumberedMorphs/BlurEditedMorph82.png,Stimuli/BlurLevel5/OriginalBlur/BlurEditedMorph82.png,Stimuli/BlurMorphTrio/EditedMorph82.png,020247right.gif,Stimuli/normal_thumbnails/82right.gif,1,0,1,0,0,68,68,81,,,49,2,69,258,-0.519779227,-2.445369002,82,922.4957625,922.9896637,922.4957625,922.9896637,98.63945578,1574375311,1574375312,1.600916147,103,83,-1,-1,1574375308,1574375311,,,JP,1,19,M,Undergrad,2019_Nov_21_1413,AdjustExp1,3.1.5,60.2617854,Experiment
83,Stimuli/Morph83.JPG,Stimuli/Morph83.png,Stimuli/BlurLevel5/BlurEditedMorph83,Stimuli/BlurLevel5/BlurEditedMorph83.png,Stimuli/BlurLevel5/NumberedMorphs/BlurEditedMorph83.png,Stimuli/BlurLevel5/OriginalBlur/BlurEditedMorph83.png,Stimuli/BlurMorphTrio/EditedMorph83.png,020259right.gif,Stimuli/normal_thumbnails/83right.gif,1,0,1,0,0,69,69,82,,,79,2,70,338,2.317959636,-0.936516484,83,926.5901487,927.0908863,926.5901487,927.0908863,78.23129252,1574375315,1574375318,3.149886847,7,99,-16,-16,1574375312,1574375315,,,JP,1,19,M,Undergrad,2019_Nov_21_1413,AdjustExp1,3.1.5,60.2617854,Experiment
122,Stimuli/Morph122.JPG,Stimuli/Morph122.png,Stimuli/BlurLevel5/BlurEditedMorph122,Stimuli/BlurLevel5/BlurEditedMorph122.png,Stimuli/BlurLevel5/NumberedMorphs/BlurEditedMorph122.png,Stimuli/BlurLevel5/OriginalBlur/BlurEditedMorph122.png,Stimuli/BlurMorphTrio/EditedMorph122.png,None,None,1,0,1,0,0,70,70,121,,,27,2,71,227,-1.7049959,-1.828384254,122,932.1903125,932.689526,932.1903125,932.689526,98.63945578,1574375320,1574375325,4.383470058,35,123,-1,-1,1574375318,1574375320,,,JP,1,19,M,Undergrad,2019_Nov_21_1413,AdjustExp1,3.1.5,60.2617854,Experiment
40,Stimuli/Morph40.JPG,Stimuli/Morph40.png,Stimuli/BlurLevel5/BlurEditedMorph40,Stimuli/BlurLevel5/BlurEditedMorph40.png,Stimuli/BlurLevel5/NumberedMorphs/BlurEditedMorph40.png,Stimuli/BlurLevel5/OriginalBlur/BlurEditedMorph40.png,Stimuli/BlurMorphTrio/EditedMorph40.png,010110right.gif,Stimuli/normal_thumbnails/40right.gif,1,0,1,0,0,71,71,39,,,69,2,72,146,-2.072593931,1.397982259,40,939.0234557,939.5238495,939.0234557,939.5238495,79.59183673,1574375327,1574375329,1.516547203,84,25,15,15,1574375325,1574375327,,,JP,1,19,M,Undergrad,2019_Nov_21_1413,AdjustExp1,3.1.5,60.2617854,Experiment
42,Stimuli/Morph42.JPG,Stimuli/Morph42.png,Stimuli/BlurLevel5/BlurEditedMorph42,Stimuli/BlurLevel5/BlurEditedMorph42.png,Stimuli/BlurLevel5/NumberedMorphs/BlurEditedMorph42.png,Stimuli/BlurLevel5/OriginalBlur/BlurEditedMorph42.png,Stimuli/BlurMorphTrio/EditedMorph42.png,010121right.gif,Stimuli/normal_thumbnails/42right.gif,1,0,1,0,0,72,72,41,,,23,2,73,2,2.498477068,0.087248742,42,942.8939418,943.3903028,942.8939418,943.3903028,89.11564626,1574375331,1574375333,2.532895088,131,34,8,8,1574375329,1574375331,,,JP,1,19,M,Undergrad,2019_Nov_21_1413,AdjustExp1,3.1.5,60.2617854,Experiment
17,Stimuli/Morph17.JPG,Stimuli/Morph17.png,Stimuli/BlurLevel5/BlurEditedMorph17,Stimuli/BlurLevel5/BlurEditedMorph17.png,Stimuli/BlurLevel5/NumberedMorphs/BlurEditedMorph17.png,Stimuli/BlurLevel5/OriginalBlur/BlurEditedMorph17.png,Stimuli/BlurMorphTrio/EditedMorph17.png,010036right.gif,Stimuli/normal_thumbnails/17right.gif,1,0,1,0,0,73,73,16,,,96,2,74,88,0.087248742,2.498477068,17,948.7229151,949.2231693,948.7229151,949.2231693,85.03401361,1574375337,1574375339,2.483120918,65,28,-11,-11,1574375334,1574375337,,,JP,1,19,M,Undergrad,2019_Nov_21_1413,AdjustExp1,3.1.5,60.2617854,Experiment
131,Stimuli/Morph131.JPG,Stimuli/Morph131.png,Stimuli/BlurLevel5/BlurEditedMorph131,Stimuli/BlurLevel5/BlurEditedMorph131.png,Stimuli/BlurLevel5/NumberedMorphs/BlurEditedMorph131.png,Stimuli/BlurLevel5/OriginalBlur/BlurEditedMorph131.png,Stimuli/BlurMorphTrio/EditedMorph131.png,None,None,1,0,1,0,0,74,74,130,,,93,2,75,265,-0.217889357,-2.490486745,131,954.299065,954.8233498,954.299065,954.8233498,95.91836735,1574375342,1574375346,3.351100922,133,134,-3,-3,1574375340,1574375342,,,JP,1,19,M,Undergrad,2019_Nov_21_1413,AdjustExp1,3.1.5,60.2617854,Experiment
114,Stimuli/Morph114.JPG,Stimuli/Morph114.png,Stimuli/BlurLevel5/BlurEditedMorph114,Stimuli/BlurLevel5/BlurEditedMorph114.png,Stimuli/BlurLevel5/NumberedMorphs/BlurEditedMorph114.png,Stimuli/BlurLevel5/OriginalBlur/BlurEditedMorph114.png,Stimuli/BlurMorphTrio/EditedMorph114.png,None,None,1,0,1,0,0,75,75,113,,,65,2,76,304,1.397982259,-2.072593931,114,960.2106024,960.7070411,960.2106024,960.7070411,78.23129252,1574375348,1574375351,2.7003901,33,130,-16,-16,1574375346,1574375348,,,JP,1,19,M,Undergrad,2019_Nov_21_1413,AdjustExp1,3.1.5,60.2617854,Experiment
107,Stimuli/Morph107.JPG,Stimuli/Morph107.png,Stimuli/BlurLevel5/BlurEditedMorph107,Stimuli/BlurLevel5/BlurEditedMorph107.png,Stimuli/BlurLevel5/NumberedMorphs/BlurEditedMorph107.png,Stimuli/BlurLevel5/OriginalBlur/BlurEditedMorph107.png,Stimuli/BlurMorphTrio/EditedMorph107.png,None,None,1,0,1,0,0,76,76,106,,,24,2,77,290,0.855050358,-2.349231552,107,965.5582171,966.0569854,965.5582171,966.0569854,93.19727891,1574375354,1574375357,2.933197975,68,102,5,5,1574375351,1574375354,,,JP,1,19,M,Undergrad,2019_Nov_21_1413,AdjustExp1,3.1.5,60.2617854,Experiment
99,Stimuli/Morph99.JPG,Stimuli/Morph99.png,Stimuli/BlurLevel5/BlurEditedMorph99,Stimuli/BlurLevel5/BlurEditedMorph99.png,Stimuli/BlurLevel5/NumberedMorphs/BlurEditedMorph99.png,Stimuli/BlurLevel5/OriginalBlur/BlurEditedMorph99.png,Stimuli/BlurMorphTrio/EditedMorph99.png,020299right.gif,Stimuli/normal_thumbnails/99right.gif,1,0,1,0,0,77,77,98,,,8,2,78,209,-2.186549268,-1.212024051,99,971.2225069,971.7228462,971.2225069,971.7228462,98.63945578,1574375359,1574375361,1.94994998,74,100,-1,-1,1574375357,1574375359,,,JP,1,19,M,Undergrad,2019_Nov_21_1413,AdjustExp1,3.1.5,60.2617854,Experiment
146,Stimuli/Morph146.JPG,Stimuli/Morph146.png,Stimuli/BlurLevel5/BlurEditedMorph146,Stimuli/BlurLevel5/BlurEditedMorph146.png,Stimuli/BlurLevel5/NumberedMorphs/BlurEditedMorph146.png,Stimuli/BlurLevel5/OriginalBlur/BlurEditedMorph146.png,Stimuli/BlurMorphTrio/EditedMorph146.png,None,None,1,0,1,0,0,78,78,145,,,12,2,79,80,0.434120444,2.462019383,146,976.1566764,976.656824,976.1566764,976.656824,83.67346939,1574375364,1574375368,3.332462072,77,11,135,-12,1574375361,1574375364,,,JP,1,19,M,Undergrad,2019_Nov_21_1413,AdjustExp1,3.1.5,60.2617854,Experiment
53,Stimuli/Morph53.JPG,Stimuli/Morph53.png,Stimuli/BlurLevel5/BlurEditedMorph53,Stimuli/BlurLevel5/BlurEditedMorph53.png,Stimuli/BlurLevel5/NumberedMorphs/BlurEditedMorph53.png,Stimuli/BlurLevel5/OriginalBlur/BlurEditedMorph53.png,Stimuli/BlurMorphTrio/EditedMorph53.png,010149right.gif,Stimuli/normal_thumbnails/53right.gif,1,0,1,0,0,79,79,52,,,83,2,80,326,2.072593931,-1.397982259,53,982.2101817,982.7066856,982.2101817,982.7066856,91.83673469,1574375370,1574375374,3.36659193,72,59,-6,-6,1574375368,1574375370,,,JP,1,19,M,Undergrad,2019_Nov_21_1413,AdjustExp1,3.1.5,60.2617854,Experiment
77,Stimuli/Morph77.JPG,Stimuli/Morph77.png,Stimuli/BlurLevel5/BlurEditedMorph77,Stimuli/BlurLevel5/BlurEditedMorph77.png,Stimuli/BlurLevel5/NumberedMorphs/BlurEditedMorph77.png,Stimuli/BlurLevel5/OriginalBlur/BlurEditedMorph77.png,Stimuli/BlurMorphTrio/EditedMorph77.png,020235right.gif,Stimuli/normal_thumbnails/77right.gif,1,0,1,0,0,80,80,76,,,6,2,81,25,2.265769468,1.056545654,77,988.440078,988.9399188,988.440078,988.9399188,93.19727891,1574375376,1574375379,2.566469193,4,82,-5,-5,1574375374,1574375376,,,JP,1,19,M,Undergrad,2019_Nov_21_1413,AdjustExp1,3.1.5,60.2617854,Experiment
52,Stimuli/Morph52.JPG,Stimuli/Morph52.png,Stimuli/BlurLevel5/BlurEditedMorph52,Stimuli/BlurLevel5/BlurEditedMorph52.png,Stimuli/BlurLevel5/NumberedMorphs/BlurEditedMorph52.png,Stimuli/BlurLevel5/OriginalBlur/BlurEditedMorph52.png,Stimuli/BlurMorphTrio/EditedMorph52.png,010148right.gif,Stimuli/normal_thumbnails/52right.gif,1,0,1,0,0,81,81,51,,,25,2,82,118,-1.173678907,2.207368982,52,993.2889466,993.7897916,993.2889466,993.7897916,98.63945578,1574375382,1574375385,3.466523886,118,53,-1,-1,1574375379,1574375382,,,JP,1,19,M,Undergrad,2019_Nov_21_1413,AdjustExp1,3.1.5,60.2617854,Experiment
49,Stimuli/Morph49.JPG,Stimuli/Morph49.png,Stimuli/BlurLevel5/BlurEditedMorph49,Stimuli/BlurLevel5/BlurEditedMorph49.png,Stimuli/BlurLevel5/NumberedMorphs/BlurEditedMorph49.png,Stimuli/BlurLevel5/OriginalBlur/BlurEditedMorph49.png,Stimuli/BlurMorphTrio/EditedMorph49.png,010135right.gif,Stimuli/normal_thumbnails/49right.gif,1,0,1,0,0,82,82,48,,,19,2,83,34,2.072593931,1.397982259,49,999.4619919,999.9565827,999.4619919,999.9565827,97.27891156,1574375387,1574375389,1.666666031,29,51,-2,-2,1574375385,1574375387,,,JP,1,19,M,Undergrad,2019_Nov_21_1413,AdjustExp1,3.1.5,60.2617854,Experiment
73,Stimuli/Morph73.JPG,Stimuli/Morph73.png,Stimuli/BlurLevel5/BlurEditedMorph73,Stimuli/BlurLevel5/BlurEditedMorph73.png,Stimuli/BlurLevel5/NumberedMorphs/BlurEditedMorph73.png,Stimuli/BlurLevel5/OriginalBlur/BlurEditedMorph73.png,Stimuli/BlurMorphTrio/EditedMorph73.png,020230right.gif,Stimuli/normal_thumbnails/73right.gif,1,0,1,0,0,83,83,72,,,29,2,84,219,-1.942864904,-1.573300978,73,1003.6568,1004.156518,1003.6568,1004.156518,87.75510204,1574375392,1574375394,2.384367228,86,64,9,9,1574375389,1574375392,,,JP,1,19,M,Undergrad,2019_Nov_21_1413,AdjustExp1,3.1.5,60.2617854,Experiment
57,Stimuli/Morph57.JPG,Stimuli/Morph57.png,Stimuli/BlurLevel5/BlurEditedMorph57,Stimuli/BlurLevel5/BlurEditedMorph57.png,Stimuli/BlurLevel5/NumberedMorphs/BlurEditedMorph57.png,Stimuli/BlurLevel5/OriginalBlur/BlurEditedMorph57.png,Stimuli/BlurMorphTrio/EditedMorph57.png,010158right.gif,Stimuli/normal_thumbnails/57right.gif,1,0,1,0,0,84,84,56,,,74,2,85,92,-0.087248742,2.498477068,57,1008.673977,1009.172896,1008.673977,1009.172896,21.08843537,1574375397,1574375398,1.616052151,22,146,-89,58,1574375394,1574375397,,,JP,1,19,M,Undergrad,2019_Nov_21_1413,AdjustExp1,3.1.5,60.2617854,Experiment
11,Stimuli/Morph11.JPG,Stimuli/Morph11.png,Stimuli/BlurLevel5/BlurEditedMorph11,Stimuli/BlurLevel5/BlurEditedMorph11.png,Stimuli/BlurLevel5/NumberedMorphs/BlurEditedMorph11.png,Stimuli/BlurLevel5/OriginalBlur/BlurEditedMorph11.png,Stimuli/BlurMorphTrio/EditedMorph11.png,010024right.gif,Stimuli/normal_thumbnails/11right.gif,2,0,2,0,0,0,0,10,,,34,3,1,179,-2.499619238,0.043631016,11,1112.954552,1113.454552,1112.954552,1113.454552,87.75510204,1574375501,1574375504,3.083153009,71,20,-9,-9,1574375499,1574375501,space,99.96786138,JP,1,19,M,Undergrad,2019_Nov_21_1413,AdjustExp1,3.1.5,60.2617854,Experiment
