stimulusID,stimulus_JPG,stimulusPath,stimulusPath2,stimulusPath3,stimulusPath4,stimulusPath5,stimulusPath6,xRayOriginal,xRayPath,Blocks.thisRepN,Blocks.thisTrialN,Blocks.thisN,Blocks.thisIndex,Trials.thisRepN,Trials.thisTrialN,Trials.thisN,Trials.thisIndex,text_2.started,text_2.stopped,xrayID,blockNumber,trialNumber,stimLocationDeg,stimXCoord,stimYCoord,stimulusID,xray1.started,xray1.stopped,tumors.started,tumors.stopped,trialCorrect%,startRespTime,endRespTime,RT,morphTrack,morphID,errorRaw,errorCorrected,startStimTime,endStimTime,key_resp.keys,key_resp.rt,participant,session,age,gender,status,date,expName,psychopyVersion,frameRate,blockType
62,Stimuli/Morph62.JPG,Stimuli/Morph62.png,Stimuli/BlurLevel5/BlurEditedMorph62,Stimuli/BlurLevel5/BlurEditedMorph62.png,Stimuli/BlurLevel5/NumberedMorphs/BlurEditedMorph62.png,Stimuli/BlurLevel5/OriginalBlur/BlurEditedMorph62.png,Stimuli/BlurMorphTrio/EditedMorph62.png,020205right.gif,Stimuli/normal_thumbnails/62right.gif,0,0,0,0,0,0,0,61,20.40999246,None,38,1,1,68,0.936516484,2.317959636,62,40.22874827,40.73057033,40.22874827,40.73057033,45.57823129,1574372356,1574372362,5.432696819,40,102,-40,-40,1574372354,1574372356,,,MF,1,19,M,Undergrad,2019_Nov_21_1338,AdjustExp1,3.1.5,60.20758962,Experiment
119,Stimuli/Morph119.JPG,Stimuli/Morph119.png,Stimuli/BlurLevel5/BlurEditedMorph119,Stimuli/BlurLevel5/BlurEditedMorph119.png,Stimuli/BlurLevel5/NumberedMorphs/BlurEditedMorph119.png,Stimuli/BlurLevel5/OriginalBlur/BlurEditedMorph119.png,Stimuli/BlurMorphTrio/EditedMorph119.png,None,None,0,0,0,0,0,1,1,118,,,48,1,2,224,-1.798349501,-1.736645926,119,47.93091793,48.4306698,47.93091793,48.4306698,86.39455782,1574372364,1574372366,1.482838869,129,109,10,10,1574372362,1574372364,,,MF,1,19,M,Undergrad,2019_Nov_21_1338,AdjustExp1,3.1.5,60.20758962,Experiment
49,Stimuli/Morph49.JPG,Stimuli/Morph49.png,Stimuli/BlurLevel5/BlurEditedMorph49,Stimuli/BlurLevel5/BlurEditedMorph49.png,Stimuli/BlurLevel5/NumberedMorphs/BlurEditedMorph49.png,Stimuli/BlurLevel5/OriginalBlur/BlurEditedMorph49.png,Stimuli/BlurMorphTrio/EditedMorph49.png,010135right.gif,Stimuli/normal_thumbnails/49right.gif,0,0,0,0,0,2,2,48,,,84,1,3,108,-0.772542486,2.377641291,49,51.65064003,52.14755705,51.65064003,52.14755705,98.63945578,1574372368,1574372373,5.582537889,38,48,1,1,1574372366,1574372368,,,MF,1,19,M,Undergrad,2019_Nov_21_1338,AdjustExp1,3.1.5,60.20758962,Experiment
146,Stimuli/Morph146.JPG,Stimuli/Morph146.png,Stimuli/BlurLevel5/BlurEditedMorph146,Stimuli/BlurLevel5/BlurEditedMorph146.png,Stimuli/BlurLevel5/NumberedMorphs/BlurEditedMorph146.png,Stimuli/BlurLevel5/OriginalBlur/BlurEditedMorph146.png,Stimuli/BlurMorphTrio/EditedMorph146.png,None,None,0,0,0,0,0,3,3,145,,,84,1,4,153,-2.22751631,1.134976249,146,59.34784934,59.84702959,59.34784934,59.84702959,100,1574372376,1574372388,12.36618996,90,146,0,0,1574372374,1574372375,,,MF,1,19,M,Undergrad,2019_Nov_21_1338,AdjustExp1,3.1.5,60.20758962,Experiment
22,Stimuli/Morph22.JPG,Stimuli/Morph22.png,Stimuli/BlurLevel5/BlurEditedMorph22,Stimuli/BlurLevel5/BlurEditedMorph22.png,Stimuli/BlurLevel5/NumberedMorphs/BlurEditedMorph22.png,Stimuli/BlurLevel5/OriginalBlur/BlurEditedMorph22.png,Stimuli/BlurMorphTrio/EditedMorph22.png,010055right.gif,Stimuli/normal_thumbnails/22right.gif,0,0,0,0,0,4,4,21,,,8,1,5,257,-0.562377636,-2.435925162,22,74.08188767,74.58009009,74.08188767,74.58009009,98.63945578,1574372390,1574372394,3.351524115,17,23,-1,-1,1574372388,1574372390,,,MF,1,19,M,Undergrad,2019_Nov_21_1338,AdjustExp1,3.1.5,60.20758962,Experiment
106,Stimuli/Morph106.JPG,Stimuli/Morph106.png,Stimuli/BlurLevel5/BlurEditedMorph106,Stimuli/BlurLevel5/BlurEditedMorph106.png,Stimuli/BlurLevel5/NumberedMorphs/BlurEditedMorph106.png,Stimuli/BlurLevel5/OriginalBlur/BlurEditedMorph106.png,Stimuli/BlurMorphTrio/EditedMorph106.png,None,None,0,0,0,0,0,5,5,105,,,62,1,6,157,-2.301262134,0.976827821,106,79.81477002,80.31301431,79.81477002,80.31301431,94.55782313,1574372396,1574372397,1.133002996,138,110,-4,-4,1574372394,1574372396,,,MF,1,19,M,Undergrad,2019_Nov_21_1338,AdjustExp1,3.1.5,60.20758962,Experiment
3,Stimuli/Morph3.JPG,Stimuli/Morph3.png,Stimuli/BlurLevel5/BlurEditedMorph3,Stimuli/BlurLevel5/BlurEditedMorph3.png,Stimuli/BlurLevel5/NumberedMorphs/BlurEditedMorph3.png,Stimuli/BlurLevel5/OriginalBlur/BlurEditedMorph3.png,Stimuli/BlurMorphTrio/EditedMorph3.png,010009right.gif,Stimuli/normal_thumbnails/3right.gif,0,0,0,0,0,6,6,2,,,53,1,7,243,-1.134976249,-2.22751631,3,83.38216265,83.88016039,83.38216265,83.88016039,57.82312925,1574372400,1574372404,4.500772953,85,119,-116,31,1574372397,1574372400,,,MF,1,19,M,Undergrad,2019_Nov_21_1338,AdjustExp1,3.1.5,60.20758962,Experiment
95,Stimuli/Morph95.JPG,Stimuli/Morph95.png,Stimuli/BlurLevel5/BlurEditedMorph95,Stimuli/BlurLevel5/BlurEditedMorph95.png,Stimuli/BlurLevel5/NumberedMorphs/BlurEditedMorph95.png,Stimuli/BlurLevel5/OriginalBlur/BlurEditedMorph95.png,Stimuli/BlurMorphTrio/EditedMorph95.png,020287right.gif,Stimuli/normal_thumbnails/95right.gif,0,0,0,0,0,7,7,94,,,6,1,8,323,1.996588775,-1.504537558,95,90.78003072,91.27920034,90.78003072,91.27920034,75.51020408,1574372407,1574372409,1.850714922,139,113,-18,-18,1574372404,1574372407,,,MF,1,19,M,Undergrad,2019_Nov_21_1338,AdjustExp1,3.1.5,60.20758962,Experiment
139,Stimuli/Morph139.JPG,Stimuli/Morph139.png,Stimuli/BlurLevel5/BlurEditedMorph139,Stimuli/BlurLevel5/BlurEditedMorph139.png,Stimuli/BlurLevel5/NumberedMorphs/BlurEditedMorph139.png,Stimuli/BlurLevel5/OriginalBlur/BlurEditedMorph139.png,Stimuli/BlurMorphTrio/EditedMorph139.png,None,None,0,0,0,0,0,8,8,138,,,36,1,9,354,2.486304738,-0.261321158,139,95.4298004,95.92981182,95.4298004,95.92981182,89.11564626,1574372412,1574372418,6.850288153,42,131,8,8,1574372409,1574372412,,,MF,1,19,M,Undergrad,2019_Nov_21_1338,AdjustExp1,3.1.5,60.20758962,Experiment
84,Stimuli/Morph84.JPG,Stimuli/Morph84.png,Stimuli/BlurLevel5/BlurEditedMorph84,Stimuli/BlurLevel5/BlurEditedMorph84.png,Stimuli/BlurLevel5/NumberedMorphs/BlurEditedMorph84.png,Stimuli/BlurLevel5/OriginalBlur/BlurEditedMorph84.png,Stimuli/BlurMorphTrio/EditedMorph84.png,020261right.gif,Stimuli/normal_thumbnails/84right.gif,0,0,0,0,0,9,9,83,,,93,1,10,214,-2.072593931,-1.397982259,84,105.7714234,106.2625259,105.7714234,106.2625259,76.8707483,1574372422,1574372427,5.349924803,108,101,-17,-17,1574372419,1574372422,,,MF,1,19,M,Undergrad,2019_Nov_21_1338,AdjustExp1,3.1.5,60.20758962,Experiment
67,Stimuli/Morph67.JPG,Stimuli/Morph67.png,Stimuli/BlurLevel5/BlurEditedMorph67,Stimuli/BlurLevel5/BlurEditedMorph67.png,Stimuli/BlurLevel5/NumberedMorphs/BlurEditedMorph67.png,Stimuli/BlurLevel5/OriginalBlur/BlurEditedMorph67.png,Stimuli/BlurMorphTrio/EditedMorph67.png,020217right.gif,Stimuli/normal_thumbnails/67right.gif,0,0,0,0,0,10,10,66,,,43,1,11,189,-2.469220851,-0.391086163,67,113.8119463,114.3127036,113.8119463,114.3127036,75.51020408,1574372430,1574372436,5.583666325,96,85,-18,-18,1574372428,1574372430,,,MF,1,19,M,Undergrad,2019_Nov_21_1338,AdjustExp1,3.1.5,60.20758962,Experiment
137,Stimuli/Morph137.JPG,Stimuli/Morph137.png,Stimuli/BlurLevel5/BlurEditedMorph137,Stimuli/BlurLevel5/BlurEditedMorph137.png,Stimuli/BlurLevel5/NumberedMorphs/BlurEditedMorph137.png,Stimuli/BlurLevel5/OriginalBlur/BlurEditedMorph137.png,Stimuli/BlurMorphTrio/EditedMorph137.png,None,None,0,0,0,0,0,11,11,136,,,82,1,12,225,-1.767766953,-1.767766953,137,121.6956955,122.1961954,121.6956955,122.1961954,90.47619048,1574372438,1574372443,5.516360044,23,130,7,7,1574372436,1574372438,,,MF,1,19,M,Undergrad,2019_Nov_21_1338,AdjustExp1,3.1.5,60.20758962,Experiment
51,Stimuli/Morph51.JPG,Stimuli/Morph51.png,Stimuli/BlurLevel5/BlurEditedMorph51,Stimuli/BlurLevel5/BlurEditedMorph51.png,Stimuli/BlurLevel5/NumberedMorphs/BlurEditedMorph51.png,Stimuli/BlurLevel5/OriginalBlur/BlurEditedMorph51.png,Stimuli/BlurMorphTrio/EditedMorph51.png,010146right.gif,Stimuli/normal_thumbnails/51right.gif,0,0,0,0,0,12,12,50,,,54,1,13,226,-1.736645926,-1.798349501,51,129.496311,129.9963066,129.496311,129.9963066,97.27891156,1574372446,1574372448,2.317382813,36,49,2,2,1574372444,1574372446,,,MF,1,19,M,Undergrad,2019_Nov_21_1338,AdjustExp1,3.1.5,60.20758962,Experiment
104,Stimuli/Morph104.JPG,Stimuli/Morph104.png,Stimuli/BlurLevel5/BlurEditedMorph104,Stimuli/BlurLevel5/BlurEditedMorph104.png,Stimuli/BlurLevel5/NumberedMorphs/BlurEditedMorph104.png,Stimuli/BlurLevel5/OriginalBlur/BlurEditedMorph104.png,Stimuli/BlurMorphTrio/EditedMorph104.png,None,None,0,0,0,0,0,13,13,103,,,44,1,14,177,-2.496573837,0.130839891,104,134.3162852,134.8131178,134.3162852,134.8131178,95.91836735,1574372450,1574372453,2.799952984,85,107,-3,-3,1574372448,1574372450,,,MF,1,19,M,Undergrad,2019_Nov_21_1338,AdjustExp1,3.1.5,60.20758962,Experiment
45,Stimuli/Morph45.JPG,Stimuli/Morph45.png,Stimuli/BlurLevel5/BlurEditedMorph45,Stimuli/BlurLevel5/BlurEditedMorph45.png,Stimuli/BlurLevel5/NumberedMorphs/BlurEditedMorph45.png,Stimuli/BlurLevel5/OriginalBlur/BlurEditedMorph45.png,Stimuli/BlurMorphTrio/EditedMorph45.png,010127right.gif,Stimuli/normal_thumbnails/45right.gif,0,0,0,0,0,14,14,44,,,65,1,15,247,-0.976827821,-2.301262134,45,139.7490917,140.2461463,139.7490917,140.2461463,83.67346939,1574372456,1574372459,3.567063808,96,33,12,12,1574372454,1574372456,,,MF,1,19,M,Undergrad,2019_Nov_21_1338,AdjustExp1,3.1.5,60.20758962,Experiment
133,Stimuli/Morph133.JPG,Stimuli/Morph133.png,Stimuli/BlurLevel5/BlurEditedMorph133,Stimuli/BlurLevel5/BlurEditedMorph133.png,Stimuli/BlurLevel5/NumberedMorphs/BlurEditedMorph133.png,Stimuli/BlurLevel5/OriginalBlur/BlurEditedMorph133.png,Stimuli/BlurMorphTrio/EditedMorph133.png,None,None,0,0,0,0,0,15,15,132,,,67,1,16,83,0.304673359,2.481365379,133,146.0179419,146.5151083,146.0179419,146.5151083,4.761904762,1574372462,1574372465,3.316486835,103,63,70,70,1574372460,1574372462,,,MF,1,19,M,Undergrad,2019_Nov_21_1338,AdjustExp1,3.1.5,60.20758962,Experiment
37,Stimuli/Morph37.JPG,Stimuli/Morph37.png,Stimuli/BlurLevel5/BlurEditedMorph37,Stimuli/BlurLevel5/BlurEditedMorph37.png,Stimuli/BlurLevel5/NumberedMorphs/BlurEditedMorph37.png,Stimuli/BlurLevel5/OriginalBlur/BlurEditedMorph37.png,Stimuli/BlurMorphTrio/EditedMorph37.png,010097right.gif,Stimuli/normal_thumbnails/37right.gif,0,0,0,0,0,16,16,36,,,66,1,17,102,-0.519779227,2.445369002,37,151.8302071,152.329387,151.8302071,152.329387,91.83673469,1574372468,1574372470,2.466732979,79,31,6,6,1574372466,1574372468,,,MF,1,19,M,Undergrad,2019_Nov_21_1338,AdjustExp1,3.1.5,60.20758962,Experiment
125,Stimuli/Morph125.JPG,Stimuli/Morph125.png,Stimuli/BlurLevel5/BlurEditedMorph125,Stimuli/BlurLevel5/BlurEditedMorph125.png,Stimuli/BlurLevel5/NumberedMorphs/BlurEditedMorph125.png,Stimuli/BlurLevel5/OriginalBlur/BlurEditedMorph125.png,Stimuli/BlurMorphTrio/EditedMorph125.png,None,None,0,0,0,0,0,17,17,124,,,64,1,18,176,-2.493910126,0.174391184,125,156.6127419,157.1126054,156.6127419,157.1126054,79.59183673,1574372473,1574372475,2.30009985,44,110,15,15,1574372471,1574372473,,,MF,1,19,M,Undergrad,2019_Nov_21_1338,AdjustExp1,3.1.5,60.20758962,Experiment
145,Stimuli/Morph145.JPG,Stimuli/Morph145.png,Stimuli/BlurLevel5/BlurEditedMorph145,Stimuli/BlurLevel5/BlurEditedMorph145.png,Stimuli/BlurLevel5/NumberedMorphs/BlurEditedMorph145.png,Stimuli/BlurLevel5/OriginalBlur/BlurEditedMorph145.png,Stimuli/BlurMorphTrio/EditedMorph145.png,None,None,0,0,0,0,0,18,18,144,,,19,1,19,99,-0.391086163,2.469220851,145,161.6791236,162.1791249,161.6791236,162.1791249,72.78911565,1574372478,1574372480,1.866473913,62,18,127,-20,1574372475,1574372478,,,MF,1,19,M,Undergrad,2019_Nov_21_1338,AdjustExp1,3.1.5,60.20758962,Experiment
6,Stimuli/Morph6.JPG,Stimuli/Morph6.png,Stimuli/BlurLevel5/BlurEditedMorph6,Stimuli/BlurLevel5/BlurEditedMorph6.png,Stimuli/BlurLevel5/NumberedMorphs/BlurEditedMorph6.png,Stimuli/BlurLevel5/OriginalBlur/BlurEditedMorph6.png,Stimuli/BlurMorphTrio/EditedMorph6.png,010012right.gif,Stimuli/normal_thumbnails/6right.gif,0,0,0,0,0,19,19,5,,,84,1,20,65,1.056545654,2.265769468,6,166.028798,166.529116,166.028798,166.529116,95.91836735,1574372482,1574372485,2.433346033,73,9,-3,-3,1574372480,1574372482,,,MF,1,19,M,Undergrad,2019_Nov_21_1338,AdjustExp1,3.1.5,60.20758962,Experiment
80,Stimuli/Morph80.JPG,Stimuli/Morph80.png,Stimuli/BlurLevel5/BlurEditedMorph80,Stimuli/BlurLevel5/BlurEditedMorph80.png,Stimuli/BlurLevel5/NumberedMorphs/BlurEditedMorph80.png,Stimuli/BlurLevel5/OriginalBlur/BlurEditedMorph80.png,Stimuli/BlurMorphTrio/EditedMorph80.png,020240right.gif,Stimuli/normal_thumbnails/80right.gif,0,0,0,0,0,20,20,79,,,28,1,21,67,0.976827821,2.301262134,80,171.0787407,171.5791193,171.0787407,171.5791193,8.843537415,1574372487,1574372498,10.38310075,103,13,67,67,1574372485,1574372487,,,MF,1,19,M,Undergrad,2019_Nov_21_1338,AdjustExp1,3.1.5,60.20758962,Experiment
41,Stimuli/Morph41.JPG,Stimuli/Morph41.png,Stimuli/BlurLevel5/BlurEditedMorph41,Stimuli/BlurLevel5/BlurEditedMorph41.png,Stimuli/BlurLevel5/NumberedMorphs/BlurEditedMorph41.png,Stimuli/BlurLevel5/OriginalBlur/BlurEditedMorph41.png,Stimuli/BlurMorphTrio/EditedMorph41.png,010112right.gif,Stimuli/normal_thumbnails/41right.gif,0,0,0,0,0,21,21,40,,,61,1,22,193,-2.435925162,-0.562377636,41,183.8955594,184.3953588,183.8955594,184.3953588,95.91836735,1574372500,1574372502,2.332956076,141,38,3,3,1574372498,1574372500,,,MF,1,19,M,Undergrad,2019_Nov_21_1338,AdjustExp1,3.1.5,60.20758962,Experiment
20,Stimuli/Morph20.JPG,Stimuli/Morph20.png,Stimuli/BlurLevel5/BlurEditedMorph20,Stimuli/BlurLevel5/BlurEditedMorph20.png,Stimuli/BlurLevel5/NumberedMorphs/BlurEditedMorph20.png,Stimuli/BlurLevel5/OriginalBlur/BlurEditedMorph20.png,Stimuli/BlurMorphTrio/EditedMorph20.png,010046right.gif,Stimuli/normal_thumbnails/20right.gif,0,0,0,0,0,22,22,19,,,51,1,23,165,-2.414814566,0.647047613,20,188.8444174,189.345207,188.8444174,189.345207,91.83673469,1574372505,1574372507,1.667222023,43,14,6,6,1574372503,1574372505,,,MF,1,19,M,Undergrad,2019_Nov_21_1338,AdjustExp1,3.1.5,60.20758962,Experiment
92,Stimuli/Morph92.JPG,Stimuli/Morph92.png,Stimuli/BlurLevel5/BlurEditedMorph92,Stimuli/BlurLevel5/BlurEditedMorph92.png,Stimuli/BlurLevel5/NumberedMorphs/BlurEditedMorph92.png,Stimuli/BlurLevel5/OriginalBlur/BlurEditedMorph92.png,Stimuli/BlurMorphTrio/EditedMorph92.png,020277right.gif,Stimuli/normal_thumbnails/92right.gif,0,0,0,0,0,23,23,91,,,13,1,24,102,-0.519779227,2.445369002,92,193.3479112,193.8474081,193.3479112,193.8474081,6.12244898,1574372510,1574372513,3.21658206,141,23,69,69,1574372507,1574372509,,,MF,1,19,M,Undergrad,2019_Nov_21_1338,AdjustExp1,3.1.5,60.20758962,Experiment
109,Stimuli/Morph109.JPG,Stimuli/Morph109.png,Stimuli/BlurLevel5/BlurEditedMorph109,Stimuli/BlurLevel5/BlurEditedMorph109.png,Stimuli/BlurLevel5/NumberedMorphs/BlurEditedMorph109.png,Stimuli/BlurLevel5/OriginalBlur/BlurEditedMorph109.png,Stimuli/BlurMorphTrio/EditedMorph109.png,None,None,0,0,0,0,0,24,24,108,,,2,1,25,107,-0.730929262,2.39076189,109,198.9670009,199.4619399,198.9670009,199.4619399,100,1574372515,1574372518,3.250237942,86,109,0,0,1574372513,1574372515,,,MF,1,19,M,Undergrad,2019_Nov_21_1338,AdjustExp1,3.1.5,60.20758962,Experiment
19,Stimuli/Morph19.JPG,Stimuli/Morph19.png,Stimuli/BlurLevel5/BlurEditedMorph19,Stimuli/BlurLevel5/BlurEditedMorph19.png,Stimuli/BlurLevel5/NumberedMorphs/BlurEditedMorph19.png,Stimuli/BlurLevel5/OriginalBlur/BlurEditedMorph19.png,Stimuli/BlurMorphTrio/EditedMorph19.png,010045right.gif,Stimuli/normal_thumbnails/19right.gif,0,0,0,0,0,25,25,18,,,23,1,26,51,1.573300978,1.942864904,19,204.8154958,205.3115815,204.8154958,205.3115815,98.63945578,1574372521,1574372523,1.600375175,59,20,-1,-1,1574372519,1574372521,,,MF,1,19,M,Undergrad,2019_Nov_21_1338,AdjustExp1,3.1.5,60.20758962,Experiment
132,Stimuli/Morph132.JPG,Stimuli/Morph132.png,Stimuli/BlurLevel5/BlurEditedMorph132,Stimuli/BlurLevel5/BlurEditedMorph132.png,Stimuli/BlurLevel5/NumberedMorphs/BlurEditedMorph132.png,Stimuli/BlurLevel5/OriginalBlur/BlurEditedMorph132.png,Stimuli/BlurMorphTrio/EditedMorph132.png,None,None,0,0,0,0,0,26,26,131,,,92,1,27,274,0.174391184,-2.493910126,132,209.4286181,209.9282532,209.4286181,209.9282532,87.75510204,1574372526,1574372529,3.383770943,5,123,9,9,1574372523,1574372526,,,MF,1,19,M,Undergrad,2019_Nov_21_1338,AdjustExp1,3.1.5,60.20758962,Experiment
131,Stimuli/Morph131.JPG,Stimuli/Morph131.png,Stimuli/BlurLevel5/BlurEditedMorph131,Stimuli/BlurLevel5/BlurEditedMorph131.png,Stimuli/BlurLevel5/NumberedMorphs/BlurEditedMorph131.png,Stimuli/BlurLevel5/OriginalBlur/BlurEditedMorph131.png,Stimuli/BlurMorphTrio/EditedMorph131.png,None,None,0,0,0,0,0,27,27,130,,,42,1,28,346,2.425739316,-0.604804739,131,215.7672535,216.2616883,215.7672535,216.2616883,82.31292517,1574372532,1574372535,2.633285761,69,118,13,13,1574372529,1574372532,,,MF,1,19,M,Undergrad,2019_Nov_21_1338,AdjustExp1,3.1.5,60.20758962,Experiment
86,Stimuli/Morph86.JPG,Stimuli/Morph86.png,Stimuli/BlurLevel5/BlurEditedMorph86,Stimuli/BlurLevel5/BlurEditedMorph86.png,Stimuli/BlurLevel5/NumberedMorphs/BlurEditedMorph86.png,Stimuli/BlurLevel5/OriginalBlur/BlurEditedMorph86.png,Stimuli/BlurMorphTrio/EditedMorph86.png,020266right.gif,Stimuli/normal_thumbnails/86right.gif,0,0,0,0,0,28,28,85,,,89,1,29,58,1.324798161,2.12012024,86,221.0784078,221.5782236,221.0784078,221.5782236,75.51020408,1574372537,1574372539,1.499515057,100,104,-18,-18,1574372535,1574372537,,,MF,1,19,M,Undergrad,2019_Nov_21_1338,AdjustExp1,3.1.5,60.20758962,Experiment
7,Stimuli/Morph7.JPG,Stimuli/Morph7.png,Stimuli/BlurLevel5/BlurEditedMorph7,Stimuli/BlurLevel5/BlurEditedMorph7.png,Stimuli/BlurLevel5/NumberedMorphs/BlurEditedMorph7.png,Stimuli/BlurLevel5/OriginalBlur/BlurEditedMorph7.png,Stimuli/BlurMorphTrio/EditedMorph7.png,010013right.gif,Stimuli/normal_thumbnails/7right.gif,0,0,0,0,0,29,29,6,,,18,1,30,313,1.7049959,-1.828384254,7,224.7497345,225.2444831,224.7497345,225.2444831,72.78911565,1574372541,1574372544,3.082863092,41,134,-127,20,1574372539,1574372541,,,MF,1,19,M,Undergrad,2019_Nov_21_1338,AdjustExp1,3.1.5,60.20758962,Experiment
83,Stimuli/Morph83.JPG,Stimuli/Morph83.png,Stimuli/BlurLevel5/BlurEditedMorph83,Stimuli/BlurLevel5/BlurEditedMorph83.png,Stimuli/BlurLevel5/NumberedMorphs/BlurEditedMorph83.png,Stimuli/BlurLevel5/OriginalBlur/BlurEditedMorph83.png,Stimuli/BlurMorphTrio/EditedMorph83.png,020259right.gif,Stimuli/normal_thumbnails/83right.gif,0,0,0,0,0,30,30,82,,,39,1,31,312,1.672826516,-1.857862064,83,230.4943559,230.9951027,230.4943559,230.9951027,53.7414966,1574372547,1574372548,0.949892998,141,117,-34,-34,1574372544,1574372547,,,MF,1,19,M,Undergrad,2019_Nov_21_1338,AdjustExp1,3.1.5,60.20758962,Experiment
74,Stimuli/Morph74.JPG,Stimuli/Morph74.png,Stimuli/BlurLevel5/BlurEditedMorph74,Stimuli/BlurLevel5/BlurEditedMorph74.png,Stimuli/BlurLevel5/NumberedMorphs/BlurEditedMorph74.png,Stimuli/BlurLevel5/OriginalBlur/BlurEditedMorph74.png,Stimuli/BlurMorphTrio/EditedMorph74.png,020232right.gif,Stimuli/normal_thumbnails/74right.gif,0,0,0,0,0,31,31,73,,,95,1,32,144,-2.022542486,1.469463131,74,234.4285947,234.928022,234.4285947,234.928022,67.34693878,1574372551,1574372552,1.216189146,73,98,-24,-24,1574372548,1574372551,,,MF,1,19,M,Undergrad,2019_Nov_21_1338,AdjustExp1,3.1.5,60.20758962,Experiment
128,Stimuli/Morph128.JPG,Stimuli/Morph128.png,Stimuli/BlurLevel5/BlurEditedMorph128,Stimuli/BlurLevel5/BlurEditedMorph128.png,Stimuli/BlurLevel5/NumberedMorphs/BlurEditedMorph128.png,Stimuli/BlurLevel5/OriginalBlur/BlurEditedMorph128.png,Stimuli/BlurMorphTrio/EditedMorph128.png,None,None,0,0,0,0,0,32,32,127,,,34,1,33,95,-0.217889357,2.490486745,128,238.3961285,238.8947591,238.3961285,238.8947591,59.18367347,1574372555,1574372557,2.600019932,128,98,30,30,1574372552,1574372555,,,MF,1,19,M,Undergrad,2019_Nov_21_1338,AdjustExp1,3.1.5,60.20758962,Experiment
65,Stimuli/Morph65.JPG,Stimuli/Morph65.png,Stimuli/BlurLevel5/BlurEditedMorph65,Stimuli/BlurLevel5/BlurEditedMorph65.png,Stimuli/BlurLevel5/NumberedMorphs/BlurEditedMorph65.png,Stimuli/BlurLevel5/OriginalBlur/BlurEditedMorph65.png,Stimuli/BlurMorphTrio/EditedMorph65.png,020209right.gif,Stimuli/normal_thumbnails/65right.gif,0,0,0,0,0,33,33,64,,,88,1,34,99,-0.391086163,2.469220851,65,243.3680627,243.8610896,243.3680627,243.8610896,76.8707483,1574372560,1574372562,2.666809082,140,82,-17,-17,1574372557,1574372560,,,MF,1,19,M,Undergrad,2019_Nov_21_1338,AdjustExp1,3.1.5,60.20758962,Experiment
29,Stimuli/Morph29.JPG,Stimuli/Morph29.png,Stimuli/BlurLevel5/BlurEditedMorph29,Stimuli/BlurLevel5/BlurEditedMorph29.png,Stimuli/BlurLevel5/NumberedMorphs/BlurEditedMorph29.png,Stimuli/BlurLevel5/OriginalBlur/BlurEditedMorph29.png,Stimuli/BlurMorphTrio/EditedMorph29.png,010074right.gif,Stimuli/normal_thumbnails/29right.gif,0,0,0,0,0,34,34,28,,,74,1,35,33,2.09667642,1.361597588,29,248.3946942,248.8939189,248.3946942,248.8939189,79.59183673,1574372565,1574372572,7.182174921,145,44,-15,-15,1574372562,1574372565,,,MF,1,19,M,Undergrad,2019_Nov_21_1338,AdjustExp1,3.1.5,60.20758962,Experiment
2,Stimuli/Morph2.JPG,Stimuli/Morph2.png,Stimuli/BlurLevel5/BlurEditedMorph2,Stimuli/BlurLevel5/BlurEditedMorph2.png,Stimuli/BlurLevel5/NumberedMorphs/BlurEditedMorph2.png,Stimuli/BlurLevel5/OriginalBlur/BlurEditedMorph2.png,Stimuli/BlurMorphTrio/EditedMorph2.png,010006right.gif,Stimuli/normal_thumbnails/2right.gif,0,0,0,0,0,35,35,1,,,26,1,36,213,-2.09667642,-1.361597588,2,257.9828623,258.4777053,257.9828623,258.4777053,97.27891156,1574372574,1574372577,2.400269985,87,4,-2,-2,1574372572,1574372574,,,MF,1,19,M,Undergrad,2019_Nov_21_1338,AdjustExp1,3.1.5,60.20758962,Experiment
124,Stimuli/Morph124.JPG,Stimuli/Morph124.png,Stimuli/BlurLevel5/BlurEditedMorph124,Stimuli/BlurLevel5/BlurEditedMorph124.png,Stimuli/BlurLevel5/NumberedMorphs/BlurEditedMorph124.png,Stimuli/BlurLevel5/OriginalBlur/BlurEditedMorph124.png,Stimuli/BlurMorphTrio/EditedMorph124.png,None,None,0,0,0,0,0,36,36,123,,,91,1,37,10,2.462019383,0.434120444,124,263.161096,263.661071,263.161096,263.661071,93.19727891,1574372579,1574372582,2.183628082,49,119,5,5,1574372577,1574372579,,,MF,1,19,M,Undergrad,2019_Nov_21_1338,AdjustExp1,3.1.5,60.20758962,Experiment
141,Stimuli/Morph141.JPG,Stimuli/Morph141.png,Stimuli/BlurLevel5/BlurEditedMorph141,Stimuli/BlurLevel5/BlurEditedMorph141.png,Stimuli/BlurLevel5/NumberedMorphs/BlurEditedMorph141.png,Stimuli/BlurLevel5/OriginalBlur/BlurEditedMorph141.png,Stimuli/BlurMorphTrio/EditedMorph141.png,None,None,0,0,0,0,0,37,37,140,,,27,1,38,285,0.647047613,-2.414814566,141,267.9157208,268.4105469,267.9157208,268.4105469,94.55782313,1574372584,1574372586,2.283092976,50,145,-4,-4,1574372582,1574372584,,,MF,1,19,M,Undergrad,2019_Nov_21_1338,AdjustExp1,3.1.5,60.20758962,Experiment
31,Stimuli/Morph31.JPG,Stimuli/Morph31.png,Stimuli/BlurLevel5/BlurEditedMorph31,Stimuli/BlurLevel5/BlurEditedMorph31.png,Stimuli/BlurLevel5/NumberedMorphs/BlurEditedMorph31.png,Stimuli/BlurLevel5/OriginalBlur/BlurEditedMorph31.png,Stimuli/BlurMorphTrio/EditedMorph31.png,010079right.gif,Stimuli/normal_thumbnails/31right.gif,0,0,0,0,0,38,38,30,,,33,1,39,60,1.25,2.165063509,31,272.7770565,273.2772148,272.7770565,273.2772148,95.91836735,1574372589,1574372594,4.884015083,28,34,-3,-3,1574372587,1574372589,,,MF,1,19,M,Undergrad,2019_Nov_21_1338,AdjustExp1,3.1.5,60.20758962,Experiment
113,Stimuli/Morph113.JPG,Stimuli/Morph113.png,Stimuli/BlurLevel5/BlurEditedMorph113,Stimuli/BlurLevel5/BlurEditedMorph113.png,Stimuli/BlurLevel5/NumberedMorphs/BlurEditedMorph113.png,Stimuli/BlurLevel5/OriginalBlur/BlurEditedMorph113.png,Stimuli/BlurMorphTrio/EditedMorph113.png,None,None,0,0,0,0,0,39,39,112,,,26,1,40,225,-1.767766953,-1.767766953,113,279.91097,280.4107923,279.91097,280.4107923,82.31292517,1574372596,1574372600,3.683176756,87,100,13,13,1574372594,1574372596,,,MF,1,19,M,Undergrad,2019_Nov_21_1338,AdjustExp1,3.1.5,60.20758962,Experiment
5,Stimuli/Morph5.JPG,Stimuli/Morph5.png,Stimuli/BlurLevel5/BlurEditedMorph5,Stimuli/BlurLevel5/BlurEditedMorph5.png,Stimuli/BlurLevel5/NumberedMorphs/BlurEditedMorph5.png,Stimuli/BlurLevel5/OriginalBlur/BlurEditedMorph5.png,Stimuli/BlurMorphTrio/EditedMorph5.png,010011right.gif,Stimuli/normal_thumbnails/5right.gif,0,0,0,0,0,40,40,4,,,30,1,41,188,-2.475670172,-0.347932752,5,286.2266067,286.7274916,286.2266067,286.7274916,89.11564626,1574372602,1574372604,1.333711147,131,144,-139,8,1574372600,1574372602,,,MF,1,19,M,Undergrad,2019_Nov_21_1338,AdjustExp1,3.1.5,60.20758962,Experiment
38,Stimuli/Morph38.JPG,Stimuli/Morph38.png,Stimuli/BlurLevel5/BlurEditedMorph38,Stimuli/BlurLevel5/BlurEditedMorph38.png,Stimuli/BlurLevel5/NumberedMorphs/BlurEditedMorph38.png,Stimuli/BlurLevel5/OriginalBlur/BlurEditedMorph38.png,Stimuli/BlurMorphTrio/EditedMorph38.png,010108right.gif,Stimuli/normal_thumbnails/38right.gif,0,0,0,0,0,41,41,37,,,78,1,42,203,-2.301262134,-0.976827821,38,290.015754,290.5106153,290.015754,290.5106153,97.27891156,1574372606,1574372610,3.983161926,43,36,2,2,1574372604,1574372606,,,MF,1,19,M,Undergrad,2019_Nov_21_1338,AdjustExp1,3.1.5,60.20758962,Experiment
72,Stimuli/Morph72.JPG,Stimuli/Morph72.png,Stimuli/BlurLevel5/BlurEditedMorph72,Stimuli/BlurLevel5/BlurEditedMorph72.png,Stimuli/BlurLevel5/NumberedMorphs/BlurEditedMorph72.png,Stimuli/BlurLevel5/OriginalBlur/BlurEditedMorph72.png,Stimuli/BlurMorphTrio/EditedMorph72.png,020227right.gif,Stimuli/normal_thumbnails/72right.gif,0,0,0,0,0,42,42,71,,,15,1,43,348,2.445369002,-0.519779227,72,296.3274348,296.827659,296.3274348,296.827659,75.51020408,1574372612,1574372615,3.000235081,100,54,18,18,1574372610,1574372612,,,MF,1,19,M,Undergrad,2019_Nov_21_1338,AdjustExp1,3.1.5,60.20758962,Experiment
115,Stimuli/Morph115.JPG,Stimuli/Morph115.png,Stimuli/BlurLevel5/BlurEditedMorph115,Stimuli/BlurLevel5/BlurEditedMorph115.png,Stimuli/BlurLevel5/NumberedMorphs/BlurEditedMorph115.png,Stimuli/BlurLevel5/OriginalBlur/BlurEditedMorph115.png,Stimuli/BlurMorphTrio/EditedMorph115.png,None,None,0,0,0,0,0,43,43,114,,,87,1,44,77,0.562377636,2.435925162,115,301.6272051,302.1269612,301.6272051,302.1269612,8.843537415,1574372618,1574372620,2.532997131,99,35,80,-67,1574372616,1574372618,,,MF,1,19,M,Undergrad,2019_Nov_21_1338,AdjustExp1,3.1.5,60.20758962,Experiment
135,Stimuli/Morph135.JPG,Stimuli/Morph135.png,Stimuli/BlurLevel5/BlurEditedMorph135,Stimuli/BlurLevel5/BlurEditedMorph135.png,Stimuli/BlurLevel5/NumberedMorphs/BlurEditedMorph135.png,Stimuli/BlurLevel5/OriginalBlur/BlurEditedMorph135.png,Stimuli/BlurMorphTrio/EditedMorph135.png,None,None,0,0,0,0,0,44,44,134,,,11,1,45,76,0.604804739,2.425739316,135,306.7092627,307.2106714,306.7092627,307.2106714,40.13605442,1574372623,1574372629,6.050147057,93,32,103,-44,1574372621,1574372623,,,MF,1,19,M,Undergrad,2019_Nov_21_1338,AdjustExp1,3.1.5,60.20758962,Experiment
27,Stimuli/Morph27.JPG,Stimuli/Morph27.png,Stimuli/BlurLevel5/BlurEditedMorph27,Stimuli/BlurLevel5/BlurEditedMorph27.png,Stimuli/BlurLevel5/NumberedMorphs/BlurEditedMorph27.png,Stimuli/BlurLevel5/OriginalBlur/BlurEditedMorph27.png,Stimuli/BlurMorphTrio/EditedMorph27.png,010072right.gif,Stimuli/normal_thumbnails/27right.gif,0,0,0,0,0,45,45,26,,,22,1,46,182,-2.498477068,-0.087248742,27,315.2621694,315.7602694,315.2621694,315.7602694,87.75510204,1574372631,1574372634,2.49990797,57,18,9,9,1574372629,1574372631,,,MF,1,19,M,Undergrad,2019_Nov_21_1338,AdjustExp1,3.1.5,60.20758962,Experiment
75,Stimuli/Morph75.JPG,Stimuli/Morph75.png,Stimuli/BlurLevel5/BlurEditedMorph75,Stimuli/BlurLevel5/BlurEditedMorph75.png,Stimuli/BlurLevel5/NumberedMorphs/BlurEditedMorph75.png,Stimuli/BlurLevel5/OriginalBlur/BlurEditedMorph75.png,Stimuli/BlurMorphTrio/EditedMorph75.png,020233right.gif,Stimuli/normal_thumbnails/75right.gif,0,0,0,0,0,46,46,74,,,15,1,47,1,2.499619238,0.043631016,75,320.0455454,320.543186,320.0455454,320.543186,89.11564626,1574372636,1574372637,1.217262983,83,67,8,8,1574372634,1574372636,,,MF,1,19,M,Undergrad,2019_Nov_21_1338,AdjustExp1,3.1.5,60.20758962,Experiment
136,Stimuli/Morph136.JPG,Stimuli/Morph136.png,Stimuli/BlurLevel5/BlurEditedMorph136,Stimuli/BlurLevel5/BlurEditedMorph136.png,Stimuli/BlurLevel5/NumberedMorphs/BlurEditedMorph136.png,Stimuli/BlurLevel5/OriginalBlur/BlurEditedMorph136.png,Stimuli/BlurMorphTrio/EditedMorph136.png,None,None,0,0,0,0,0,47,47,135,,,80,1,48,4,2.493910126,0.174391184,136,323.6925768,324.1932242,323.6925768,324.1932242,80.95238095,1574372640,1574372644,4.466289759,86,3,133,-14,1574372638,1574372640,,,MF,1,19,M,Undergrad,2019_Nov_21_1338,AdjustExp1,3.1.5,60.20758962,Experiment
58,Stimuli/Morph58.JPG,Stimuli/Morph58.png,Stimuli/BlurLevel5/BlurEditedMorph58,Stimuli/BlurLevel5/BlurEditedMorph58.png,Stimuli/BlurLevel5/NumberedMorphs/BlurEditedMorph58.png,Stimuli/BlurLevel5/OriginalBlur/BlurEditedMorph58.png,Stimuli/BlurMorphTrio/EditedMorph58.png,010159right.gif,Stimuli/normal_thumbnails/58right.gif,0,0,0,0,0,48,48,57,,,34,1,49,97,-0.304673359,2.481365379,58,330.9262141,331.4269493,330.9262141,331.4269493,95.91836735,1574372647,1574372650,2.748700857,129,55,3,3,1574372645,1574372647,,,MF,1,19,M,Undergrad,2019_Nov_21_1338,AdjustExp1,3.1.5,60.20758962,Experiment
26,Stimuli/Morph26.JPG,Stimuli/Morph26.png,Stimuli/BlurLevel5/BlurEditedMorph26,Stimuli/BlurLevel5/BlurEditedMorph26.png,Stimuli/BlurLevel5/NumberedMorphs/BlurEditedMorph26.png,Stimuli/BlurLevel5/OriginalBlur/BlurEditedMorph26.png,Stimuli/BlurMorphTrio/EditedMorph26.png,010070right.gif,Stimuli/normal_thumbnails/26right.gif,0,0,0,0,0,49,49,25,,,12,1,50,299,1.212024051,-2.186549268,26,336.626629,337.1265281,336.626629,337.1265281,70.06802721,1574372653,1574372658,5.632660866,65,4,22,22,1574372650,1574372653,,,MF,1,19,M,Undergrad,2019_Nov_21_1338,AdjustExp1,3.1.5,60.20758962,Experiment
33,Stimuli/Morph33.JPG,Stimuli/Morph33.png,Stimuli/BlurLevel5/BlurEditedMorph33,Stimuli/BlurLevel5/BlurEditedMorph33.png,Stimuli/BlurLevel5/NumberedMorphs/BlurEditedMorph33.png,Stimuli/BlurLevel5/OriginalBlur/BlurEditedMorph33.png,Stimuli/BlurMorphTrio/EditedMorph33.png,010089right.gif,Stimuli/normal_thumbnails/33right.gif,0,0,0,0,0,50,50,32,,,74,1,51,328,2.12012024,-1.324798161,33,344.9423994,345.4434037,344.9423994,345.4434037,83.67346939,1574372661,1574372664,3.33273077,116,45,-12,-12,1574372659,1574372661,,,MF,1,19,M,Undergrad,2019_Nov_21_1338,AdjustExp1,3.1.5,60.20758962,Experiment
11,Stimuli/Morph11.JPG,Stimuli/Morph11.png,Stimuli/BlurLevel5/BlurEditedMorph11,Stimuli/BlurLevel5/BlurEditedMorph11.png,Stimuli/BlurLevel5/NumberedMorphs/BlurEditedMorph11.png,Stimuli/BlurLevel5/OriginalBlur/BlurEditedMorph11.png,Stimuli/BlurMorphTrio/EditedMorph11.png,010024right.gif,Stimuli/normal_thumbnails/11right.gif,0,0,0,0,0,51,51,10,,,63,1,52,280,0.434120444,-2.462019383,11,350.8754558,351.3760138,350.8754558,351.3760138,94.55782313,1574372667,1574372671,4.000391245,91,7,4,4,1574372665,1574372667,,,MF,1,19,M,Undergrad,2019_Nov_21_1338,AdjustExp1,3.1.5,60.20758962,Experiment
108,Stimuli/Morph108.JPG,Stimuli/Morph108.png,Stimuli/BlurLevel5/BlurEditedMorph108,Stimuli/BlurLevel5/BlurEditedMorph108.png,Stimuli/BlurLevel5/NumberedMorphs/BlurEditedMorph108.png,Stimuli/BlurLevel5/OriginalBlur/BlurEditedMorph108.png,Stimuli/BlurMorphTrio/EditedMorph108.png,None,None,0,0,0,0,0,52,52,107,,,81,1,53,12,2.445369002,0.519779227,108,357.1100231,357.6101298,357.1100231,357.6101298,100,1574372673,1574372676,2.683202028,56,108,0,0,1574372671,1574372673,,,MF,1,19,M,Undergrad,2019_Nov_21_1338,AdjustExp1,3.1.5,60.20758962,Experiment
17,Stimuli/Morph17.JPG,Stimuli/Morph17.png,Stimuli/BlurLevel5/BlurEditedMorph17,Stimuli/BlurLevel5/BlurEditedMorph17.png,Stimuli/BlurLevel5/NumberedMorphs/BlurEditedMorph17.png,Stimuli/BlurLevel5/OriginalBlur/BlurEditedMorph17.png,Stimuli/BlurMorphTrio/EditedMorph17.png,010036right.gif,Stimuli/normal_thumbnails/17right.gif,0,0,0,0,0,53,53,16,,,39,1,54,68,0.936516484,2.317959636,17,362.326863,362.8256856,362.326863,362.8256856,98.63945578,1574372678,1574372682,3.66672492,129,18,-1,-1,1574372676,1574372678,,,MF,1,19,M,Undergrad,2019_Nov_21_1338,AdjustExp1,3.1.5,60.20758962,Experiment
130,Stimuli/Morph130.JPG,Stimuli/Morph130.png,Stimuli/BlurLevel5/BlurEditedMorph130,Stimuli/BlurLevel5/BlurEditedMorph130.png,Stimuli/BlurLevel5/NumberedMorphs/BlurEditedMorph130.png,Stimuli/BlurLevel5/OriginalBlur/BlurEditedMorph130.png,Stimuli/BlurMorphTrio/EditedMorph130.png,None,None,0,0,0,0,0,54,54,129,,,82,1,55,324,2.022542486,-1.469463131,130,368.292876,368.7927171,368.292876,368.7927171,86.39455782,1574372684,1574372686,1.799736977,24,120,10,10,1574372682,1574372684,,,MF,1,19,M,Undergrad,2019_Nov_21_1338,AdjustExp1,3.1.5,60.20758962,Experiment
18,Stimuli/Morph18.JPG,Stimuli/Morph18.png,Stimuli/BlurLevel5/BlurEditedMorph18,Stimuli/BlurLevel5/BlurEditedMorph18.png,Stimuli/BlurLevel5/NumberedMorphs/BlurEditedMorph18.png,Stimuli/BlurLevel5/OriginalBlur/BlurEditedMorph18.png,Stimuli/BlurMorphTrio/EditedMorph18.png,010039right.gif,Stimuli/normal_thumbnails/18right.gif,0,0,0,0,0,55,55,17,,,74,1,56,12,2.445369002,0.519779227,18,372.3814333,372.8756395,372.3814333,372.8756395,97.27891156,1574372689,1574372693,4.117267132,107,20,-2,-2,1574372687,1574372689,,,MF,1,19,M,Undergrad,2019_Nov_21_1338,AdjustExp1,3.1.5,60.20758962,Experiment
140,Stimuli/Morph140.JPG,Stimuli/Morph140.png,Stimuli/BlurLevel5/BlurEditedMorph140,Stimuli/BlurLevel5/BlurEditedMorph140.png,Stimuli/BlurLevel5/NumberedMorphs/BlurEditedMorph140.png,Stimuli/BlurLevel5/OriginalBlur/BlurEditedMorph140.png,Stimuli/BlurMorphTrio/EditedMorph140.png,None,None,0,0,0,0,0,56,56,139,,,4,1,57,0,2.5,0,140,378.9754552,379.4761678,378.9754552,379.4761678,61.9047619,1574372695,1574372698,2.466602087,86,21,119,-28,1574372693,1574372695,,,MF,1,19,M,Undergrad,2019_Nov_21_1338,AdjustExp1,3.1.5,60.20758962,Experiment
1,Stimuli/Morph1.JPG,Stimuli/Morph1.png,Stimuli/BlurLevel5/BlurEditedMorph1,Stimuli/BlurLevel5/BlurEditedMorph1.png,Stimuli/BlurLevel5/NumberedMorphs/BlurEditedMorph1.png,Stimuli/BlurLevel5/OriginalBlur/BlurEditedMorph1.png,Stimuli/BlurMorphTrio/EditedMorph1.png,010003right.gif,Stimuli/normal_thumbnails/1right.gif,0,0,0,0,0,57,57,0,,,49,1,58,24,2.283863644,1.016841608,1,383.9925396,384.4929504,383.9925396,384.4929504,95.91836735,1574372700,1574372703,3.016297102,18,4,-3,-3,1574372698,1574372700,,,MF,1,19,M,Undergrad,2019_Nov_21_1338,AdjustExp1,3.1.5,60.20758962,Experiment
99,Stimuli/Morph99.JPG,Stimuli/Morph99.png,Stimuli/BlurLevel5/BlurEditedMorph99,Stimuli/BlurLevel5/BlurEditedMorph99.png,Stimuli/BlurLevel5/NumberedMorphs/BlurEditedMorph99.png,Stimuli/BlurLevel5/OriginalBlur/BlurEditedMorph99.png,Stimuli/BlurMorphTrio/EditedMorph99.png,020299right.gif,Stimuli/normal_thumbnails/99right.gif,0,0,0,0,0,58,58,98,,,79,1,59,298,1.173678907,-2.207368982,99,389.5156702,390.0085673,389.5156702,390.0085673,89.11564626,1574372706,1574372709,3.133492947,89,107,-8,-8,1574372703,1574372706,,,MF,1,19,M,Undergrad,2019_Nov_21_1338,AdjustExp1,3.1.5,60.20758962,Experiment
40,Stimuli/Morph40.JPG,Stimuli/Morph40.png,Stimuli/BlurLevel5/BlurEditedMorph40,Stimuli/BlurLevel5/BlurEditedMorph40.png,Stimuli/BlurLevel5/NumberedMorphs/BlurEditedMorph40.png,Stimuli/BlurLevel5/OriginalBlur/BlurEditedMorph40.png,Stimuli/BlurMorphTrio/EditedMorph40.png,010110right.gif,Stimuli/normal_thumbnails/40right.gif,0,0,0,0,0,59,59,39,,,75,1,60,274,0.174391184,-2.493910126,40,394.9430088,395.4427388,394.9430088,395.4427388,95.91836735,1574372711,1574372712,0.80016017,37,37,3,3,1574372709,1574372711,,,MF,1,19,M,Undergrad,2019_Nov_21_1338,AdjustExp1,3.1.5,60.20758962,Experiment
64,Stimuli/Morph64.JPG,Stimuli/Morph64.png,Stimuli/BlurLevel5/BlurEditedMorph64,Stimuli/BlurLevel5/BlurEditedMorph64.png,Stimuli/BlurLevel5/NumberedMorphs/BlurEditedMorph64.png,Stimuli/BlurLevel5/OriginalBlur/BlurEditedMorph64.png,Stimuli/BlurMorphTrio/EditedMorph64.png,020208right.gif,Stimuli/normal_thumbnails/64right.gif,0,0,0,0,0,60,60,63,,,92,1,61,349,2.454067959,-0.477022488,64,398.8618093,399.3589863,398.8618093,399.3589863,91.83673469,1574372715,1574372718,2.782978773,67,58,6,6,1574372712,1574372715,,,MF,1,19,M,Undergrad,2019_Nov_21_1338,AdjustExp1,3.1.5,60.20758962,Experiment
101,Stimuli/Morph101.JPG,Stimuli/Morph101.png,Stimuli/BlurLevel5/BlurEditedMorph101,Stimuli/BlurLevel5/BlurEditedMorph101.png,Stimuli/BlurLevel5/NumberedMorphs/BlurEditedMorph101.png,Stimuli/BlurLevel5/OriginalBlur/BlurEditedMorph101.png,Stimuli/BlurMorphTrio/EditedMorph101.png,None,None,0,0,0,0,0,61,61,100,,,53,1,62,67,0.976827821,2.301262134,101,404.4752861,404.9756796,404.4752861,404.9756796,93.19727891,1574372721,1574372723,1.883610725,68,96,5,5,1574372718,1574372721,,,MF,1,19,M,Undergrad,2019_Nov_21_1338,AdjustExp1,3.1.5,60.20758962,Experiment
142,Stimuli/Morph142.JPG,Stimuli/Morph142.png,Stimuli/BlurLevel5/BlurEditedMorph142,Stimuli/BlurLevel5/BlurEditedMorph142.png,Stimuli/BlurLevel5/NumberedMorphs/BlurEditedMorph142.png,Stimuli/BlurLevel5/OriginalBlur/BlurEditedMorph142.png,Stimuli/BlurMorphTrio/EditedMorph142.png,None,None,0,0,0,0,0,62,62,141,,,48,1,63,2,2.498477068,0.087248742,142,409.0248366,409.5256411,409.0248366,409.5256411,100,1574372725,1574372727,1.84980607,41,142,0,0,1574372723,1574372725,,,MF,1,19,M,Undergrad,2019_Nov_21_1338,AdjustExp1,3.1.5,60.20758962,Experiment
134,Stimuli/Morph134.JPG,Stimuli/Morph134.png,Stimuli/BlurLevel5/BlurEditedMorph134,Stimuli/BlurLevel5/BlurEditedMorph134.png,Stimuli/BlurLevel5/NumberedMorphs/BlurEditedMorph134.png,Stimuli/BlurLevel5/OriginalBlur/BlurEditedMorph134.png,Stimuli/BlurMorphTrio/EditedMorph134.png,None,None,0,0,0,0,0,63,63,133,,,73,1,64,118,-1.173678907,2.207368982,134,413.4088546,413.9090575,413.4088546,413.9090575,85.03401361,1574372730,1574372732,2.266651154,146,145,-11,-11,1574372727,1574372730,,,MF,1,19,M,Undergrad,2019_Nov_21_1338,AdjustExp1,3.1.5,60.20758962,Experiment
110,Stimuli/Morph110.JPG,Stimuli/Morph110.png,Stimuli/BlurLevel5/BlurEditedMorph110,Stimuli/BlurLevel5/BlurEditedMorph110.png,Stimuli/BlurLevel5/NumberedMorphs/BlurEditedMorph110.png,Stimuli/BlurLevel5/OriginalBlur/BlurEditedMorph110.png,Stimuli/BlurMorphTrio/EditedMorph110.png,None,None,0,0,0,0,0,64,64,109,,,82,1,65,2,2.498477068,0.087248742,110,418.3779589,419.125768,418.3779589,419.125768,83.67346939,1574372735,1574372738,2.932751894,134,98,12,12,1574372732,1574372735,,,MF,1,19,M,Undergrad,2019_Nov_21_1338,AdjustExp1,3.1.5,60.20758962,Experiment
103,Stimuli/Morph103.JPG,Stimuli/Morph103.png,Stimuli/BlurLevel5/BlurEditedMorph103,Stimuli/BlurLevel5/BlurEditedMorph103.png,Stimuli/BlurLevel5/NumberedMorphs/BlurEditedMorph103.png,Stimuli/BlurLevel5/OriginalBlur/BlurEditedMorph103.png,Stimuli/BlurMorphTrio/EditedMorph103.png,None,None,0,0,0,0,0,65,65,102,,,27,1,66,186,-2.486304738,-0.261321158,103,423.9316334,424.4251164,423.9316334,424.4251164,100,1574372740,1574372742,2.199659109,24,103,0,0,1574372738,1574372740,,,MF,1,19,M,Undergrad,2019_Nov_21_1338,AdjustExp1,3.1.5,60.20758962,Experiment
21,Stimuli/Morph21.JPG,Stimuli/Morph21.png,Stimuli/BlurLevel5/BlurEditedMorph21,Stimuli/BlurLevel5/BlurEditedMorph21.png,Stimuli/BlurLevel5/NumberedMorphs/BlurEditedMorph21.png,Stimuli/BlurLevel5/OriginalBlur/BlurEditedMorph21.png,Stimuli/BlurMorphTrio/EditedMorph21.png,010049right.gif,Stimuli/normal_thumbnails/21right.gif,0,0,0,0,0,66,66,20,,,38,1,67,178,-2.498477068,0.087248742,21,428.4784031,428.9752539,428.4784031,428.9752539,90.47619048,1574372745,1574372748,3.450403929,68,14,7,7,1574372743,1574372745,,,MF,1,19,M,Undergrad,2019_Nov_21_1338,AdjustExp1,3.1.5,60.20758962,Experiment
55,Stimuli/Morph55.JPG,Stimuli/Morph55.png,Stimuli/BlurLevel5/BlurEditedMorph55,Stimuli/BlurLevel5/BlurEditedMorph55.png,Stimuli/BlurLevel5/NumberedMorphs/BlurEditedMorph55.png,Stimuli/BlurLevel5/OriginalBlur/BlurEditedMorph55.png,Stimuli/BlurMorphTrio/EditedMorph55.png,010151right.gif,Stimuli/normal_thumbnails/55right.gif,0,0,0,0,0,67,67,54,,,82,1,68,156,-2.283863644,1.016841608,55,434.1747751,434.6754654,434.1747751,434.6754654,90.47619048,1574372750,1574372753,2.733726025,41,48,7,7,1574372748,1574372750,,,MF,1,19,M,Undergrad,2019_Nov_21_1338,AdjustExp1,3.1.5,60.20758962,Experiment
63,Stimuli/Morph63.JPG,Stimuli/Morph63.png,Stimuli/BlurLevel5/BlurEditedMorph63,Stimuli/BlurLevel5/BlurEditedMorph63.png,Stimuli/BlurLevel5/NumberedMorphs/BlurEditedMorph63.png,Stimuli/BlurLevel5/OriginalBlur/BlurEditedMorph63.png,Stimuli/BlurMorphTrio/EditedMorph63.png,020206right.gif,Stimuli/normal_thumbnails/63right.gif,0,0,0,0,0,68,68,62,,,49,1,69,251,-0.813920386,-2.363796439,63,439.5300855,440.0251882,439.5300855,440.0251882,85.03401361,1574372756,1574372759,3.782634974,95,52,11,11,1574372753,1574372756,,,MF,1,19,M,Undergrad,2019_Nov_21_1338,AdjustExp1,3.1.5,60.20758962,Experiment
144,Stimuli/Morph144.JPG,Stimuli/Morph144.png,Stimuli/BlurLevel5/BlurEditedMorph144,Stimuli/BlurLevel5/BlurEditedMorph144.png,Stimuli/BlurLevel5/NumberedMorphs/BlurEditedMorph144.png,Stimuli/BlurLevel5/OriginalBlur/BlurEditedMorph144.png,Stimuli/BlurMorphTrio/EditedMorph144.png,None,None,0,0,0,0,0,69,69,143,,,47,1,70,260,-0.434120444,-2.462019383,144,446.0755392,446.5750975,446.0755392,446.5750975,91.83673469,1574372762,1574372764,1.283001184,106,3,141,-6,1574372760,1574372762,,,MF,1,19,M,Undergrad,2019_Nov_21_1338,AdjustExp1,3.1.5,60.20758962,Experiment
143,Stimuli/Morph143.JPG,Stimuli/Morph143.png,Stimuli/BlurLevel5/BlurEditedMorph143,Stimuli/BlurLevel5/BlurEditedMorph143.png,Stimuli/BlurLevel5/NumberedMorphs/BlurEditedMorph143.png,Stimuli/BlurLevel5/OriginalBlur/BlurEditedMorph143.png,Stimuli/BlurMorphTrio/EditedMorph143.png,None,None,0,0,0,0,0,70,70,142,,,56,1,71,192,-2.445369002,-0.519779227,143,450.1792573,450.6751671,450.1792573,450.6751671,85.03401361,1574372766,1574372770,3.550316095,24,132,11,11,1574372764,1574372766,,,MF,1,19,M,Undergrad,2019_Nov_21_1338,AdjustExp1,3.1.5,60.20758962,Experiment
68,Stimuli/Morph68.JPG,Stimuli/Morph68.png,Stimuli/BlurLevel5/BlurEditedMorph68,Stimuli/BlurLevel5/BlurEditedMorph68.png,Stimuli/BlurLevel5/NumberedMorphs/BlurEditedMorph68.png,Stimuli/BlurLevel5/OriginalBlur/BlurEditedMorph68.png,Stimuli/BlurMorphTrio/EditedMorph68.png,020218right.gif,Stimuli/normal_thumbnails/68right.gif,0,0,0,0,0,71,71,67,,,96,1,72,10,2.462019383,0.434120444,68,457.0503145,457.5409822,457.0503145,457.5409822,64.62585034,1574372773,1574372774,1.116767883,42,42,26,26,1574372770,1574372773,,,MF,1,19,M,Undergrad,2019_Nov_21_1338,AdjustExp1,3.1.5,60.20758962,Experiment
4,Stimuli/Morph4.JPG,Stimuli/Morph4.png,Stimuli/BlurLevel5/BlurEditedMorph4,Stimuli/BlurLevel5/BlurEditedMorph4.png,Stimuli/BlurLevel5/NumberedMorphs/BlurEditedMorph4.png,Stimuli/BlurLevel5/OriginalBlur/BlurEditedMorph4.png,Stimuli/BlurMorphTrio/EditedMorph4.png,010010right.gif,Stimuli/normal_thumbnails/4right.gif,0,0,0,0,0,72,72,3,,,31,1,73,154,-2.246985116,1.095927867,4,460.8956167,461.3913622,460.8956167,461.3913622,100,1574372777,1574372778,1.333225012,107,4,0,0,1574372775,1574372777,,,MF,1,19,M,Undergrad,2019_Nov_21_1338,AdjustExp1,3.1.5,60.20758962,Experiment
97,Stimuli/Morph97.JPG,Stimuli/Morph97.png,Stimuli/BlurLevel5/BlurEditedMorph97,Stimuli/BlurLevel5/BlurEditedMorph97.png,Stimuli/BlurLevel5/NumberedMorphs/BlurEditedMorph97.png,Stimuli/BlurLevel5/OriginalBlur/BlurEditedMorph97.png,Stimuli/BlurMorphTrio/EditedMorph97.png,020294right.gif,Stimuli/normal_thumbnails/97right.gif,0,0,0,0,0,73,73,96,,,93,1,74,323,1.996588775,-1.504537558,97,465.0250936,465.5249271,465.0250936,465.5249271,64.62585034,1574372781,1574372783,1.500185966,128,123,-26,-26,1574372779,1574372781,,,MF,1,19,M,Undergrad,2019_Nov_21_1338,AdjustExp1,3.1.5,60.20758962,Experiment
118,Stimuli/Morph118.JPG,Stimuli/Morph118.png,Stimuli/BlurLevel5/BlurEditedMorph118,Stimuli/BlurLevel5/BlurEditedMorph118.png,Stimuli/BlurLevel5/NumberedMorphs/BlurEditedMorph118.png,Stimuli/BlurLevel5/OriginalBlur/BlurEditedMorph118.png,Stimuli/BlurMorphTrio/EditedMorph118.png,None,None,0,0,0,0,0,74,74,117,,,21,1,75,100,-0.434120444,2.462019383,118,468.8420916,469.3418384,468.8420916,469.3418384,85.03401361,1574372785,1574372787,2.316550016,146,107,11,11,1574372783,1574372785,,,MF,1,19,M,Undergrad,2019_Nov_21_1338,AdjustExp1,3.1.5,60.20758962,Experiment
61,Stimuli/Morph61.JPG,Stimuli/Morph61.png,Stimuli/BlurLevel5/BlurEditedMorph61,Stimuli/BlurLevel5/BlurEditedMorph61.png,Stimuli/BlurLevel5/NumberedMorphs/BlurEditedMorph61.png,Stimuli/BlurLevel5/OriginalBlur/BlurEditedMorph61.png,Stimuli/BlurMorphTrio/EditedMorph61.png,020201right.gif,Stimuli/normal_thumbnails/61right.gif,0,0,0,0,0,75,75,60,,,95,1,76,310,1.606969024,-1.915111108,61,474.1409687,474.6409775,474.1409687,474.6409775,82.31292517,1574372790,1574372792,2.065690756,12,48,13,13,1574372788,1574372790,,,MF,1,19,M,Undergrad,2019_Nov_21_1338,AdjustExp1,3.1.5,60.20758962,Experiment
138,Stimuli/Morph138.JPG,Stimuli/Morph138.png,Stimuli/BlurLevel5/BlurEditedMorph138,Stimuli/BlurLevel5/BlurEditedMorph138.png,Stimuli/BlurLevel5/NumberedMorphs/BlurEditedMorph138.png,Stimuli/BlurLevel5/OriginalBlur/BlurEditedMorph138.png,Stimuli/BlurMorphTrio/EditedMorph138.png,None,None,0,0,0,0,0,76,76,137,,,97,1,77,192,-2.445369002,-0.519779227,138,479.2599411,479.7579757,479.2599411,479.7579757,72.78911565,1574372795,1574372799,3.449221134,42,118,20,20,1574372793,1574372795,,,MF,1,19,M,Undergrad,2019_Nov_21_1338,AdjustExp1,3.1.5,60.20758962,Experiment
121,Stimuli/Morph121.JPG,Stimuli/Morph121.png,Stimuli/BlurLevel5/BlurEditedMorph121,Stimuli/BlurLevel5/BlurEditedMorph121.png,Stimuli/BlurLevel5/NumberedMorphs/BlurEditedMorph121.png,Stimuli/BlurLevel5/OriginalBlur/BlurEditedMorph121.png,Stimuli/BlurMorphTrio/EditedMorph121.png,None,None,0,0,0,0,0,77,77,120,,,12,1,78,211,-2.142918252,-1.287595187,121,485.1907338,485.6913351,485.1907338,485.6913351,75.51020408,1574372801,1574372804,2.366014004,117,103,18,18,1574372799,1574372801,,,MF,1,19,M,Undergrad,2019_Nov_21_1338,AdjustExp1,3.1.5,60.20758962,Experiment
73,Stimuli/Morph73.JPG,Stimuli/Morph73.png,Stimuli/BlurLevel5/BlurEditedMorph73,Stimuli/BlurLevel5/BlurEditedMorph73.png,Stimuli/BlurLevel5/NumberedMorphs/BlurEditedMorph73.png,Stimuli/BlurLevel5/OriginalBlur/BlurEditedMorph73.png,Stimuli/BlurMorphTrio/EditedMorph73.png,020230right.gif,Stimuli/normal_thumbnails/73right.gif,0,0,0,0,0,78,78,72,,,2,1,79,233,-1.504537558,-1.996588775,73,489.8581566,490.3579529,489.8581566,490.3579529,75.51020408,1574372806,1574372812,5.883946896,82,55,18,18,1574372804,1574372806,,,MF,1,19,M,Undergrad,2019_Nov_21_1338,AdjustExp1,3.1.5,60.20758962,Experiment
76,Stimuli/Morph76.JPG,Stimuli/Morph76.png,Stimuli/BlurLevel5/BlurEditedMorph76,Stimuli/BlurLevel5/BlurEditedMorph76.png,Stimuli/BlurLevel5/NumberedMorphs/BlurEditedMorph76.png,Stimuli/BlurLevel5/OriginalBlur/BlurEditedMorph76.png,Stimuli/BlurMorphTrio/EditedMorph76.png,020234right.gif,Stimuli/normal_thumbnails/76right.gif,0,0,0,0,0,79,79,75,,,10,1,80,67,0.976827821,2.301262134,76,498.1247235,498.6240662,498.1247235,498.6240662,97.27891156,1574372814,1574372817,2.483750105,143,74,2,2,1574372812,1574372814,,,MF,1,19,M,Undergrad,2019_Nov_21_1338,AdjustExp1,3.1.5,60.20758962,Experiment
30,Stimuli/Morph30.JPG,Stimuli/Morph30.png,Stimuli/BlurLevel5/BlurEditedMorph30,Stimuli/BlurLevel5/BlurEditedMorph30.png,Stimuli/BlurLevel5/NumberedMorphs/BlurEditedMorph30.png,Stimuli/BlurLevel5/OriginalBlur/BlurEditedMorph30.png,Stimuli/BlurMorphTrio/EditedMorph30.png,010076right.gif,Stimuli/normal_thumbnails/30right.gif,0,0,0,0,0,80,80,29,,,18,1,81,177,-2.496573837,0.130839891,30,502.9941287,503.4912602,502.9941287,503.4912602,89.11564626,1574372819,1574372822,2.732924223,18,22,8,8,1574372817,1574372819,,,MF,1,19,M,Undergrad,2019_Nov_21_1338,AdjustExp1,3.1.5,60.20758962,Experiment
77,Stimuli/Morph77.JPG,Stimuli/Morph77.png,Stimuli/BlurLevel5/BlurEditedMorph77,Stimuli/BlurLevel5/BlurEditedMorph77.png,Stimuli/BlurLevel5/NumberedMorphs/BlurEditedMorph77.png,Stimuli/BlurLevel5/OriginalBlur/BlurEditedMorph77.png,Stimuli/BlurMorphTrio/EditedMorph77.png,020235right.gif,Stimuli/normal_thumbnails/77right.gif,0,0,0,0,0,81,81,76,,,98,1,82,59,1.287595187,2.142918252,77,508.5740937,509.0733374,508.5740937,509.0733374,91.83673469,1574372825,1574372828,2.866765022,54,71,6,6,1574372822,1574372825,,,MF,1,19,M,Undergrad,2019_Nov_21_1338,AdjustExp1,3.1.5,60.20758962,Experiment
105,Stimuli/Morph105.JPG,Stimuli/Morph105.png,Stimuli/BlurLevel5/BlurEditedMorph105,Stimuli/BlurLevel5/BlurEditedMorph105.png,Stimuli/BlurLevel5/NumberedMorphs/BlurEditedMorph105.png,Stimuli/BlurLevel5/OriginalBlur/BlurEditedMorph105.png,Stimuli/BlurMorphTrio/EditedMorph105.png,None,None,0,0,0,0,0,82,82,104,,,67,1,83,149,-2.142918252,1.287595187,105,514.1403598,514.6405937,514.1403598,514.6405937,94.55782313,1574372830,1574372833,2.384131193,102,101,4,4,1574372828,1574372830,,,MF,1,19,M,Undergrad,2019_Nov_21_1338,AdjustExp1,3.1.5,60.20758962,Experiment
9,Stimuli/Morph9.JPG,Stimuli/Morph9.png,Stimuli/BlurLevel5/BlurEditedMorph9,Stimuli/BlurLevel5/BlurEditedMorph9.png,Stimuli/BlurLevel5/NumberedMorphs/BlurEditedMorph9.png,Stimuli/BlurLevel5/OriginalBlur/BlurEditedMorph9.png,Stimuli/BlurMorphTrio/EditedMorph9.png,010015right.gif,Stimuli/normal_thumbnails/9right.gif,0,0,0,0,0,83,83,8,,,18,1,84,232,-1.539153688,-1.970026884,9,518.7073777,519.2077029,518.7073777,519.2077029,90.47619048,1574372835,1574372837,2.183213949,75,2,7,7,1574372833,1574372835,,,MF,1,19,M,Undergrad,2019_Nov_21_1338,AdjustExp1,3.1.5,60.20758962,Experiment
14,Stimuli/Morph14.JPG,Stimuli/Morph14.png,Stimuli/BlurLevel5/BlurEditedMorph14,Stimuli/BlurLevel5/BlurEditedMorph14.png,Stimuli/BlurLevel5/NumberedMorphs/BlurEditedMorph14.png,Stimuli/BlurLevel5/OriginalBlur/BlurEditedMorph14.png,Stimuli/BlurMorphTrio/EditedMorph14.png,010030right.gif,Stimuli/normal_thumbnails/14right.gif,0,0,0,0,0,84,84,13,,,9,1,85,251,-0.813920386,-2.363796439,14,523.0437519,523.540549,523.0437519,523.540549,93.19727891,1574372839,1574372840,1.167192221,144,19,-5,-5,1574372837,1574372839,,,MF,1,19,M,Undergrad,2019_Nov_21_1338,AdjustExp1,3.1.5,60.20758962,Experiment
90,Stimuli/Morph90.JPG,Stimuli/Morph90.png,Stimuli/BlurLevel5/BlurEditedMorph90,Stimuli/BlurLevel5/BlurEditedMorph90.png,Stimuli/BlurLevel5/NumberedMorphs/BlurEditedMorph90.png,Stimuli/BlurLevel5/OriginalBlur/BlurEditedMorph90.png,Stimuli/BlurMorphTrio/EditedMorph90.png,020275right.gif,Stimuli/normal_thumbnails/90right.gif,1,0,1,0,0,0,0,89,,,23,2,1,68,0.936516484,2.317959636,90,539.6734827,540.1736415,539.6734827,540.1736415,94.55782313,1574372856,1574372857,0.933105946,62,94,-4,-4,1574372853,1574372856,space,12.15352132,MF,1,19,M,Undergrad,2019_Nov_21_1338,AdjustExp1,3.1.5,60.20758962,Experiment
70,Stimuli/Morph70.JPG,Stimuli/Morph70.png,Stimuli/BlurLevel5/BlurEditedMorph70,Stimuli/BlurLevel5/BlurEditedMorph70.png,Stimuli/BlurLevel5/NumberedMorphs/BlurEditedMorph70.png,Stimuli/BlurLevel5/OriginalBlur/BlurEditedMorph70.png,Stimuli/BlurMorphTrio/EditedMorph70.png,020221right.gif,Stimuli/normal_thumbnails/70right.gif,1,0,1,0,0,1,1,69,,,25,2,2,32,2.12012024,1.324798161,70,542.8403229,543.3405204,542.8403229,543.3405204,89.11564626,1574372859,1574372860,1.382491112,16,62,8,8,1574372857,1574372859,,,MF,1,19,M,Undergrad,2019_Nov_21_1338,AdjustExp1,3.1.5,60.20758962,Experiment
17,Stimuli/Morph17.JPG,Stimuli/Morph17.png,Stimuli/BlurLevel5/BlurEditedMorph17,Stimuli/BlurLevel5/BlurEditedMorph17.png,Stimuli/BlurLevel5/NumberedMorphs/BlurEditedMorph17.png,Stimuli/BlurLevel5/OriginalBlur/BlurEditedMorph17.png,Stimuli/BlurMorphTrio/EditedMorph17.png,010036right.gif,Stimuli/normal_thumbnails/17right.gif,1,0,1,0,0,2,2,16,,,66,2,3,269,-0.043631016,-2.499619238,17,546.4413258,546.9406967,546.4413258,546.9406967,98.63945578,1574372863,1574372865,2.315641165,85,18,-1,-1,1574372861,1574372863,,,MF,1,19,M,Undergrad,2019_Nov_21_1338,AdjustExp1,3.1.5,60.20758962,Experiment
113,Stimuli/Morph113.JPG,Stimuli/Morph113.png,Stimuli/BlurLevel5/BlurEditedMorph113,Stimuli/BlurLevel5/BlurEditedMorph113.png,Stimuli/BlurLevel5/NumberedMorphs/BlurEditedMorph113.png,Stimuli/BlurLevel5/OriginalBlur/BlurEditedMorph113.png,Stimuli/BlurMorphTrio/EditedMorph113.png,None,None,1,0,1,0,0,3,3,112,,,98,2,4,11,2.454067959,0.477022488,113,551.1119825,551.6070215,551.1119825,551.6070215,75.51020408,1574372867,1574372869,2.099496841,72,95,18,18,1574372865,1574372867,,,MF,1,19,M,Undergrad,2019_Nov_21_1338,AdjustExp1,3.1.5,60.20758962,Experiment
57,Stimuli/Morph57.JPG,Stimuli/Morph57.png,Stimuli/BlurLevel5/BlurEditedMorph57,Stimuli/BlurLevel5/BlurEditedMorph57.png,Stimuli/BlurLevel5/NumberedMorphs/BlurEditedMorph57.png,Stimuli/BlurLevel5/OriginalBlur/BlurEditedMorph57.png,Stimuli/BlurMorphTrio/EditedMorph57.png,010158right.gif,Stimuli/normal_thumbnails/57right.gif,1,0,1,0,0,4,4,56,,,40,2,5,102,-0.519779227,2.445369002,57,555.5729655,556.0739892,555.5729655,556.0739892,95.91836735,1574372872,1574372875,3.216627836,70,54,3,3,1574372870,1574372872,,,MF,1,19,M,Undergrad,2019_Nov_21_1338,AdjustExp1,3.1.5,60.20758962,Experiment
75,Stimuli/Morph75.JPG,Stimuli/Morph75.png,Stimuli/BlurLevel5/BlurEditedMorph75,Stimuli/BlurLevel5/BlurEditedMorph75.png,Stimuli/BlurLevel5/NumberedMorphs/BlurEditedMorph75.png,Stimuli/BlurLevel5/OriginalBlur/BlurEditedMorph75.png,Stimuli/BlurMorphTrio/EditedMorph75.png,020233right.gif,Stimuli/normal_thumbnails/75right.gif,1,0,1,0,0,5,5,74,,,83,2,6,205,-2.265769468,-1.056545654,75,561.50654,562.0069583,561.50654,562.0069583,100,1574372878,1574372880,2.082937002,42,75,0,0,1574372875,1574372878,,,MF,1,19,M,Undergrad,2019_Nov_21_1338,AdjustExp1,3.1.5,60.20758962,Experiment
64,Stimuli/Morph64.JPG,Stimuli/Morph64.png,Stimuli/BlurLevel5/BlurEditedMorph64,Stimuli/BlurLevel5/BlurEditedMorph64.png,Stimuli/BlurLevel5/NumberedMorphs/BlurEditedMorph64.png,Stimuli/BlurLevel5/OriginalBlur/BlurEditedMorph64.png,Stimuli/BlurMorphTrio/EditedMorph64.png,020208right.gif,Stimuli/normal_thumbnails/64right.gif,1,0,1,0,0,6,6,63,,,47,2,7,123,-1.361597588,2.09667642,64,566.6307187,567.123579,566.6307187,567.123579,91.83673469,1574372883,1574372885,2.248881102,86,58,6,6,1574372880,1574372883,,,MF,1,19,M,Undergrad,2019_Nov_21_1338,AdjustExp1,3.1.5,60.20758962,Experiment
47,Stimuli/Morph47.JPG,Stimuli/Morph47.png,Stimuli/BlurLevel5/BlurEditedMorph47,Stimuli/BlurLevel5/BlurEditedMorph47.png,Stimuli/BlurLevel5/NumberedMorphs/BlurEditedMorph47.png,Stimuli/BlurLevel5/OriginalBlur/BlurEditedMorph47.png,Stimuli/BlurMorphTrio/EditedMorph47.png,010130right.gif,Stimuli/normal_thumbnails/47right.gif,1,0,1,0,0,7,7,46,,,38,2,8,165,-2.414814566,0.647047613,47,571.389513,571.8896751,571.389513,571.8896751,94.55782313,1574372888,1574372891,3.800026178,137,51,-4,-4,1574372885,1574372888,,,MF,1,19,M,Undergrad,2019_Nov_21_1338,AdjustExp1,3.1.5,60.20758962,Experiment
52,Stimuli/Morph52.JPG,Stimuli/Morph52.png,Stimuli/BlurLevel5/BlurEditedMorph52,Stimuli/BlurLevel5/BlurEditedMorph52.png,Stimuli/BlurLevel5/NumberedMorphs/BlurEditedMorph52.png,Stimuli/BlurLevel5/OriginalBlur/BlurEditedMorph52.png,Stimuli/BlurMorphTrio/EditedMorph52.png,010148right.gif,Stimuli/normal_thumbnails/52right.gif,1,0,1,0,0,8,8,51,,,30,2,9,97,-0.304673359,2.481365379,52,577.8743588,578.3736637,577.8743588,578.3736637,93.19727891,1574372894,1574372897,2.567088842,115,47,5,5,1574372892,1574372894,,,MF,1,19,M,Undergrad,2019_Nov_21_1338,AdjustExp1,3.1.5,60.20758962,Experiment
118,Stimuli/Morph118.JPG,Stimuli/Morph118.png,Stimuli/BlurLevel5/BlurEditedMorph118,Stimuli/BlurLevel5/BlurEditedMorph118.png,Stimuli/BlurLevel5/NumberedMorphs/BlurEditedMorph118.png,Stimuli/BlurLevel5/OriginalBlur/BlurEditedMorph118.png,Stimuli/BlurMorphTrio/EditedMorph118.png,None,None,1,0,1,0,0,9,9,117,,,17,2,10,319,1.886773951,-1.640147572,118,583.3097884,583.806694,583.3097884,583.806694,63.26530612,1574372899,1574372903,3.833264112,28,91,27,27,1574372897,1574372899,,,MF,1,19,M,Undergrad,2019_Nov_21_1338,AdjustExp1,3.1.5,60.20758962,Experiment
40,Stimuli/Morph40.JPG,Stimuli/Morph40.png,Stimuli/BlurLevel5/BlurEditedMorph40,Stimuli/BlurLevel5/BlurEditedMorph40.png,Stimuli/BlurLevel5/NumberedMorphs/BlurEditedMorph40.png,Stimuli/BlurLevel5/OriginalBlur/BlurEditedMorph40.png,Stimuli/BlurMorphTrio/EditedMorph40.png,010110right.gif,Stimuli/normal_thumbnails/40right.gif,1,0,1,0,0,10,10,39,,,56,2,11,139,-1.886773951,1.640147572,40,589.9634676,590.4565001,589.9634676,590.4565001,95.91836735,1574372906,1574372909,2.465785027,55,43,-3,-3,1574372904,1574372906,,,MF,1,19,M,Undergrad,2019_Nov_21_1338,AdjustExp1,3.1.5,60.20758962,Experiment
38,Stimuli/Morph38.JPG,Stimuli/Morph38.png,Stimuli/BlurLevel5/BlurEditedMorph38,Stimuli/BlurLevel5/BlurEditedMorph38.png,Stimuli/BlurLevel5/NumberedMorphs/BlurEditedMorph38.png,Stimuli/BlurLevel5/OriginalBlur/BlurEditedMorph38.png,Stimuli/BlurMorphTrio/EditedMorph38.png,010108right.gif,Stimuli/normal_thumbnails/38right.gif,1,0,1,0,0,11,11,37,,,39,2,12,82,0.347932752,2.475670172,38,595.1276886,595.6233977,595.1276886,595.6233977,98.63945578,1574372911,1574372914,2.449960947,64,37,1,1,1574372909,1574372911,,,MF,1,19,M,Undergrad,2019_Nov_21_1338,AdjustExp1,3.1.5,60.20758962,Experiment
21,Stimuli/Morph21.JPG,Stimuli/Morph21.png,Stimuli/BlurLevel5/BlurEditedMorph21,Stimuli/BlurLevel5/BlurEditedMorph21.png,Stimuli/BlurLevel5/NumberedMorphs/BlurEditedMorph21.png,Stimuli/BlurLevel5/OriginalBlur/BlurEditedMorph21.png,Stimuli/BlurMorphTrio/EditedMorph21.png,010049right.gif,Stimuli/normal_thumbnails/21right.gif,1,0,1,0,0,12,12,20,,,97,2,13,144,-2.022542486,1.469463131,21,600.1951043,600.6895823,600.1951043,600.6895823,95.91836735,1574372916,1574372920,3.966491938,52,24,-3,-3,1574372914,1574372916,,,MF,1,19,M,Undergrad,2019_Nov_21_1338,AdjustExp1,3.1.5,60.20758962,Experiment
60,Stimuli/Morph60.JPG,Stimuli/Morph60.png,Stimuli/BlurLevel5/BlurEditedMorph60,Stimuli/BlurLevel5/BlurEditedMorph60.png,Stimuli/BlurLevel5/NumberedMorphs/BlurEditedMorph60.png,Stimuli/BlurLevel5/OriginalBlur/BlurEditedMorph60.png,Stimuli/BlurMorphTrio/EditedMorph60.png,020200right.gif,Stimuli/normal_thumbnails/60right.gif,1,0,1,0,0,13,13,59,,,10,2,14,130,-1.606969024,1.915111108,60,606.4634177,606.9564859,606.4634177,606.9564859,91.83673469,1574372923,1574372924,1.76602602,31,54,6,6,1574372921,1574372923,,,MF,1,19,M,Undergrad,2019_Nov_21_1338,AdjustExp1,3.1.5,60.20758962,Experiment
135,Stimuli/Morph135.JPG,Stimuli/Morph135.png,Stimuli/BlurLevel5/BlurEditedMorph135,Stimuli/BlurLevel5/BlurEditedMorph135.png,Stimuli/BlurLevel5/NumberedMorphs/BlurEditedMorph135.png,Stimuli/BlurLevel5/OriginalBlur/BlurEditedMorph135.png,Stimuli/BlurMorphTrio/EditedMorph135.png,None,None,1,0,1,0,0,14,14,134,,,98,2,15,348,2.445369002,-0.519779227,135,610.8609111,611.3564481,610.8609111,611.3564481,82.31292517,1574372927,1574372931,4.150308132,131,122,13,13,1574372925,1574372927,,,MF,1,19,M,Undergrad,2019_Nov_21_1338,AdjustExp1,3.1.5,60.20758962,Experiment
14,Stimuli/Morph14.JPG,Stimuli/Morph14.png,Stimuli/BlurLevel5/BlurEditedMorph14,Stimuli/BlurLevel5/BlurEditedMorph14.png,Stimuli/BlurLevel5/NumberedMorphs/BlurEditedMorph14.png,Stimuli/BlurLevel5/OriginalBlur/BlurEditedMorph14.png,Stimuli/BlurMorphTrio/EditedMorph14.png,010030right.gif,Stimuli/normal_thumbnails/14right.gif,1,0,1,0,0,15,15,13,,,56,2,16,287,0.730929262,-2.39076189,14,617.4130315,617.9063708,617.4130315,617.9063708,90.47619048,1574372934,1574372936,2.699855089,82,21,-7,-7,1574372931,1574372934,,,MF,1,19,M,Undergrad,2019_Nov_21_1338,AdjustExp1,3.1.5,60.20758962,Experiment
112,Stimuli/Morph112.JPG,Stimuli/Morph112.png,Stimuli/BlurLevel5/BlurEditedMorph112,Stimuli/BlurLevel5/BlurEditedMorph112.png,Stimuli/BlurLevel5/NumberedMorphs/BlurEditedMorph112.png,Stimuli/BlurLevel5/OriginalBlur/BlurEditedMorph112.png,Stimuli/BlurMorphTrio/EditedMorph112.png,None,None,1,0,1,0,0,16,16,111,,,54,2,17,12,2.445369002,0.519779227,112,622.628855,623.1229356,622.628855,623.1229356,94.55782313,1574372939,1574372940,1.700479984,134,108,4,4,1574372937,1574372939,,,MF,1,19,M,Undergrad,2019_Nov_21_1338,AdjustExp1,3.1.5,60.20758962,Experiment
119,Stimuli/Morph119.JPG,Stimuli/Morph119.png,Stimuli/BlurLevel5/BlurEditedMorph119,Stimuli/BlurLevel5/BlurEditedMorph119.png,Stimuli/BlurLevel5/NumberedMorphs/BlurEditedMorph119.png,Stimuli/BlurLevel5/OriginalBlur/BlurEditedMorph119.png,Stimuli/BlurMorphTrio/EditedMorph119.png,None,None,1,0,1,0,0,17,17,118,,,22,2,18,259,-0.477022488,-2.454067959,119,626.9070354,627.4063707,626.9070354,627.4063707,85.03401361,1574372943,1574372945,2.417335033,77,130,-11,-11,1574372941,1574372943,,,MF,1,19,M,Undergrad,2019_Nov_21_1338,AdjustExp1,3.1.5,60.20758962,Experiment
36,Stimuli/Morph36.JPG,Stimuli/Morph36.png,Stimuli/BlurLevel5/BlurEditedMorph36,Stimuli/BlurLevel5/BlurEditedMorph36.png,Stimuli/BlurLevel5/NumberedMorphs/BlurEditedMorph36.png,Stimuli/BlurLevel5/OriginalBlur/BlurEditedMorph36.png,Stimuli/BlurMorphTrio/EditedMorph36.png,010095right.gif,Stimuli/normal_thumbnails/36right.gif,1,0,1,0,0,18,18,35,,,24,2,19,259,-0.477022488,-2.454067959,36,631.7729393,632.2728895,631.7729393,632.2728895,100,1574372948,1574372950,1.933442593,17,36,0,0,1574372946,1574372948,,,MF,1,19,M,Undergrad,2019_Nov_21_1338,AdjustExp1,3.1.5,60.20758962,Experiment
137,Stimuli/Morph137.JPG,Stimuli/Morph137.png,Stimuli/BlurLevel5/BlurEditedMorph137,Stimuli/BlurLevel5/BlurEditedMorph137.png,Stimuli/BlurLevel5/NumberedMorphs/BlurEditedMorph137.png,Stimuli/BlurLevel5/OriginalBlur/BlurEditedMorph137.png,Stimuli/BlurMorphTrio/EditedMorph137.png,None,None,1,0,1,0,0,19,19,136,,,45,2,20,63,1.134976249,2.22751631,137,636.1905276,636.6892338,636.1905276,636.6892338,85.03401361,1574372952,1574372954,1.482736111,81,126,11,11,1574372950,1574372952,,,MF,1,19,M,Undergrad,2019_Nov_21_1338,AdjustExp1,3.1.5,60.20758962,Experiment
29,Stimuli/Morph29.JPG,Stimuli/Morph29.png,Stimuli/BlurLevel5/BlurEditedMorph29,Stimuli/BlurLevel5/BlurEditedMorph29.png,Stimuli/BlurLevel5/NumberedMorphs/BlurEditedMorph29.png,Stimuli/BlurLevel5/OriginalBlur/BlurEditedMorph29.png,Stimuli/BlurMorphTrio/EditedMorph29.png,010074right.gif,Stimuli/normal_thumbnails/29right.gif,1,0,1,0,0,20,20,28,,,26,2,21,134,-1.736645926,1.798349501,29,640.1782324,640.6723707,640.1782324,640.6723707,89.11564626,1574372956,1574372959,3.099655151,54,37,-8,-8,1574372954,1574372956,,,MF,1,19,M,Undergrad,2019_Nov_21_1338,AdjustExp1,3.1.5,60.20758962,Experiment
49,Stimuli/Morph49.JPG,Stimuli/Morph49.png,Stimuli/BlurLevel5/BlurEditedMorph49,Stimuli/BlurLevel5/BlurEditedMorph49.png,Stimuli/BlurLevel5/NumberedMorphs/BlurEditedMorph49.png,Stimuli/BlurLevel5/OriginalBlur/BlurEditedMorph49.png,Stimuli/BlurMorphTrio/EditedMorph49.png,010135right.gif,Stimuli/normal_thumbnails/49right.gif,1,0,1,0,0,21,21,48,,,63,2,22,193,-2.435925162,-0.562377636,49,645.7612167,646.2557495,645.7612167,646.2557495,91.83673469,1574372962,1574372963,1.467042923,14,55,-6,-6,1574372960,1574372962,,,MF,1,19,M,Undergrad,2019_Nov_21_1338,AdjustExp1,3.1.5,60.20758962,Experiment
104,Stimuli/Morph104.JPG,Stimuli/Morph104.png,Stimuli/BlurLevel5/BlurEditedMorph104,Stimuli/BlurLevel5/BlurEditedMorph104.png,Stimuli/BlurLevel5/NumberedMorphs/BlurEditedMorph104.png,Stimuli/BlurLevel5/OriginalBlur/BlurEditedMorph104.png,Stimuli/BlurMorphTrio/EditedMorph104.png,None,None,1,0,1,0,0,22,22,103,,,95,2,23,57,1.361597588,2.09667642,104,650.2221656,650.7225427,650.2221656,650.7225427,95.91836735,1574372966,1574372969,2.348735094,69,107,-3,-3,1574372964,1574372966,,,MF,1,19,M,Undergrad,2019_Nov_21_1338,AdjustExp1,3.1.5,60.20758962,Experiment
139,Stimuli/Morph139.JPG,Stimuli/Morph139.png,Stimuli/BlurLevel5/BlurEditedMorph139,Stimuli/BlurLevel5/BlurEditedMorph139.png,Stimuli/BlurLevel5/NumberedMorphs/BlurEditedMorph139.png,Stimuli/BlurLevel5/OriginalBlur/BlurEditedMorph139.png,Stimuli/BlurMorphTrio/EditedMorph139.png,None,None,1,0,1,0,0,23,23,138,,,37,2,24,104,-0.604804739,2.425739316,139,655.2223437,655.7265712,655.2223437,655.7265712,59.18367347,1574372971,1574372975,3.950030804,129,109,30,30,1574372969,1574372971,,,MF,1,19,M,Undergrad,2019_Nov_21_1338,AdjustExp1,3.1.5,60.20758962,Experiment
48,Stimuli/Morph48.JPG,Stimuli/Morph48.png,Stimuli/BlurLevel5/BlurEditedMorph48,Stimuli/BlurLevel5/BlurEditedMorph48.png,Stimuli/BlurLevel5/NumberedMorphs/BlurEditedMorph48.png,Stimuli/BlurLevel5/OriginalBlur/BlurEditedMorph48.png,Stimuli/BlurMorphTrio/EditedMorph48.png,010131right.gif,Stimuli/normal_thumbnails/48right.gif,1,0,1,0,0,24,24,47,,,52,2,25,308,1.539153688,-1.970026884,48,661.4549688,661.9556129,661.4549688,661.9556129,97.27891156,1574372978,1574372982,4.766952991,93,50,-2,-2,1574372976,1574372978,,,MF,1,19,M,Undergrad,2019_Nov_21_1338,AdjustExp1,3.1.5,60.20758962,Experiment
16,Stimuli/Morph16.JPG,Stimuli/Morph16.png,Stimuli/BlurLevel5/BlurEditedMorph16,Stimuli/BlurLevel5/BlurEditedMorph16.png,Stimuli/BlurLevel5/NumberedMorphs/BlurEditedMorph16.png,Stimuli/BlurLevel5/OriginalBlur/BlurEditedMorph16.png,Stimuli/BlurMorphTrio/EditedMorph16.png,010034right.gif,Stimuli/normal_thumbnails/16right.gif,1,0,1,0,0,25,25,15,,,1,2,26,264,-0.261321158,-2.486304738,16,668.1606303,668.6557859,668.1606303,668.6557859,91.83673469,1574372984,1574372988,3.216794729,114,10,6,6,1574372983,1574372984,,,MF,1,19,M,Undergrad,2019_Nov_21_1338,AdjustExp1,3.1.5,60.20758962,Experiment
63,Stimuli/Morph63.JPG,Stimuli/Morph63.png,Stimuli/BlurLevel5/BlurEditedMorph63,Stimuli/BlurLevel5/BlurEditedMorph63.png,Stimuli/BlurLevel5/NumberedMorphs/BlurEditedMorph63.png,Stimuli/BlurLevel5/OriginalBlur/BlurEditedMorph63.png,Stimuli/BlurMorphTrio/EditedMorph63.png,020206right.gif,Stimuli/normal_thumbnails/63right.gif,1,0,1,0,0,26,26,62,,,97,2,27,78,0.519779227,2.445369002,63,673.7579329,674.2550352,673.7579329,674.2550352,89.11564626,1574372990,1574372992,2.332823038,48,55,8,8,1574372988,1574372990,,,MF,1,19,M,Undergrad,2019_Nov_21_1338,AdjustExp1,3.1.5,60.20758962,Experiment
62,Stimuli/Morph62.JPG,Stimuli/Morph62.png,Stimuli/BlurLevel5/BlurEditedMorph62,Stimuli/BlurLevel5/BlurEditedMorph62.png,Stimuli/BlurLevel5/NumberedMorphs/BlurEditedMorph62.png,Stimuli/BlurLevel5/OriginalBlur/BlurEditedMorph62.png,Stimuli/BlurMorphTrio/EditedMorph62.png,020205right.gif,Stimuli/normal_thumbnails/62right.gif,1,0,1,0,0,27,27,61,,,57,2,28,63,1.134976249,2.22751631,62,678.7574048,679.2556381,678.7574048,679.2556381,76.8707483,1574372995,1574372997,1.949841976,14,45,17,17,1574372993,1574372995,,,MF,1,19,M,Undergrad,2019_Nov_21_1338,AdjustExp1,3.1.5,60.20758962,Experiment
3,Stimuli/Morph3.JPG,Stimuli/Morph3.png,Stimuli/BlurLevel5/BlurEditedMorph3,Stimuli/BlurLevel5/BlurEditedMorph3.png,Stimuli/BlurLevel5/NumberedMorphs/BlurEditedMorph3.png,Stimuli/BlurLevel5/OriginalBlur/BlurEditedMorph3.png,Stimuli/BlurMorphTrio/EditedMorph3.png,010009right.gif,Stimuli/normal_thumbnails/3right.gif,1,0,1,0,0,28,28,2,,,78,2,29,185,-2.490486745,-0.217889357,3,683.1715295,683.6719714,683.1715295,683.6719714,87.75510204,1574372999,1574373002,2.38342905,36,141,-138,9,1574372997,1574372999,,,MF,1,19,M,Undergrad,2019_Nov_21_1338,AdjustExp1,3.1.5,60.20758962,Experiment
32,Stimuli/Morph32.JPG,Stimuli/Morph32.png,Stimuli/BlurLevel5/BlurEditedMorph32,Stimuli/BlurLevel5/BlurEditedMorph32.png,Stimuli/BlurLevel5/NumberedMorphs/BlurEditedMorph32.png,Stimuli/BlurLevel5/OriginalBlur/BlurEditedMorph32.png,Stimuli/BlurMorphTrio/EditedMorph32.png,010080right.gif,Stimuli/normal_thumbnails/32right.gif,1,0,1,0,0,29,29,31,,,64,2,30,131,-1.640147572,1.886773951,32,688.1716373,688.6716119,688.1716373,688.6716119,97.27891156,1574373004,1574373006,1.899818897,120,30,2,2,1574373002,1574373004,,,MF,1,19,M,Undergrad,2019_Nov_21_1338,AdjustExp1,3.1.5,60.20758962,Experiment
72,Stimuli/Morph72.JPG,Stimuli/Morph72.png,Stimuli/BlurLevel5/BlurEditedMorph72,Stimuli/BlurLevel5/BlurEditedMorph72.png,Stimuli/BlurLevel5/NumberedMorphs/BlurEditedMorph72.png,Stimuli/BlurLevel5/OriginalBlur/BlurEditedMorph72.png,Stimuli/BlurMorphTrio/EditedMorph72.png,020227right.gif,Stimuli/normal_thumbnails/72right.gif,1,0,1,0,0,30,30,71,,,14,2,31,34,2.072593931,1.397982259,72,692.8734584,693.3715846,692.8734584,693.3715846,94.55782313,1574373009,1574373010,1.316839218,72,68,4,4,1574373007,1574373009,,,MF,1,19,M,Undergrad,2019_Nov_21_1338,AdjustExp1,3.1.5,60.20758962,Experiment
19,Stimuli/Morph19.JPG,Stimuli/Morph19.png,Stimuli/BlurLevel5/BlurEditedMorph19,Stimuli/BlurLevel5/BlurEditedMorph19.png,Stimuli/BlurLevel5/NumberedMorphs/BlurEditedMorph19.png,Stimuli/BlurLevel5/OriginalBlur/BlurEditedMorph19.png,Stimuli/BlurMorphTrio/EditedMorph19.png,010045right.gif,Stimuli/normal_thumbnails/19right.gif,1,0,1,0,0,31,31,18,,,99,2,32,188,-2.475670172,-0.347932752,19,696.5542068,697.0554543,696.5542068,697.0554543,90.47619048,1574373013,1574373014,1.56639266,118,26,-7,-7,1574373011,1574373013,,,MF,1,19,M,Undergrad,2019_Nov_21_1338,AdjustExp1,3.1.5,60.20758962,Experiment
142,Stimuli/Morph142.JPG,Stimuli/Morph142.png,Stimuli/BlurLevel5/BlurEditedMorph142,Stimuli/BlurLevel5/BlurEditedMorph142.png,Stimuli/BlurLevel5/NumberedMorphs/BlurEditedMorph142.png,Stimuli/BlurLevel5/OriginalBlur/BlurEditedMorph142.png,Stimuli/BlurMorphTrio/EditedMorph142.png,None,None,1,0,1,0,0,32,32,141,,,49,2,33,36,2.022542486,1.469463131,142,700.8546844,701.3554766,700.8546844,701.3554766,71.42857143,1574373017,1574373019,1.699168205,105,16,126,-21,1574373015,1574373017,,,MF,1,19,M,Undergrad,2019_Nov_21_1338,AdjustExp1,3.1.5,60.20758962,Experiment
131,Stimuli/Morph131.JPG,Stimuli/Morph131.png,Stimuli/BlurLevel5/BlurEditedMorph131,Stimuli/BlurLevel5/BlurEditedMorph131.png,Stimuli/BlurLevel5/NumberedMorphs/BlurEditedMorph131.png,Stimuli/BlurLevel5/OriginalBlur/BlurEditedMorph131.png,Stimuli/BlurMorphTrio/EditedMorph131.png,None,None,1,0,1,0,0,33,33,130,,,6,2,34,232,-1.539153688,-1.970026884,131,705.5245072,706.0210162,705.5245072,706.0210162,67.34693878,1574373022,1574373024,2.300713301,122,8,123,-24,1574373019,1574373022,,,MF,1,19,M,Undergrad,2019_Nov_21_1338,AdjustExp1,3.1.5,60.20758962,Experiment
114,Stimuli/Morph114.JPG,Stimuli/Morph114.png,Stimuli/BlurLevel5/BlurEditedMorph114,Stimuli/BlurLevel5/BlurEditedMorph114.png,Stimuli/BlurLevel5/NumberedMorphs/BlurEditedMorph114.png,Stimuli/BlurLevel5/OriginalBlur/BlurEditedMorph114.png,Stimuli/BlurMorphTrio/EditedMorph114.png,None,None,1,0,1,0,0,34,34,113,,,86,2,35,32,2.12012024,1.324798161,114,710.5210047,711.0214877,710.5210047,711.0214877,80.95238095,1574373027,1574373029,1.831624031,69,128,-14,-14,1574373024,1574373027,,,MF,1,19,M,Undergrad,2019_Nov_21_1338,AdjustExp1,3.1.5,60.20758962,Experiment
22,Stimuli/Morph22.JPG,Stimuli/Morph22.png,Stimuli/BlurLevel5/BlurEditedMorph22,Stimuli/BlurLevel5/BlurEditedMorph22.png,Stimuli/BlurLevel5/NumberedMorphs/BlurEditedMorph22.png,Stimuli/BlurLevel5/OriginalBlur/BlurEditedMorph22.png,Stimuli/BlurMorphTrio/EditedMorph22.png,010055right.gif,Stimuli/normal_thumbnails/22right.gif,1,0,1,0,0,35,35,21,,,37,2,36,205,-2.265769468,-1.056545654,22,715.1423969,715.6381018,715.1423969,715.6381018,95.91836735,1574373031,1574373034,2.333715916,122,19,3,3,1574373029,1574373031,,,MF,1,19,M,Undergrad,2019_Nov_21_1338,AdjustExp1,3.1.5,60.20758962,Experiment
74,Stimuli/Morph74.JPG,Stimuli/Morph74.png,Stimuli/BlurLevel5/BlurEditedMorph74,Stimuli/BlurLevel5/BlurEditedMorph74.png,Stimuli/BlurLevel5/NumberedMorphs/BlurEditedMorph74.png,Stimuli/BlurLevel5/OriginalBlur/BlurEditedMorph74.png,Stimuli/BlurMorphTrio/EditedMorph74.png,020232right.gif,Stimuli/normal_thumbnails/74right.gif,1,0,1,0,0,36,36,73,,,25,2,37,357,2.496573837,-0.130839891,74,719.8560908,720.604427,719.8560908,720.604427,93.19727891,1574373036,1574373039,3.116488934,66,69,5,5,1574373034,1574373036,,,MF,1,19,M,Undergrad,2019_Nov_21_1338,AdjustExp1,3.1.5,60.20758962,Experiment
59,Stimuli/Morph59.JPG,Stimuli/Morph59.png,Stimuli/BlurLevel5/BlurEditedMorph59,Stimuli/BlurLevel5/BlurEditedMorph59.png,Stimuli/BlurLevel5/NumberedMorphs/BlurEditedMorph59.png,Stimuli/BlurLevel5/OriginalBlur/BlurEditedMorph59.png,Stimuli/BlurMorphTrio/EditedMorph59.png,010160right.gif,Stimuli/normal_thumbnails/59right.gif,1,0,1,0,0,37,37,58,,,7,2,38,114,-1.016841608,2.283863644,59,725.5044844,726.0043403,725.5044844,726.0043403,89.11564626,1574373042,1574373043,1.816385984,29,67,-8,-8,1574373040,1574373042,,,MF,1,19,M,Undergrad,2019_Nov_21_1338,AdjustExp1,3.1.5,60.20758962,Experiment
140,Stimuli/Morph140.JPG,Stimuli/Morph140.png,Stimuli/BlurLevel5/BlurEditedMorph140,Stimuli/BlurLevel5/BlurEditedMorph140.png,Stimuli/BlurLevel5/NumberedMorphs/BlurEditedMorph140.png,Stimuli/BlurLevel5/OriginalBlur/BlurEditedMorph140.png,Stimuli/BlurMorphTrio/EditedMorph140.png,None,None,1,0,1,0,0,38,38,139,,,90,2,39,78,0.519779227,2.445369002,140,729.5921916,730.0878351,729.5921916,730.0878351,83.67346939,1574373046,1574373049,3.600632191,59,128,12,12,1574373044,1574373046,,,MF,1,19,M,Undergrad,2019_Nov_21_1338,AdjustExp1,3.1.5,60.20758962,Experiment
100,Stimuli/Morph100.JPG,Stimuli/Morph100.png,Stimuli/BlurLevel5/BlurEditedMorph100,Stimuli/BlurLevel5/BlurEditedMorph100.png,Stimuli/BlurLevel5/NumberedMorphs/BlurEditedMorph100.png,Stimuli/BlurLevel5/OriginalBlur/BlurEditedMorph100.png,Stimuli/BlurMorphTrio/EditedMorph100.png,020297right.gif,Stimuli/normal_thumbnails/100right.gif,1,0,1,0,0,39,39,99,,,75,2,40,122,-1.324798161,2.12012024,100,735.4066888,735.9043712,735.4066888,735.9043712,75.51020408,1574373052,1574373053,0.950474977,118,118,-18,-18,1574373050,1574373052,,,MF,1,19,M,Undergrad,2019_Nov_21_1338,AdjustExp1,3.1.5,60.20758962,Experiment
13,Stimuli/Morph13.JPG,Stimuli/Morph13.png,Stimuli/BlurLevel5/BlurEditedMorph13,Stimuli/BlurLevel5/BlurEditedMorph13.png,Stimuli/BlurLevel5/NumberedMorphs/BlurEditedMorph13.png,Stimuli/BlurLevel5/OriginalBlur/BlurEditedMorph13.png,Stimuli/BlurMorphTrio/EditedMorph13.png,010027right.gif,Stimuli/normal_thumbnails/13right.gif,1,0,1,0,0,40,40,12,,,48,2,41,60,1.25,2.165063509,13,738.9879547,739.487404,738.9879547,739.487404,95.91836735,1574373055,1574373063,7.466800213,80,16,-3,-3,1574373053,1574373055,,,MF,1,19,M,Undergrad,2019_Nov_21_1338,AdjustExp1,3.1.5,60.20758962,Experiment
8,Stimuli/Morph8.JPG,Stimuli/Morph8.png,Stimuli/BlurLevel5/BlurEditedMorph8,Stimuli/BlurLevel5/BlurEditedMorph8.png,Stimuli/BlurLevel5/NumberedMorphs/BlurEditedMorph8.png,Stimuli/BlurLevel5/OriginalBlur/BlurEditedMorph8.png,Stimuli/BlurMorphTrio/EditedMorph8.png,010014right.gif,Stimuli/normal_thumbnails/8right.gif,1,0,1,0,0,41,41,7,,,63,2,42,331,2.186549268,-1.212024051,8,749.0211556,749.5213876,749.0211556,749.5213876,74.14965986,1574373065,1574373068,3.165947914,53,27,-19,-19,1574373063,1574373065,,,MF,1,19,M,Undergrad,2019_Nov_21_1338,AdjustExp1,3.1.5,60.20758962,Experiment
39,Stimuli/Morph39.JPG,Stimuli/Morph39.png,Stimuli/BlurLevel5/BlurEditedMorph39,Stimuli/BlurLevel5/BlurEditedMorph39.png,Stimuli/BlurLevel5/NumberedMorphs/BlurEditedMorph39.png,Stimuli/BlurLevel5/OriginalBlur/BlurEditedMorph39.png,Stimuli/BlurMorphTrio/EditedMorph39.png,010109right.gif,Stimuli/normal_thumbnails/39right.gif,1,0,1,0,0,42,42,38,,,13,2,43,198,-2.377641291,-0.772542486,39,755.0945036,755.5873668,755.0945036,755.5873668,93.19727891,1574373071,1574373072,1.032288551,10,34,5,5,1574373069,1574373071,,,MF,1,19,M,Undergrad,2019_Nov_21_1338,AdjustExp1,3.1.5,60.20758962,Experiment
27,Stimuli/Morph27.JPG,Stimuli/Morph27.png,Stimuli/BlurLevel5/BlurEditedMorph27,Stimuli/BlurLevel5/BlurEditedMorph27.png,Stimuli/BlurLevel5/NumberedMorphs/BlurEditedMorph27.png,Stimuli/BlurLevel5/OriginalBlur/BlurEditedMorph27.png,Stimuli/BlurMorphTrio/EditedMorph27.png,010072right.gif,Stimuli/normal_thumbnails/27right.gif,1,0,1,0,0,43,43,26,,,51,2,44,164,-2.40315424,0.68909339,27,758.9870654,759.4871479,758.9870654,759.4871479,100,1574373075,1574373078,2.632134914,15,27,0,0,1574373073,1574373075,,,MF,1,19,M,Undergrad,2019_Nov_21_1338,AdjustExp1,3.1.5,60.20758962,Experiment
122,Stimuli/Morph122.JPG,Stimuli/Morph122.png,Stimuli/BlurLevel5/BlurEditedMorph122,Stimuli/BlurLevel5/BlurEditedMorph122.png,Stimuli/BlurLevel5/NumberedMorphs/BlurEditedMorph122.png,Stimuli/BlurLevel5/OriginalBlur/BlurEditedMorph122.png,Stimuli/BlurMorphTrio/EditedMorph122.png,None,None,1,0,1,0,0,44,44,121,,,81,2,45,229,-1.640147572,-1.886773951,122,763.8872659,764.3874102,763.8872659,764.3874102,90.47619048,1574373080,1574373082,2.266113043,118,115,7,7,1574373078,1574373080,,,MF,1,19,M,Undergrad,2019_Nov_21_1338,AdjustExp1,3.1.5,60.20758962,Experiment
95,Stimuli/Morph95.JPG,Stimuli/Morph95.png,Stimuli/BlurLevel5/BlurEditedMorph95,Stimuli/BlurLevel5/BlurEditedMorph95.png,Stimuli/BlurLevel5/NumberedMorphs/BlurEditedMorph95.png,Stimuli/BlurLevel5/OriginalBlur/BlurEditedMorph95.png,Stimuli/BlurMorphTrio/EditedMorph95.png,020287right.gif,Stimuli/normal_thumbnails/95right.gif,1,0,1,0,0,45,45,94,,,39,2,46,286,0.68909339,-2.40315424,95,768.8771034,769.371015,768.8771034,769.371015,91.83673469,1574373085,1574373087,1.733752728,39,101,-6,-6,1574373083,1574373085,,,MF,1,19,M,Undergrad,2019_Nov_21_1338,AdjustExp1,3.1.5,60.20758962,Experiment
144,Stimuli/Morph144.JPG,Stimuli/Morph144.png,Stimuli/BlurLevel5/BlurEditedMorph144,Stimuli/BlurLevel5/BlurEditedMorph144.png,Stimuli/BlurLevel5/NumberedMorphs/BlurEditedMorph144.png,Stimuli/BlurLevel5/OriginalBlur/BlurEditedMorph144.png,Stimuli/BlurMorphTrio/EditedMorph144.png,None,None,1,0,1,0,0,46,46,143,,,31,2,47,213,-2.09667642,-1.361597588,144,773.2208058,773.7203552,773.2208058,773.7203552,89.11564626,1574373089,1574373096,6.532910824,47,5,139,-8,1574373087,1574373089,,,MF,1,19,M,Undergrad,2019_Nov_21_1338,AdjustExp1,3.1.5,60.20758962,Experiment
93,Stimuli/Morph93.JPG,Stimuli/Morph93.png,Stimuli/BlurLevel5/BlurEditedMorph93,Stimuli/BlurLevel5/BlurEditedMorph93.png,Stimuli/BlurLevel5/NumberedMorphs/BlurEditedMorph93.png,Stimuli/BlurLevel5/OriginalBlur/BlurEditedMorph93.png,Stimuli/BlurMorphTrio/EditedMorph93.png,020280right.gif,Stimuli/normal_thumbnails/93right.gif,1,0,1,0,0,47,47,92,,,88,2,48,322,1.970026884,-1.539153688,93,782.1207443,782.6203161,782.1207443,782.6203161,86.39455782,1574373098,1574373102,3.350476027,38,103,-10,-10,1574373096,1574373098,,,MF,1,19,M,Undergrad,2019_Nov_21_1338,AdjustExp1,3.1.5,60.20758962,Experiment
26,Stimuli/Morph26.JPG,Stimuli/Morph26.png,Stimuli/BlurLevel5/BlurEditedMorph26,Stimuli/BlurLevel5/BlurEditedMorph26.png,Stimuli/BlurLevel5/NumberedMorphs/BlurEditedMorph26.png,Stimuli/BlurLevel5/OriginalBlur/BlurEditedMorph26.png,Stimuli/BlurMorphTrio/EditedMorph26.png,010070right.gif,Stimuli/normal_thumbnails/26right.gif,1,0,1,0,0,48,48,25,,,57,2,49,275,0.217889357,-2.490486745,26,787.8533506,788.3541642,787.8533506,788.3541642,94.55782313,1574373104,1574373118,14.19991398,75,30,-4,-4,1574373102,1574373104,,,MF,1,19,M,Undergrad,2019_Nov_21_1338,AdjustExp1,3.1.5,60.20758962,Experiment
94,Stimuli/Morph94.JPG,Stimuli/Morph94.png,Stimuli/BlurLevel5/BlurEditedMorph94,Stimuli/BlurLevel5/BlurEditedMorph94.png,Stimuli/BlurLevel5/NumberedMorphs/BlurEditedMorph94.png,Stimuli/BlurLevel5/OriginalBlur/BlurEditedMorph94.png,Stimuli/BlurMorphTrio/EditedMorph94.png,020286right.gif,Stimuli/normal_thumbnails/94right.gif,1,0,1,0,0,49,49,93,,,23,2,50,138,-1.857862064,1.672826516,94,804.5866747,805.0870926,804.5866747,805.0870926,90.47619048,1574373121,1574373122,1.015449047,111,101,-7,-7,1574373118,1574373121,,,MF,1,19,M,Undergrad,2019_Nov_21_1338,AdjustExp1,3.1.5,60.20758962,Experiment
121,Stimuli/Morph121.JPG,Stimuli/Morph121.png,Stimuli/BlurLevel5/BlurEditedMorph121,Stimuli/BlurLevel5/BlurEditedMorph121.png,Stimuli/BlurLevel5/NumberedMorphs/BlurEditedMorph121.png,Stimuli/BlurLevel5/OriginalBlur/BlurEditedMorph121.png,Stimuli/BlurMorphTrio/EditedMorph121.png,None,None,1,0,1,0,0,50,50,120,,,53,2,51,75,0.647047613,2.414814566,121,808.4527367,808.9533038,808.4527367,808.9533038,87.75510204,1574373125,1574373127,2.466907024,59,112,9,9,1574373122,1574373125,,,MF,1,19,M,Undergrad,2019_Nov_21_1338,AdjustExp1,3.1.5,60.20758962,Experiment
108,Stimuli/Morph108.JPG,Stimuli/Morph108.png,Stimuli/BlurLevel5/BlurEditedMorph108,Stimuli/BlurLevel5/BlurEditedMorph108.png,Stimuli/BlurLevel5/NumberedMorphs/BlurEditedMorph108.png,Stimuli/BlurLevel5/OriginalBlur/BlurEditedMorph108.png,Stimuli/BlurMorphTrio/EditedMorph108.png,None,None,1,0,1,0,0,51,51,107,,,21,2,52,295,1.056545654,-2.265769468,108,813.24016,813.7368682,813.24016,813.7368682,85.03401361,1574373129,1574373132,2.40053606,61,97,11,11,1574373127,1574373129,,,MF,1,19,M,Undergrad,2019_Nov_21_1338,AdjustExp1,3.1.5,60.20758962,Experiment
37,Stimuli/Morph37.JPG,Stimuli/Morph37.png,Stimuli/BlurLevel5/BlurEditedMorph37,Stimuli/BlurLevel5/BlurEditedMorph37.png,Stimuli/BlurLevel5/NumberedMorphs/BlurEditedMorph37.png,Stimuli/BlurLevel5/OriginalBlur/BlurEditedMorph37.png,Stimuli/BlurMorphTrio/EditedMorph37.png,010097right.gif,Stimuli/normal_thumbnails/37right.gif,1,0,1,0,0,52,52,36,,,19,2,53,27,2.22751631,1.134976249,37,818.5529451,819.0528467,818.5529451,819.0528467,98.63945578,1574373135,1574373136,1.715961933,122,38,-1,-1,1574373132,1574373135,,,MF,1,19,M,Undergrad,2019_Nov_21_1338,AdjustExp1,3.1.5,60.20758962,Experiment
11,Stimuli/Morph11.JPG,Stimuli/Morph11.png,Stimuli/BlurLevel5/BlurEditedMorph11,Stimuli/BlurLevel5/BlurEditedMorph11.png,Stimuli/BlurLevel5/NumberedMorphs/BlurEditedMorph11.png,Stimuli/BlurLevel5/OriginalBlur/BlurEditedMorph11.png,Stimuli/BlurMorphTrio/EditedMorph11.png,010024right.gif,Stimuli/normal_thumbnails/11right.gif,1,0,1,0,0,53,53,10,,,24,2,54,4,2.493910126,0.174391184,11,822.8565339,823.3536732,822.8565339,823.3536732,53.7414966,1574373139,1574373143,3.900047064,88,124,-113,34,1574373137,1574373139,,,MF,1,19,M,Undergrad,2019_Nov_21_1338,AdjustExp1,3.1.5,60.20758962,Experiment
69,Stimuli/Morph69.JPG,Stimuli/Morph69.png,Stimuli/BlurLevel5/BlurEditedMorph69,Stimuli/BlurLevel5/BlurEditedMorph69.png,Stimuli/BlurLevel5/NumberedMorphs/BlurEditedMorph69.png,Stimuli/BlurLevel5/OriginalBlur/BlurEditedMorph69.png,Stimuli/BlurMorphTrio/EditedMorph69.png,020220right.gif,Stimuli/normal_thumbnails/69right.gif,1,0,1,0,0,54,54,68,,,40,2,55,134,-1.736645926,1.798349501,69,829.4039294,829.903476,829.4039294,829.903476,75.51020408,1574373146,1574373148,2.849733114,12,51,18,18,1574373143,1574373146,,,MF,1,19,M,Undergrad,2019_Nov_21_1338,AdjustExp1,3.1.5,60.20758962,Experiment
58,Stimuli/Morph58.JPG,Stimuli/Morph58.png,Stimuli/BlurLevel5/BlurEditedMorph58,Stimuli/BlurLevel5/BlurEditedMorph58.png,Stimuli/BlurLevel5/NumberedMorphs/BlurEditedMorph58.png,Stimuli/BlurLevel5/OriginalBlur/BlurEditedMorph58.png,Stimuli/BlurMorphTrio/EditedMorph58.png,010159right.gif,Stimuli/normal_thumbnails/58right.gif,1,0,1,0,0,55,55,57,,,39,2,56,87,0.130839891,2.496573837,58,834.8024561,835.3033484,834.8024561,835.3033484,74.14965986,1574373151,1574373153,1.816795111,117,39,19,19,1574373149,1574373151,,,MF,1,19,M,Undergrad,2019_Nov_21_1338,AdjustExp1,3.1.5,60.20758962,Experiment
143,Stimuli/Morph143.JPG,Stimuli/Morph143.png,Stimuli/BlurLevel5/BlurEditedMorph143,Stimuli/BlurLevel5/BlurEditedMorph143.png,Stimuli/BlurLevel5/NumberedMorphs/BlurEditedMorph143.png,Stimuli/BlurLevel5/OriginalBlur/BlurEditedMorph143.png,Stimuli/BlurMorphTrio/EditedMorph143.png,None,None,1,0,1,0,0,56,56,142,,,100,2,57,216,-2.022542486,-1.469463131,143,838.9532918,839.4535079,838.9532918,839.4535079,93.19727891,1574373155,1574373158,2.900411844,84,1,142,-5,1574373153,1574373155,,,MF,1,19,M,Undergrad,2019_Nov_21_1338,AdjustExp1,3.1.5,60.20758962,Experiment
34,Stimuli/Morph34.JPG,Stimuli/Morph34.png,Stimuli/BlurLevel5/BlurEditedMorph34,Stimuli/BlurLevel5/BlurEditedMorph34.png,Stimuli/BlurLevel5/NumberedMorphs/BlurEditedMorph34.png,Stimuli/BlurLevel5/OriginalBlur/BlurEditedMorph34.png,Stimuli/BlurMorphTrio/EditedMorph34.png,010090right.gif,Stimuli/normal_thumbnails/34right.gif,1,0,1,0,0,57,57,33,,,33,2,58,342,2.377641291,-0.772542486,34,844.1366645,844.6364728,844.1366645,844.6364728,90.47619048,1574373160,1574373164,3.633858681,51,27,7,7,1574373158,1574373160,,,MF,1,19,M,Undergrad,2019_Nov_21_1338,AdjustExp1,3.1.5,60.20758962,Experiment
77,Stimuli/Morph77.JPG,Stimuli/Morph77.png,Stimuli/BlurLevel5/BlurEditedMorph77,Stimuli/BlurLevel5/BlurEditedMorph77.png,Stimuli/BlurLevel5/NumberedMorphs/BlurEditedMorph77.png,Stimuli/BlurLevel5/OriginalBlur/BlurEditedMorph77.png,Stimuli/BlurMorphTrio/EditedMorph77.png,020235right.gif,Stimuli/normal_thumbnails/77right.gif,1,0,1,0,0,58,58,76,,,65,2,59,117,-1.134976249,2.22751631,77,850.1188907,850.6198435,850.1188907,850.6198435,48.29931973,1574373166,1574373170,3.316599131,112,115,-38,-38,1574373164,1574373166,,,MF,1,19,M,Undergrad,2019_Nov_21_1338,AdjustExp1,3.1.5,60.20758962,Experiment
61,Stimuli/Morph61.JPG,Stimuli/Morph61.png,Stimuli/BlurLevel5/BlurEditedMorph61,Stimuli/BlurLevel5/BlurEditedMorph61.png,Stimuli/BlurLevel5/NumberedMorphs/BlurEditedMorph61.png,Stimuli/BlurLevel5/OriginalBlur/BlurEditedMorph61.png,Stimuli/BlurMorphTrio/EditedMorph61.png,020201right.gif,Stimuli/normal_thumbnails/61right.gif,1,0,1,0,0,59,59,60,,,80,2,60,98,-0.347932752,2.475670172,61,855.7223495,856.2197704,855.7223495,856.2197704,95.91836735,1574373172,1574373174,1.882980108,79,58,3,3,1574373170,1574373172,,,MF,1,19,M,Undergrad,2019_Nov_21_1338,AdjustExp1,3.1.5,60.20758962,Experiment
25,Stimuli/Morph25.JPG,Stimuli/Morph25.png,Stimuli/BlurLevel5/BlurEditedMorph25,Stimuli/BlurLevel5/BlurEditedMorph25.png,Stimuli/BlurLevel5/NumberedMorphs/BlurEditedMorph25.png,Stimuli/BlurLevel5/OriginalBlur/BlurEditedMorph25.png,Stimuli/BlurMorphTrio/EditedMorph25.png,010069right.gif,Stimuli/normal_thumbnails/25right.gif,1,0,1,0,0,60,60,24,,,64,2,61,99,-0.391086163,2.469220851,25,860.1201819,860.6199046,860.1201819,860.6199046,98.63945578,1574373176,1574373180,3.399019003,18,24,1,1,1574373174,1574373176,,,MF,1,19,M,Undergrad,2019_Nov_21_1338,AdjustExp1,3.1.5,60.20758962,Experiment
109,Stimuli/Morph109.JPG,Stimuli/Morph109.png,Stimuli/BlurLevel5/BlurEditedMorph109,Stimuli/BlurLevel5/BlurEditedMorph109.png,Stimuli/BlurLevel5/NumberedMorphs/BlurEditedMorph109.png,Stimuli/BlurLevel5/OriginalBlur/BlurEditedMorph109.png,Stimuli/BlurMorphTrio/EditedMorph109.png,None,None,1,0,1,0,0,61,61,108,,,61,2,62,95,-0.217889357,2.490486745,109,866.4201054,866.91915,866.4201054,866.91915,97.27891156,1574373183,1574373184,1.632855177,5,111,-2,-2,1574373180,1574373183,,,MF,1,19,M,Undergrad,2019_Nov_21_1338,AdjustExp1,3.1.5,60.20758962,Experiment
43,Stimuli/Morph43.JPG,Stimuli/Morph43.png,Stimuli/BlurLevel5/BlurEditedMorph43,Stimuli/BlurLevel5/BlurEditedMorph43.png,Stimuli/BlurLevel5/NumberedMorphs/BlurEditedMorph43.png,Stimuli/BlurLevel5/OriginalBlur/BlurEditedMorph43.png,Stimuli/BlurMorphTrio/EditedMorph43.png,010124right.gif,Stimuli/normal_thumbnails/43right.gif,1,0,1,0,0,62,62,42,,,74,2,63,336,2.283863644,-1.016841608,43,870.6859624,871.1863438,870.6859624,871.1863438,93.19727891,1574373187,1574373189,2.198887825,86,38,5,5,1574373185,1574373187,,,MF,1,19,M,Undergrad,2019_Nov_21_1338,AdjustExp1,3.1.5,60.20758962,Experiment
89,Stimuli/Morph89.JPG,Stimuli/Morph89.png,Stimuli/BlurLevel5/BlurEditedMorph89,Stimuli/BlurLevel5/BlurEditedMorph89.png,Stimuli/BlurLevel5/NumberedMorphs/BlurEditedMorph89.png,Stimuli/BlurLevel5/OriginalBlur/BlurEditedMorph89.png,Stimuli/BlurMorphTrio/EditedMorph89.png,020273right.gif,Stimuli/normal_thumbnails/89right.gif,1,0,1,0,0,63,63,88,,,69,2,64,182,-2.498477068,-0.087248742,89,875.4592453,875.9528426,875.4592453,875.9528426,89.11564626,1574373192,1574373194,2.266636848,139,97,-8,-8,1574373189,1574373192,,,MF,1,19,M,Undergrad,2019_Nov_21_1338,AdjustExp1,3.1.5,60.20758962,Experiment
30,Stimuli/Morph30.JPG,Stimuli/Morph30.png,Stimuli/BlurLevel5/BlurEditedMorph30,Stimuli/BlurLevel5/BlurEditedMorph30.png,Stimuli/BlurLevel5/NumberedMorphs/BlurEditedMorph30.png,Stimuli/BlurLevel5/OriginalBlur/BlurEditedMorph30.png,Stimuli/BlurMorphTrio/EditedMorph30.png,010076right.gif,Stimuli/normal_thumbnails/30right.gif,1,0,1,0,0,64,64,29,,,11,2,65,325,2.047880111,-1.433941091,30,880.8187914,881.3195533,880.8187914,881.3195533,98.63945578,1574373197,1574373200,2.51678896,113,29,1,1,1574373194,1574373197,,,MF,1,19,M,Undergrad,2019_Nov_21_1338,AdjustExp1,3.1.5,60.20758962,Experiment
120,Stimuli/Morph120.JPG,Stimuli/Morph120.png,Stimuli/BlurLevel5/BlurEditedMorph120,Stimuli/BlurLevel5/BlurEditedMorph120.png,Stimuli/BlurLevel5/NumberedMorphs/BlurEditedMorph120.png,Stimuli/BlurLevel5/OriginalBlur/BlurEditedMorph120.png,Stimuli/BlurMorphTrio/EditedMorph120.png,None,None,1,0,1,0,0,65,65,119,,,26,2,66,185,-2.490486745,-0.217889357,120,885.6569628,886.153,885.6569628,886.153,80.95238095,1574373202,1574373205,2.799187183,81,106,14,14,1574373200,1574373202,,,MF,1,19,M,Undergrad,2019_Nov_21_1338,AdjustExp1,3.1.5,60.20758962,Experiment
107,Stimuli/Morph107.JPG,Stimuli/Morph107.png,Stimuli/BlurLevel5/BlurEditedMorph107,Stimuli/BlurLevel5/BlurEditedMorph107.png,Stimuli/BlurLevel5/NumberedMorphs/BlurEditedMorph107.png,Stimuli/BlurLevel5/OriginalBlur/BlurEditedMorph107.png,Stimuli/BlurMorphTrio/EditedMorph107.png,None,None,1,0,1,0,0,66,66,106,,,5,2,67,214,-2.072593931,-1.397982259,107,891.0378081,891.535764,891.0378081,891.535764,95.91836735,1574373207,1574373210,2.466534138,78,104,3,3,1574373205,1574373207,,,MF,1,19,M,Undergrad,2019_Nov_21_1338,AdjustExp1,3.1.5,60.20758962,Experiment
85,Stimuli/Morph85.JPG,Stimuli/Morph85.png,Stimuli/BlurLevel5/BlurEditedMorph85,Stimuli/BlurLevel5/BlurEditedMorph85.png,Stimuli/BlurLevel5/NumberedMorphs/BlurEditedMorph85.png,Stimuli/BlurLevel5/OriginalBlur/BlurEditedMorph85.png,Stimuli/BlurMorphTrio/EditedMorph85.png,020264right.gif,Stimuli/normal_thumbnails/85right.gif,1,0,1,0,0,67,67,84,,,83,2,68,129,-1.573300978,1.942864904,85,896.2020567,896.7026154,896.2020567,896.7026154,42.85714286,1574373212,1574373218,5.183679104,43,43,42,42,1574373210,1574373212,,,MF,1,19,M,Undergrad,2019_Nov_21_1338,AdjustExp1,3.1.5,60.20758962,Experiment
6,Stimuli/Morph6.JPG,Stimuli/Morph6.png,Stimuli/BlurLevel5/BlurEditedMorph6,Stimuli/BlurLevel5/BlurEditedMorph6.png,Stimuli/BlurLevel5/NumberedMorphs/BlurEditedMorph6.png,Stimuli/BlurLevel5/OriginalBlur/BlurEditedMorph6.png,Stimuli/BlurMorphTrio/EditedMorph6.png,010012right.gif,Stimuli/normal_thumbnails/6right.gif,1,0,1,0,0,68,68,5,,,76,2,69,29,2.186549268,1.212024051,6,903.4754565,903.9685842,903.4754565,903.9685842,89.11564626,1574373220,1574373224,3.916741848,95,145,-139,8,1574373218,1574373220,,,MF,1,19,M,Undergrad,2019_Nov_21_1338,AdjustExp1,3.1.5,60.20758962,Experiment
147,Stimuli/Morph147.JPG,Stimuli/Morph147.png,Stimuli/BlurLevel5/BlurEditedMorph147,Stimuli/BlurLevel5/BlurEditedMorph147.png,Stimuli/BlurLevel5/NumberedMorphs/BlurEditedMorph147.png,Stimuli/BlurLevel5/OriginalBlur/BlurEditedMorph147.png,Stimuli/BlurMorphTrio/EditedMorph147.png,None,None,1,0,1,0,0,69,69,146,,,82,2,70,289,0.813920386,-2.363796439,147,909.6715486,910.1686651,909.6715486,910.1686651,90.47619048,1574373226,1574373228,1.766556978,91,7,140,-7,1574373224,1574373226,,,MF,1,19,M,Undergrad,2019_Nov_21_1338,AdjustExp1,3.1.5,60.20758962,Experiment
68,Stimuli/Morph68.JPG,Stimuli/Morph68.png,Stimuli/BlurLevel5/BlurEditedMorph68,Stimuli/BlurLevel5/BlurEditedMorph68.png,Stimuli/BlurLevel5/NumberedMorphs/BlurEditedMorph68.png,Stimuli/BlurLevel5/OriginalBlur/BlurEditedMorph68.png,Stimuli/BlurMorphTrio/EditedMorph68.png,020218right.gif,Stimuli/normal_thumbnails/68right.gif,1,0,1,0,0,70,70,67,,,3,2,71,341,2.363796439,-0.813920386,68,914.0717463,914.5685908,914.0717463,914.5685908,59.18367347,1574373230,1574373235,4.550433159,120,38,30,30,1574373228,1574373230,,,MF,1,19,M,Undergrad,2019_Nov_21_1338,AdjustExp1,3.1.5,60.20758962,Experiment
56,Stimuli/Morph56.JPG,Stimuli/Morph56.png,Stimuli/BlurLevel5/BlurEditedMorph56,Stimuli/BlurLevel5/BlurEditedMorph56.png,Stimuli/BlurLevel5/NumberedMorphs/BlurEditedMorph56.png,Stimuli/BlurLevel5/OriginalBlur/BlurEditedMorph56.png,Stimuli/BlurMorphTrio/EditedMorph56.png,010157right.gif,Stimuli/normal_thumbnails/56right.gif,1,0,1,0,0,71,71,55,,,52,2,72,52,1.539153688,1.970026884,56,921.1366212,921.6352375,921.1366212,921.6352375,87.75510204,1574373237,1574373239,1.683966875,62,47,9,9,1574373235,1574373237,,,MF,1,19,M,Undergrad,2019_Nov_21_1338,AdjustExp1,3.1.5,60.20758962,Experiment
98,Stimuli/Morph98.JPG,Stimuli/Morph98.png,Stimuli/BlurLevel5/BlurEditedMorph98,Stimuli/BlurLevel5/BlurEditedMorph98.png,Stimuli/BlurLevel5/NumberedMorphs/BlurEditedMorph98.png,Stimuli/BlurLevel5/OriginalBlur/BlurEditedMorph98.png,Stimuli/BlurMorphTrio/EditedMorph98.png,020298right.gif,Stimuli/normal_thumbnails/98right.gif,1,0,1,0,0,72,72,97,,,43,2,73,326,2.072593931,-1.397982259,98,925.534916,926.0355004,925.534916,926.0355004,91.83673469,1574373242,1574373243,1.633919001,73,92,6,6,1574373239,1574373242,,,MF,1,19,M,Undergrad,2019_Nov_21_1338,AdjustExp1,3.1.5,60.20758962,Experiment
91,Stimuli/Morph91.JPG,Stimuli/Morph91.png,Stimuli/BlurLevel5/BlurEditedMorph91,Stimuli/BlurLevel5/BlurEditedMorph91.png,Stimuli/BlurLevel5/NumberedMorphs/BlurEditedMorph91.png,Stimuli/BlurLevel5/OriginalBlur/BlurEditedMorph91.png,Stimuli/BlurMorphTrio/EditedMorph91.png,020276right.gif,Stimuli/normal_thumbnails/91right.gif,1,0,1,0,0,73,73,90,,,54,2,74,14,2.425739316,0.604804739,91,929.6350424,930.1354022,929.6350424,930.1354022,85.03401361,1574373246,1574373248,1.882943153,39,102,-11,-11,1574373244,1574373246,,,MF,1,19,M,Undergrad,2019_Nov_21_1338,AdjustExp1,3.1.5,60.20758962,Experiment
7,Stimuli/Morph7.JPG,Stimuli/Morph7.png,Stimuli/BlurLevel5/BlurEditedMorph7,Stimuli/BlurLevel5/BlurEditedMorph7.png,Stimuli/BlurLevel5/NumberedMorphs/BlurEditedMorph7.png,Stimuli/BlurLevel5/OriginalBlur/BlurEditedMorph7.png,Stimuli/BlurMorphTrio/EditedMorph7.png,010013right.gif,Stimuli/normal_thumbnails/7right.gif,1,0,1,0,0,74,74,6,,,57,2,75,216,-2.022542486,-1.469463131,7,933.9850298,934.485373,933.9850298,934.485373,95.91836735,1574373250,1574373253,3.066204071,117,4,3,3,1574373248,1574373250,,,MF,1,19,M,Undergrad,2019_Nov_21_1338,AdjustExp1,3.1.5,60.20758962,Experiment
123,Stimuli/Morph123.JPG,Stimuli/Morph123.png,Stimuli/BlurLevel5/BlurEditedMorph123,Stimuli/BlurLevel5/BlurEditedMorph123.png,Stimuli/BlurLevel5/NumberedMorphs/BlurEditedMorph123.png,Stimuli/BlurLevel5/OriginalBlur/BlurEditedMorph123.png,Stimuli/BlurMorphTrio/EditedMorph123.png,None,None,1,0,1,0,0,75,75,122,,,64,2,76,153,-2.22751631,1.134976249,123,939.5566145,940.0518563,939.5566145,940.0518563,97.27891156,1574373256,1574373258,2.149523973,109,125,-2,-2,1574373253,1574373256,,,MF,1,19,M,Undergrad,2019_Nov_21_1338,AdjustExp1,3.1.5,60.20758962,Experiment
18,Stimuli/Morph18.JPG,Stimuli/Morph18.png,Stimuli/BlurLevel5/BlurEditedMorph18,Stimuli/BlurLevel5/BlurEditedMorph18.png,Stimuli/BlurLevel5/NumberedMorphs/BlurEditedMorph18.png,Stimuli/BlurLevel5/OriginalBlur/BlurEditedMorph18.png,Stimuli/BlurMorphTrio/EditedMorph18.png,010039right.gif,Stimuli/normal_thumbnails/18right.gif,1,0,1,0,0,76,76,17,,,51,2,77,352,2.475670172,-0.347932752,18,944.5678476,945.0686927,944.5678476,945.0686927,94.55782313,1574373261,1574373263,2.700321913,77,22,-4,-4,1574373258,1574373261,,,MF,1,19,M,Undergrad,2019_Nov_21_1338,AdjustExp1,3.1.5,60.20758962,Experiment
96,Stimuli/Morph96.JPG,Stimuli/Morph96.png,Stimuli/BlurLevel5/BlurEditedMorph96,Stimuli/BlurLevel5/BlurEditedMorph96.png,Stimuli/BlurLevel5/NumberedMorphs/BlurEditedMorph96.png,Stimuli/BlurLevel5/OriginalBlur/BlurEditedMorph96.png,Stimuli/BlurMorphTrio/EditedMorph96.png,020292right.gif,Stimuli/normal_thumbnails/96right.gif,1,0,1,0,0,77,77,95,,,30,2,78,210,-2.165063509,-1.25,96,949.6687671,950.1686126,949.6687671,950.1686126,87.75510204,1574373266,1574373269,3.316950083,76,105,-9,-9,1574373264,1574373266,,,MF,1,19,M,Undergrad,2019_Nov_21_1338,AdjustExp1,3.1.5,60.20758962,Experiment
106,Stimuli/Morph106.JPG,Stimuli/Morph106.png,Stimuli/BlurLevel5/BlurEditedMorph106,Stimuli/BlurLevel5/BlurEditedMorph106.png,Stimuli/BlurLevel5/NumberedMorphs/BlurEditedMorph106.png,Stimuli/BlurLevel5/OriginalBlur/BlurEditedMorph106.png,Stimuli/BlurMorphTrio/EditedMorph106.png,None,None,1,0,1,0,0,78,78,105,,,98,2,79,276,0.261321158,-2.486304738,106,955.805179,956.3018176,955.805179,956.3018176,94.55782313,1574373272,1574373274,1.968008041,39,102,4,4,1574373269,1574373272,,,MF,1,19,M,Undergrad,2019_Nov_21_1338,AdjustExp1,3.1.5,60.20758962,Experiment
78,Stimuli/Morph78.JPG,Stimuli/Morph78.png,Stimuli/BlurLevel5/BlurEditedMorph78,Stimuli/BlurLevel5/BlurEditedMorph78.png,Stimuli/BlurLevel5/NumberedMorphs/BlurEditedMorph78.png,Stimuli/BlurLevel5/OriginalBlur/BlurEditedMorph78.png,Stimuli/BlurMorphTrio/EditedMorph78.png,020238right.gif,Stimuli/normal_thumbnails/78right.gif,1,0,1,0,0,79,79,77,,,78,2,80,9,2.469220851,0.391086163,78,960.1710873,960.6673419,960.1710873,960.6673419,89.11564626,1574373277,1574373280,3.684779882,47,86,-8,-8,1574373274,1574373277,,,MF,1,19,M,Undergrad,2019_Nov_21_1338,AdjustExp1,3.1.5,60.20758962,Experiment
31,Stimuli/Morph31.JPG,Stimuli/Morph31.png,Stimuli/BlurLevel5/BlurEditedMorph31,Stimuli/BlurLevel5/BlurEditedMorph31.png,Stimuli/BlurLevel5/NumberedMorphs/BlurEditedMorph31.png,Stimuli/BlurLevel5/OriginalBlur/BlurEditedMorph31.png,Stimuli/BlurMorphTrio/EditedMorph31.png,010079right.gif,Stimuli/normal_thumbnails/31right.gif,1,0,1,0,0,80,80,30,,,71,2,81,306,1.469463131,-2.022542486,31,966.3201822,966.8172016,966.3201822,966.8172016,97.27891156,1574373282,1574373287,4.050827742,19,29,2,2,1574373281,1574373282,,,MF,1,19,M,Undergrad,2019_Nov_21_1338,AdjustExp1,3.1.5,60.20758962,Experiment
132,Stimuli/Morph132.JPG,Stimuli/Morph132.png,Stimuli/BlurLevel5/BlurEditedMorph132,Stimuli/BlurLevel5/BlurEditedMorph132.png,Stimuli/BlurLevel5/NumberedMorphs/BlurEditedMorph132.png,Stimuli/BlurLevel5/OriginalBlur/BlurEditedMorph132.png,Stimuli/BlurMorphTrio/EditedMorph132.png,None,None,1,0,1,0,0,81,81,131,,,60,2,82,113,-0.976827821,2.301262134,132,972.8675333,973.3681629,972.8675333,973.3681629,75.51020408,1574373289,1574373292,2.467662096,51,114,18,18,1574373287,1574373289,,,MF,1,19,M,Undergrad,2019_Nov_21_1338,AdjustExp1,3.1.5,60.20758962,Experiment
83,Stimuli/Morph83.JPG,Stimuli/Morph83.png,Stimuli/BlurLevel5/BlurEditedMorph83,Stimuli/BlurLevel5/BlurEditedMorph83.png,Stimuli/BlurLevel5/NumberedMorphs/BlurEditedMorph83.png,Stimuli/BlurLevel5/OriginalBlur/BlurEditedMorph83.png,Stimuli/BlurMorphTrio/EditedMorph83.png,020259right.gif,Stimuli/normal_thumbnails/83right.gif,1,0,1,0,0,82,82,82,,,70,2,83,25,2.265769468,1.056545654,83,977.6682858,978.1674139,977.6682858,978.1674139,68.70748299,1574373294,1574373296,1.850468874,141,106,-23,-23,1574373292,1574373294,,,MF,1,19,M,Undergrad,2019_Nov_21_1338,AdjustExp1,3.1.5,60.20758962,Experiment
101,Stimuli/Morph101.JPG,Stimuli/Morph101.png,Stimuli/BlurLevel5/BlurEditedMorph101,Stimuli/BlurLevel5/BlurEditedMorph101.png,Stimuli/BlurLevel5/NumberedMorphs/BlurEditedMorph101.png,Stimuli/BlurLevel5/OriginalBlur/BlurEditedMorph101.png,Stimuli/BlurMorphTrio/EditedMorph101.png,None,None,1,0,1,0,0,83,83,100,,,60,2,84,327,2.09667642,-1.361597588,101,981.9742715,982.4676353,981.9742715,982.4676353,98.63945578,1574373298,1574373300,2.066554785,22,100,1,1,1574373296,1574373298,,,MF,1,19,M,Undergrad,2019_Nov_21_1338,AdjustExp1,3.1.5,60.20758962,Experiment
87,Stimuli/Morph87.JPG,Stimuli/Morph87.png,Stimuli/BlurLevel5/BlurEditedMorph87,Stimuli/BlurLevel5/BlurEditedMorph87.png,Stimuli/BlurLevel5/NumberedMorphs/BlurEditedMorph87.png,Stimuli/BlurLevel5/OriginalBlur/BlurEditedMorph87.png,Stimuli/BlurMorphTrio/EditedMorph87.png,020270right.gif,Stimuli/normal_thumbnails/87right.gif,1,0,1,0,0,84,84,86,,,96,2,85,313,1.7049959,-1.828384254,87,987.3215063,987.8172912,987.3215063,987.8172912,90.47619048,1574373303,1574373313,9.649877071,94,80,7,7,1574373300,1574373303,,,MF,1,19,M,Undergrad,2019_Nov_21_1338,AdjustExp1,3.1.5,60.20758962,Experiment
2,Stimuli/Morph2.JPG,Stimuli/Morph2.png,Stimuli/BlurLevel5/BlurEditedMorph2,Stimuli/BlurLevel5/BlurEditedMorph2.png,Stimuli/BlurLevel5/NumberedMorphs/BlurEditedMorph2.png,Stimuli/BlurLevel5/OriginalBlur/BlurEditedMorph2.png,Stimuli/BlurMorphTrio/EditedMorph2.png,010006right.gif,Stimuli/normal_thumbnails/2right.gif,2,0,2,0,0,0,0,1,,,70,3,1,312,1.672826516,-1.857862064,2,1090.788698,1091.283017,1090.788698,1091.283017,74.14965986,1574373407,1574373409,2.282763958,90,130,-128,19,1574373405,1574373407,space,91.40835326,MF,1,19,M,Undergrad,2019_Nov_21_1338,AdjustExp1,3.1.5,60.20758962,Experiment
