stimulusID,stimulus_JPG,stimulusPath,stimulusPath2,stimulusPath3,stimulusPath4,stimulusPath5,stimulusPath6,xRayOriginal,xRayPath,Blocks.thisRepN,Blocks.thisTrialN,Blocks.thisN,Blocks.thisIndex,Trials.thisRepN,Trials.thisTrialN,Trials.thisN,Trials.thisIndex,text_2.started,text_2.stopped,xrayID,blockNumber,trialNumber,stimLocationDeg,stimXCoord,stimYCoord,stimulusID,xray1.started,xray1.stopped,tumors.started,tumors.stopped,trialCorrect%,startRespTime,endRespTime,RT,morphTrack,morphID,errorRaw,errorCorrected,startStimTime,endStimTime,key_resp.keys,key_resp.rt,participant,session,age,gender,status,date,expName,psychopyVersion,frameRate,blockType
15,Stimuli/Morph15.JPG,Stimuli/Morph15.png,Stimuli/BlurLevel5/BlurEditedMorph15,Stimuli/BlurLevel5/BlurEditedMorph15.png,Stimuli/BlurLevel5/NumberedMorphs/BlurEditedMorph15.png,Stimuli/BlurLevel5/OriginalBlur/BlurEditedMorph15.png,Stimuli/BlurMorphTrio/EditedMorph15.png,010031right.gif,Stimuli/normal_thumbnails/15right.gif,0,0,0,0,0,0,0,14,50.02628563,None,25,1,1,9,2.469220851,0.391086163,15,72.27665244,72.77829352,72.27665244,72.77829352,83.67346939,1574197726,1574197728,2.048954248,14,3,12,12,1574197724,1574197726,,,NC,1,21,M,Undergrad,2019_Nov_19_1308,AdjustExp1,3.1.5,59.68189514,Experiment
2,Stimuli/Morph2.JPG,Stimuli/Morph2.png,Stimuli/BlurLevel5/BlurEditedMorph2,Stimuli/BlurLevel5/BlurEditedMorph2.png,Stimuli/BlurLevel5/NumberedMorphs/BlurEditedMorph2.png,Stimuli/BlurLevel5/OriginalBlur/BlurEditedMorph2.png,Stimuli/BlurMorphTrio/EditedMorph2.png,010006right.gif,Stimuli/normal_thumbnails/2right.gif,0,0,0,0,0,1,1,1,,,14,1,2,163,-2.39076189,0.730929262,2,76.72800651,77.22799223,76.72800651,77.22799223,95.91836735,1574197731,1574197733,1.999937773,43,146,-144,3,1574197728,1574197731,,,NC,1,21,M,Undergrad,2019_Nov_19_1308,AdjustExp1,3.1.5,59.68189514,Experiment
138,Stimuli/Morph138.JPG,Stimuli/Morph138.png,Stimuli/BlurLevel5/BlurEditedMorph138,Stimuli/BlurLevel5/BlurEditedMorph138.png,Stimuli/BlurLevel5/NumberedMorphs/BlurEditedMorph138.png,Stimuli/BlurLevel5/OriginalBlur/BlurEditedMorph138.png,Stimuli/BlurMorphTrio/EditedMorph138.png,None,None,0,0,0,0,0,2,2,137,,,84,1,3,306,1.469463131,-2.022542486,138,80.99420785,81.49493893,80.99420785,81.49493893,100,1574197735,1574197738,3.53406477,141,138,0,0,1574197733,1574197735,,,NC,1,21,M,Undergrad,2019_Nov_19_1308,AdjustExp1,3.1.5,59.68189514,Experiment
105,Stimuli/Morph105.JPG,Stimuli/Morph105.png,Stimuli/BlurLevel5/BlurEditedMorph105,Stimuli/BlurLevel5/BlurEditedMorph105.png,Stimuli/BlurLevel5/NumberedMorphs/BlurEditedMorph105.png,Stimuli/BlurLevel5/OriginalBlur/BlurEditedMorph105.png,Stimuli/BlurMorphTrio/EditedMorph105.png,None,None,0,0,0,0,0,3,3,104,,,34,1,4,98,-0.347932752,2.475670172,105,86.97906298,87.47761032,86.97906298,87.47761032,75.51020408,1574197741,1574197744,2.800162792,144,123,-18,-18,1574197739,1574197741,,,NC,1,21,M,Undergrad,2019_Nov_19_1308,AdjustExp1,3.1.5,59.68189514,Experiment
64,Stimuli/Morph64.JPG,Stimuli/Morph64.png,Stimuli/BlurLevel5/BlurEditedMorph64,Stimuli/BlurLevel5/BlurEditedMorph64.png,Stimuli/BlurLevel5/NumberedMorphs/BlurEditedMorph64.png,Stimuli/BlurLevel5/OriginalBlur/BlurEditedMorph64.png,Stimuli/BlurMorphTrio/EditedMorph64.png,020208right.gif,Stimuli/normal_thumbnails/64right.gif,0,0,0,0,0,4,4,63,,,35,1,5,115,-1.056545654,2.265769468,64,92.09752321,92.59458643,92.09752321,92.59458643,71.42857143,1574197746,1574197748,2.300807238,98,43,21,21,1574197744,1574197746,,,NC,1,21,M,Undergrad,2019_Nov_19_1308,AdjustExp1,3.1.5,59.68189514,Experiment
98,Stimuli/Morph98.JPG,Stimuli/Morph98.png,Stimuli/BlurLevel5/BlurEditedMorph98,Stimuli/BlurLevel5/BlurEditedMorph98.png,Stimuli/BlurLevel5/NumberedMorphs/BlurEditedMorph98.png,Stimuli/BlurLevel5/OriginalBlur/BlurEditedMorph98.png,Stimuli/BlurMorphTrio/EditedMorph98.png,020298right.gif,Stimuli/normal_thumbnails/98right.gif,0,0,0,0,0,5,5,97,,,39,1,6,118,-1.173678907,2.207368982,98,96.97745091,97.47761106,96.97745091,97.47761106,94.55782313,1574197751,1574197753,2.199856997,83,102,-4,-4,1574197749,1574197751,,,NC,1,21,M,Undergrad,2019_Nov_19_1308,AdjustExp1,3.1.5,59.68189514,Experiment
23,Stimuli/Morph23.JPG,Stimuli/Morph23.png,Stimuli/BlurLevel5/BlurEditedMorph23,Stimuli/BlurLevel5/BlurEditedMorph23.png,Stimuli/BlurLevel5/NumberedMorphs/BlurEditedMorph23.png,Stimuli/BlurLevel5/OriginalBlur/BlurEditedMorph23.png,Stimuli/BlurMorphTrio/EditedMorph23.png,010063right.gif,Stimuli/normal_thumbnails/23right.gif,0,0,0,0,0,6,6,22,,,58,1,7,137,-1.828384254,1.7049959,23,101.7179339,102.2111276,101.7179339,102.2111276,91.83673469,1574197756,1574197757,1.299934864,27,29,-6,-6,1574197753,1574197756,,,NC,1,21,M,Undergrad,2019_Nov_19_1308,AdjustExp1,3.1.5,59.68189514,Experiment
112,Stimuli/Morph112.JPG,Stimuli/Morph112.png,Stimuli/BlurLevel5/BlurEditedMorph112,Stimuli/BlurLevel5/BlurEditedMorph112.png,Stimuli/BlurLevel5/NumberedMorphs/BlurEditedMorph112.png,Stimuli/BlurLevel5/OriginalBlur/BlurEditedMorph112.png,Stimuli/BlurMorphTrio/EditedMorph112.png,None,None,0,0,0,0,0,7,7,111,,,78,1,8,219,-1.942864904,-1.573300978,112,105.3979818,105.8945746,105.3979818,105.8945746,86.39455782,1574197759,1574197761,2.067513227,30,122,-10,-10,1574197757,1574197759,,,NC,1,21,M,Undergrad,2019_Nov_19_1308,AdjustExp1,3.1.5,59.68189514,Experiment
111,Stimuli/Morph111.JPG,Stimuli/Morph111.png,Stimuli/BlurLevel5/BlurEditedMorph111,Stimuli/BlurLevel5/BlurEditedMorph111.png,Stimuli/BlurLevel5/NumberedMorphs/BlurEditedMorph111.png,Stimuli/BlurLevel5/OriginalBlur/BlurEditedMorph111.png,Stimuli/BlurMorphTrio/EditedMorph111.png,None,None,0,0,0,0,0,8,8,110,,,67,1,9,169,-2.454067959,0.477022488,111,110.2796293,110.7942179,110.2796293,110.7942179,95.91836735,1574197764,1574197766,2.066941023,109,108,3,3,1574197762,1574197764,,,NC,1,21,M,Undergrad,2019_Nov_19_1308,AdjustExp1,3.1.5,59.68189514,Experiment
69,Stimuli/Morph69.JPG,Stimuli/Morph69.png,Stimuli/BlurLevel5/BlurEditedMorph69,Stimuli/BlurLevel5/BlurEditedMorph69.png,Stimuli/BlurLevel5/NumberedMorphs/BlurEditedMorph69.png,Stimuli/BlurLevel5/OriginalBlur/BlurEditedMorph69.png,Stimuli/BlurMorphTrio/EditedMorph69.png,020220right.gif,Stimuli/normal_thumbnails/69right.gif,0,0,0,0,0,9,9,68,,,27,1,10,299,1.212024051,-2.186549268,69,115.0782073,115.5775895,115.0782073,115.5775895,63.26530612,1574197769,1574197772,2.817376852,138,42,27,27,1574197767,1574197769,,,NC,1,21,M,Undergrad,2019_Nov_19_1308,AdjustExp1,3.1.5,59.68189514,Experiment
73,Stimuli/Morph73.JPG,Stimuli/Morph73.png,Stimuli/BlurLevel5/BlurEditedMorph73,Stimuli/BlurLevel5/BlurEditedMorph73.png,Stimuli/BlurLevel5/NumberedMorphs/BlurEditedMorph73.png,Stimuli/BlurLevel5/OriginalBlur/BlurEditedMorph73.png,Stimuli/BlurMorphTrio/EditedMorph73.png,020230right.gif,Stimuli/normal_thumbnails/73right.gif,0,0,0,0,0,10,10,72,,,30,1,11,49,1.640147572,1.886773951,73,120.5986942,121.0940657,120.5986942,121.0940657,91.83673469,1574197774,1574197777,2.216815948,24,67,6,6,1574197772,1574197774,,,NC,1,21,M,Undergrad,2019_Nov_19_1308,AdjustExp1,3.1.5,59.68189514,Experiment
56,Stimuli/Morph56.JPG,Stimuli/Morph56.png,Stimuli/BlurLevel5/BlurEditedMorph56,Stimuli/BlurLevel5/BlurEditedMorph56.png,Stimuli/BlurLevel5/NumberedMorphs/BlurEditedMorph56.png,Stimuli/BlurLevel5/OriginalBlur/BlurEditedMorph56.png,Stimuli/BlurMorphTrio/EditedMorph56.png,010157right.gif,Stimuli/normal_thumbnails/56right.gif,0,0,0,0,0,11,11,55,,,24,1,12,209,-2.186549268,-1.212024051,56,125.4599127,125.9606724,125.4599127,125.9606724,90.47619048,1574197779,1574197783,3.466743946,95,63,-7,-7,1574197777,1574197779,,,NC,1,21,M,Undergrad,2019_Nov_19_1308,AdjustExp1,3.1.5,59.68189514,Experiment
46,Stimuli/Morph46.JPG,Stimuli/Morph46.png,Stimuli/BlurLevel5/BlurEditedMorph46,Stimuli/BlurLevel5/BlurEditedMorph46.png,Stimuli/BlurLevel5/NumberedMorphs/BlurEditedMorph46.png,Stimuli/BlurLevel5/OriginalBlur/BlurEditedMorph46.png,Stimuli/BlurMorphTrio/EditedMorph46.png,010128right.gif,Stimuli/normal_thumbnails/46right.gif,0,0,0,0,0,12,12,45,,,64,1,13,11,2.454067959,0.477022488,46,131.18256,131.6767919,131.18256,131.6767919,87.75510204,1574197785,1574197788,2.934304953,6,55,-9,-9,1574197783,1574197785,,,NC,1,21,M,Undergrad,2019_Nov_19_1308,AdjustExp1,3.1.5,59.68189514,Experiment
75,Stimuli/Morph75.JPG,Stimuli/Morph75.png,Stimuli/BlurLevel5/BlurEditedMorph75,Stimuli/BlurLevel5/BlurEditedMorph75.png,Stimuli/BlurLevel5/NumberedMorphs/BlurEditedMorph75.png,Stimuli/BlurLevel5/OriginalBlur/BlurEditedMorph75.png,Stimuli/BlurMorphTrio/EditedMorph75.png,020233right.gif,Stimuli/normal_thumbnails/75right.gif,0,0,0,0,0,13,13,74,,,80,1,14,3,2.496573837,0.130839891,75,136.6272452,137.1270065,136.6272452,137.1270065,98.63945578,1574197791,1574197793,2.750525951,56,74,1,1,1574197788,1574197790,,,NC,1,21,M,Undergrad,2019_Nov_19_1308,AdjustExp1,3.1.5,59.68189514,Experiment
10,Stimuli/Morph10.JPG,Stimuli/Morph10.png,Stimuli/BlurLevel5/BlurEditedMorph10,Stimuli/BlurLevel5/BlurEditedMorph10.png,Stimuli/BlurLevel5/NumberedMorphs/BlurEditedMorph10.png,Stimuli/BlurLevel5/OriginalBlur/BlurEditedMorph10.png,Stimuli/BlurMorphTrio/EditedMorph10.png,010016right.gif,Stimuli/normal_thumbnails/10right.gif,0,0,0,0,0,14,14,9,,,62,1,15,344,2.40315424,-0.68909339,10,142.0431033,142.5430836,142.0431033,142.5430836,83.67346939,1574197796,1574197798,2.400035143,38,22,-12,-12,1574197794,1574197796,,,NC,1,21,M,Undergrad,2019_Nov_19_1308,AdjustExp1,3.1.5,59.68189514,Experiment
90,Stimuli/Morph90.JPG,Stimuli/Morph90.png,Stimuli/BlurLevel5/BlurEditedMorph90,Stimuli/BlurLevel5/BlurEditedMorph90.png,Stimuli/BlurLevel5/NumberedMorphs/BlurEditedMorph90.png,Stimuli/BlurLevel5/OriginalBlur/BlurEditedMorph90.png,Stimuli/BlurMorphTrio/EditedMorph90.png,020275right.gif,Stimuli/normal_thumbnails/90right.gif,0,0,0,0,0,15,15,89,,,88,1,16,19,2.363796439,0.813920386,90,146.7939834,147.2936728,146.7939834,147.2936728,79.59183673,1574197801,1574197803,2.065471888,48,105,-15,-15,1574197799,1574197801,,,NC,1,21,M,Undergrad,2019_Nov_19_1308,AdjustExp1,3.1.5,59.68189514,Experiment
141,Stimuli/Morph141.JPG,Stimuli/Morph141.png,Stimuli/BlurLevel5/BlurEditedMorph141,Stimuli/BlurLevel5/BlurEditedMorph141.png,Stimuli/BlurLevel5/NumberedMorphs/BlurEditedMorph141.png,Stimuli/BlurLevel5/OriginalBlur/BlurEditedMorph141.png,Stimuli/BlurMorphTrio/EditedMorph141.png,None,None,0,0,0,0,0,16,16,140,,,82,1,17,7,2.481365379,0.304673359,141,151.1934968,151.6934816,151.1934968,151.6934816,87.75510204,1574197805,1574197807,1.916471004,14,3,138,-9,1574197803,1574197805,,,NC,1,21,M,Undergrad,2019_Nov_19_1308,AdjustExp1,3.1.5,59.68189514,Experiment
128,Stimuli/Morph128.JPG,Stimuli/Morph128.png,Stimuli/BlurLevel5/BlurEditedMorph128,Stimuli/BlurLevel5/BlurEditedMorph128.png,Stimuli/BlurLevel5/NumberedMorphs/BlurEditedMorph128.png,Stimuli/BlurLevel5/OriginalBlur/BlurEditedMorph128.png,Stimuli/BlurMorphTrio/EditedMorph128.png,None,None,0,0,0,0,0,17,17,127,,,73,1,18,94,-0.174391184,2.493910126,128,155.5657832,156.0605962,155.5657832,156.0605962,94.55782313,1574197809,1574197811,1.100258112,128,124,4,4,1574197807,1574197809,,,NC,1,21,M,Undergrad,2019_Nov_19_1308,AdjustExp1,3.1.5,59.68189514,Experiment
45,Stimuli/Morph45.JPG,Stimuli/Morph45.png,Stimuli/BlurLevel5/BlurEditedMorph45,Stimuli/BlurLevel5/BlurEditedMorph45.png,Stimuli/BlurLevel5/NumberedMorphs/BlurEditedMorph45.png,Stimuli/BlurLevel5/OriginalBlur/BlurEditedMorph45.png,Stimuli/BlurMorphTrio/EditedMorph45.png,010127right.gif,Stimuli/normal_thumbnails/45right.gif,0,0,0,0,0,18,18,44,,,8,1,19,281,0.477022488,-2.454067959,45,159.3773099,159.8769533,159.3773099,159.8769533,87.75510204,1574197813,1574197816,2.766664028,69,54,-9,-9,1574197811,1574197813,,,NC,1,21,M,Undergrad,2019_Nov_19_1308,AdjustExp1,3.1.5,59.68189514,Experiment
44,Stimuli/Morph44.JPG,Stimuli/Morph44.png,Stimuli/BlurLevel5/BlurEditedMorph44,Stimuli/BlurLevel5/BlurEditedMorph44.png,Stimuli/BlurLevel5/NumberedMorphs/BlurEditedMorph44.png,Stimuli/BlurLevel5/OriginalBlur/BlurEditedMorph44.png,Stimuli/BlurMorphTrio/EditedMorph44.png,010126right.gif,Stimuli/normal_thumbnails/44right.gif,0,0,0,0,0,19,19,43,,,73,1,20,190,-2.462019383,-0.434120444,44,164.3770613,164.8767649,164.3770613,164.8767649,91.83673469,1574197818,1574197820,1.883961916,72,50,-6,-6,1574197816,1574197818,,,NC,1,21,M,Undergrad,2019_Nov_19_1308,AdjustExp1,3.1.5,59.68189514,Experiment
53,Stimuli/Morph53.JPG,Stimuli/Morph53.png,Stimuli/BlurLevel5/BlurEditedMorph53,Stimuli/BlurLevel5/BlurEditedMorph53.png,Stimuli/BlurLevel5/NumberedMorphs/BlurEditedMorph53.png,Stimuli/BlurLevel5/OriginalBlur/BlurEditedMorph53.png,Stimuli/BlurMorphTrio/EditedMorph53.png,010149right.gif,Stimuli/normal_thumbnails/53right.gif,0,0,0,0,0,20,20,52,,,99,1,21,254,-0.68909339,-2.40315424,53,168.598444,169.0930168,168.598444,169.0930168,100,1574197822,1574197825,2.434102774,124,53,0,0,1574197820,1574197822,,,NC,1,21,M,Undergrad,2019_Nov_19_1308,AdjustExp1,3.1.5,59.68189514,Experiment
96,Stimuli/Morph96.JPG,Stimuli/Morph96.png,Stimuli/BlurLevel5/BlurEditedMorph96,Stimuli/BlurLevel5/BlurEditedMorph96.png,Stimuli/BlurLevel5/NumberedMorphs/BlurEditedMorph96.png,Stimuli/BlurLevel5/OriginalBlur/BlurEditedMorph96.png,Stimuli/BlurMorphTrio/EditedMorph96.png,020292right.gif,Stimuli/normal_thumbnails/96right.gif,0,0,0,0,0,21,21,95,,,35,1,22,288,0.772542486,-2.377641291,96,173.4929554,173.9931925,173.4929554,173.9931925,76.8707483,1574197827,1574197830,2.549932003,129,113,-17,-17,1574197825,1574197827,,,NC,1,21,M,Undergrad,2019_Nov_19_1308,AdjustExp1,3.1.5,59.68189514,Experiment
8,Stimuli/Morph8.JPG,Stimuli/Morph8.png,Stimuli/BlurLevel5/BlurEditedMorph8,Stimuli/BlurLevel5/BlurEditedMorph8.png,Stimuli/BlurLevel5/NumberedMorphs/BlurEditedMorph8.png,Stimuli/BlurLevel5/OriginalBlur/BlurEditedMorph8.png,Stimuli/BlurMorphTrio/EditedMorph8.png,010014right.gif,Stimuli/normal_thumbnails/8right.gif,0,0,0,0,0,22,22,7,,,30,1,23,221,-1.886773951,-1.640147572,8,178.7096325,179.2094163,178.7096325,179.2094163,61.9047619,1574197833,1574197835,2.350191832,124,127,-119,28,1574197830,1574197833,,,NC,1,21,M,Undergrad,2019_Nov_19_1308,AdjustExp1,3.1.5,59.68189514,Experiment
19,Stimuli/Morph19.JPG,Stimuli/Morph19.png,Stimuli/BlurLevel5/BlurEditedMorph19,Stimuli/BlurLevel5/BlurEditedMorph19.png,Stimuli/BlurLevel5/NumberedMorphs/BlurEditedMorph19.png,Stimuli/BlurLevel5/OriginalBlur/BlurEditedMorph19.png,Stimuli/BlurMorphTrio/EditedMorph19.png,010045right.gif,Stimuli/normal_thumbnails/19right.gif,0,0,0,0,0,23,23,18,,,84,1,24,235,-1.433941091,-2.047880111,19,183.4606391,183.9596193,183.4606391,183.9596193,91.83673469,1574197837,1574197842,5.134060144,45,13,6,6,1574197835,1574197837,,,NC,1,21,M,Undergrad,2019_Nov_19_1308,AdjustExp1,3.1.5,59.68189514,Experiment
9,Stimuli/Morph9.JPG,Stimuli/Morph9.png,Stimuli/BlurLevel5/BlurEditedMorph9,Stimuli/BlurLevel5/BlurEditedMorph9.png,Stimuli/BlurLevel5/NumberedMorphs/BlurEditedMorph9.png,Stimuli/BlurLevel5/OriginalBlur/BlurEditedMorph9.png,Stimuli/BlurMorphTrio/EditedMorph9.png,010015right.gif,Stimuli/normal_thumbnails/9right.gif,0,0,0,0,0,24,24,8,,,42,1,25,150,-2.165063509,1.25,9,191.6260455,192.1269026,191.6260455,192.1269026,97.27891156,1574197846,1574197847,1.083105803,11,11,-2,-2,1574197843,1574197845,,,NC,1,21,M,Undergrad,2019_Nov_19_1308,AdjustExp1,3.1.5,59.68189514,Experiment
39,Stimuli/Morph39.JPG,Stimuli/Morph39.png,Stimuli/BlurLevel5/BlurEditedMorph39,Stimuli/BlurLevel5/BlurEditedMorph39.png,Stimuli/BlurLevel5/NumberedMorphs/BlurEditedMorph39.png,Stimuli/BlurLevel5/OriginalBlur/BlurEditedMorph39.png,Stimuli/BlurMorphTrio/EditedMorph39.png,010109right.gif,Stimuli/normal_thumbnails/39right.gif,0,0,0,0,0,25,25,38,,,37,1,26,91,-0.043631016,2.499619238,39,195.3599948,195.8649914,195.3599948,195.8649914,97.27891156,1574197849,1574197853,3.517107964,134,41,-2,-2,1574197847,1574197849,,,NC,1,21,M,Undergrad,2019_Nov_19_1308,AdjustExp1,3.1.5,59.68189514,Experiment
85,Stimuli/Morph85.JPG,Stimuli/Morph85.png,Stimuli/BlurLevel5/BlurEditedMorph85,Stimuli/BlurLevel5/BlurEditedMorph85.png,Stimuli/BlurLevel5/NumberedMorphs/BlurEditedMorph85.png,Stimuli/BlurLevel5/OriginalBlur/BlurEditedMorph85.png,Stimuli/BlurMorphTrio/EditedMorph85.png,020264right.gif,Stimuli/normal_thumbnails/85right.gif,0,0,0,0,0,26,26,84,,,95,1,27,266,-0.174391184,-2.493910126,85,201.725406,202.4253995,201.725406,202.4253995,56.46258503,1574197856,1574197860,3.800223112,34,117,-32,-32,1574197853,1574197856,,,NC,1,21,M,Undergrad,2019_Nov_19_1308,AdjustExp1,3.1.5,59.68189514,Experiment
3,Stimuli/Morph3.JPG,Stimuli/Morph3.png,Stimuli/BlurLevel5/BlurEditedMorph3,Stimuli/BlurLevel5/BlurEditedMorph3.png,Stimuli/BlurLevel5/NumberedMorphs/BlurEditedMorph3.png,Stimuli/BlurLevel5/OriginalBlur/BlurEditedMorph3.png,Stimuli/BlurMorphTrio/EditedMorph3.png,010009right.gif,Stimuli/normal_thumbnails/3right.gif,0,0,0,0,0,27,27,2,,,49,1,28,68,0.936516484,2.317959636,3,208.0971351,208.5929759,208.0971351,208.5929759,85.03401361,1574197862,1574197866,3.850594044,77,14,-11,-11,1574197860,1574197862,,,NC,1,21,M,Undergrad,2019_Nov_19_1308,AdjustExp1,3.1.5,59.68189514,Experiment
72,Stimuli/Morph72.JPG,Stimuli/Morph72.png,Stimuli/BlurLevel5/BlurEditedMorph72,Stimuli/BlurLevel5/BlurEditedMorph72.png,Stimuli/BlurLevel5/NumberedMorphs/BlurEditedMorph72.png,Stimuli/BlurLevel5/OriginalBlur/BlurEditedMorph72.png,Stimuli/BlurMorphTrio/EditedMorph72.png,020227right.gif,Stimuli/normal_thumbnails/72right.gif,0,0,0,0,0,28,28,71,,,49,1,29,98,-0.347932752,2.475670172,72,214.1431914,214.6430837,214.1431914,214.6430837,90.47619048,1574197868,1574197871,3.29929328,2,65,7,7,1574197866,1574197868,,,NC,1,21,M,Undergrad,2019_Nov_19_1308,AdjustExp1,3.1.5,59.68189514,Experiment
117,Stimuli/Morph117.JPG,Stimuli/Morph117.png,Stimuli/BlurLevel5/BlurEditedMorph117,Stimuli/BlurLevel5/BlurEditedMorph117.png,Stimuli/BlurLevel5/NumberedMorphs/BlurEditedMorph117.png,Stimuli/BlurLevel5/OriginalBlur/BlurEditedMorph117.png,Stimuli/BlurMorphTrio/EditedMorph117.png,None,None,0,0,0,0,0,29,29,116,,,68,1,30,122,-1.324798161,2.12012024,117,219.8329582,220.326333,219.8329582,220.326333,91.83673469,1574197874,1574197876,2.050057173,62,123,-6,-6,1574197872,1574197874,,,NC,1,21,M,Undergrad,2019_Nov_19_1308,AdjustExp1,3.1.5,59.68189514,Experiment
130,Stimuli/Morph130.JPG,Stimuli/Morph130.png,Stimuli/BlurLevel5/BlurEditedMorph130,Stimuli/BlurLevel5/BlurEditedMorph130.png,Stimuli/BlurLevel5/NumberedMorphs/BlurEditedMorph130.png,Stimuli/BlurLevel5/OriginalBlur/BlurEditedMorph130.png,Stimuli/BlurMorphTrio/EditedMorph130.png,None,None,0,0,0,0,0,30,30,129,,,14,1,31,46,1.736645926,1.798349501,130,224.7418173,225.2428152,224.7418173,225.2428152,93.19727891,1574197879,1574197882,2.983900309,109,125,5,5,1574197876,1574197879,,,NC,1,21,M,Undergrad,2019_Nov_19_1308,AdjustExp1,3.1.5,59.68189514,Experiment
63,Stimuli/Morph63.JPG,Stimuli/Morph63.png,Stimuli/BlurLevel5/BlurEditedMorph63,Stimuli/BlurLevel5/BlurEditedMorph63.png,Stimuli/BlurLevel5/NumberedMorphs/BlurEditedMorph63.png,Stimuli/BlurLevel5/OriginalBlur/BlurEditedMorph63.png,Stimuli/BlurMorphTrio/EditedMorph63.png,020206right.gif,Stimuli/normal_thumbnails/63right.gif,0,0,0,0,0,31,31,62,,,24,1,32,128,-1.539153688,1.970026884,63,230.358857,230.8595573,230.358857,230.8595573,80.95238095,1574197884,1574197888,4.150314093,134,49,14,14,1574197882,1574197884,,,NC,1,21,M,Undergrad,2019_Nov_19_1308,AdjustExp1,3.1.5,59.68189514,Experiment
67,Stimuli/Morph67.JPG,Stimuli/Morph67.png,Stimuli/BlurLevel5/BlurEditedMorph67,Stimuli/BlurLevel5/BlurEditedMorph67.png,Stimuli/BlurLevel5/NumberedMorphs/BlurEditedMorph67.png,Stimuli/BlurLevel5/OriginalBlur/BlurEditedMorph67.png,Stimuli/BlurMorphTrio/EditedMorph67.png,020217right.gif,Stimuli/normal_thumbnails/67right.gif,0,0,0,0,0,32,32,66,,,86,1,33,75,0.647047613,2.414814566,67,237.1929608,237.6924423,237.1929608,237.6924423,94.55782313,1574197891,1574197893,1.733118057,46,63,4,4,1574197889,1574197891,,,NC,1,21,M,Undergrad,2019_Nov_19_1308,AdjustExp1,3.1.5,59.68189514,Experiment
108,Stimuli/Morph108.JPG,Stimuli/Morph108.png,Stimuli/BlurLevel5/BlurEditedMorph108,Stimuli/BlurLevel5/BlurEditedMorph108.png,Stimuli/BlurLevel5/NumberedMorphs/BlurEditedMorph108.png,Stimuli/BlurLevel5/OriginalBlur/BlurEditedMorph108.png,Stimuli/BlurMorphTrio/EditedMorph108.png,None,None,0,0,0,0,0,33,33,107,,,33,1,34,305,1.433941091,-2.047880111,108,241.460612,241.9594342,241.460612,241.9594342,78.23129252,1574197895,1574197898,2.632622004,96,92,16,16,1574197893,1574197895,,,NC,1,21,M,Undergrad,2019_Nov_19_1308,AdjustExp1,3.1.5,59.68189514,Experiment
70,Stimuli/Morph70.JPG,Stimuli/Morph70.png,Stimuli/BlurLevel5/BlurEditedMorph70,Stimuli/BlurLevel5/BlurEditedMorph70.png,Stimuli/BlurLevel5/NumberedMorphs/BlurEditedMorph70.png,Stimuli/BlurLevel5/OriginalBlur/BlurEditedMorph70.png,Stimuli/BlurMorphTrio/EditedMorph70.png,020221right.gif,Stimuli/normal_thumbnails/70right.gif,0,0,0,0,0,34,34,69,,,38,1,35,38,1.970026884,1.539153688,70,246.8092163,247.3089404,246.8092163,247.3089404,100,1574197901,1574197903,2.566987038,146,70,0,0,1574197898,1574197901,,,NC,1,21,M,Undergrad,2019_Nov_19_1308,AdjustExp1,3.1.5,59.68189514,Experiment
68,Stimuli/Morph68.JPG,Stimuli/Morph68.png,Stimuli/BlurLevel5/BlurEditedMorph68,Stimuli/BlurLevel5/BlurEditedMorph68.png,Stimuli/BlurLevel5/NumberedMorphs/BlurEditedMorph68.png,Stimuli/BlurLevel5/OriginalBlur/BlurEditedMorph68.png,Stimuli/BlurMorphTrio/EditedMorph68.png,020218right.gif,Stimuli/normal_thumbnails/68right.gif,0,0,0,0,0,35,35,67,,,56,1,36,353,2.481365379,-0.304673359,68,252.3253379,252.8255742,252.3253379,252.8255742,95.91836735,1574197906,1574197908,1.400710106,64,71,-3,-3,1574197904,1574197906,,,NC,1,21,M,Undergrad,2019_Nov_19_1308,AdjustExp1,3.1.5,59.68189514,Experiment
32,Stimuli/Morph32.JPG,Stimuli/Morph32.png,Stimuli/BlurLevel5/BlurEditedMorph32,Stimuli/BlurLevel5/BlurEditedMorph32.png,Stimuli/BlurLevel5/NumberedMorphs/BlurEditedMorph32.png,Stimuli/BlurLevel5/OriginalBlur/BlurEditedMorph32.png,Stimuli/BlurMorphTrio/EditedMorph32.png,010080right.gif,Stimuli/normal_thumbnails/32right.gif,0,0,0,0,0,36,36,31,,,46,1,37,317,1.828384254,-1.7049959,32,256.1920543,256.6925045,256.1920543,256.6925045,68.70748299,1574197910,1574197912,2.366106987,97,9,23,23,1574197908,1574197910,,,NC,1,21,M,Undergrad,2019_Nov_19_1308,AdjustExp1,3.1.5,59.68189514,Experiment
142,Stimuli/Morph142.JPG,Stimuli/Morph142.png,Stimuli/BlurLevel5/BlurEditedMorph142,Stimuli/BlurLevel5/BlurEditedMorph142.png,Stimuli/BlurLevel5/NumberedMorphs/BlurEditedMorph142.png,Stimuli/BlurLevel5/OriginalBlur/BlurEditedMorph142.png,Stimuli/BlurMorphTrio/EditedMorph142.png,None,None,0,0,0,0,0,37,37,141,,,50,1,38,131,-1.640147572,1.886773951,142,261.1424826,261.6416578,261.1424826,261.6416578,85.03401361,1574197915,1574197918,2.633852005,90,6,136,-11,1574197913,1574197915,,,NC,1,21,M,Undergrad,2019_Nov_19_1308,AdjustExp1,3.1.5,59.68189514,Experiment
101,Stimuli/Morph101.JPG,Stimuli/Morph101.png,Stimuli/BlurLevel5/BlurEditedMorph101,Stimuli/BlurLevel5/BlurEditedMorph101.png,Stimuli/BlurLevel5/NumberedMorphs/BlurEditedMorph101.png,Stimuli/BlurLevel5/OriginalBlur/BlurEditedMorph101.png,Stimuli/BlurMorphTrio/EditedMorph101.png,None,None,0,0,0,0,0,38,38,100,,,69,1,39,209,-2.186549268,-1.212024051,101,266.526804,267.0253591,266.526804,267.0253591,85.03401361,1574197920,1574197926,5.383621931,139,112,-11,-11,1574197918,1574197920,,,NC,1,21,M,Undergrad,2019_Nov_19_1308,AdjustExp1,3.1.5,59.68189514,Experiment
48,Stimuli/Morph48.JPG,Stimuli/Morph48.png,Stimuli/BlurLevel5/BlurEditedMorph48,Stimuli/BlurLevel5/BlurEditedMorph48.png,Stimuli/BlurLevel5/NumberedMorphs/BlurEditedMorph48.png,Stimuli/BlurLevel5/OriginalBlur/BlurEditedMorph48.png,Stimuli/BlurMorphTrio/EditedMorph48.png,010131right.gif,Stimuli/normal_thumbnails/48right.gif,0,0,0,0,0,39,39,47,,,63,1,40,72,0.772542486,2.377641291,48,274.2588035,274.7591243,274.2588035,274.7591243,22.44897959,1574197928,1574197932,3.616468191,107,105,-57,-57,1574197926,1574197928,,,NC,1,21,M,Undergrad,2019_Nov_19_1308,AdjustExp1,3.1.5,59.68189514,Experiment
40,Stimuli/Morph40.JPG,Stimuli/Morph40.png,Stimuli/BlurLevel5/BlurEditedMorph40,Stimuli/BlurLevel5/BlurEditedMorph40.png,Stimuli/BlurLevel5/NumberedMorphs/BlurEditedMorph40.png,Stimuli/BlurLevel5/OriginalBlur/BlurEditedMorph40.png,Stimuli/BlurMorphTrio/EditedMorph40.png,010110right.gif,Stimuli/normal_thumbnails/40right.gif,0,0,0,0,0,40,40,39,,,61,1,41,357,2.496573837,-0.130839891,40,280.6745657,281.1750193,280.6745657,281.1750193,90.47619048,1574197935,1574197938,3.017210007,4,47,-7,-7,1574197932,1574197935,,,NC,1,21,M,Undergrad,2019_Nov_19_1308,AdjustExp1,3.1.5,59.68189514,Experiment
125,Stimuli/Morph125.JPG,Stimuli/Morph125.png,Stimuli/BlurLevel5/BlurEditedMorph125,Stimuli/BlurLevel5/BlurEditedMorph125.png,Stimuli/BlurLevel5/NumberedMorphs/BlurEditedMorph125.png,Stimuli/BlurLevel5/OriginalBlur/BlurEditedMorph125.png,Stimuli/BlurMorphTrio/EditedMorph125.png,None,None,0,0,0,0,0,41,41,124,,,16,1,42,22,2.317959636,0.936516484,125,286.4246584,286.9256779,286.4246584,286.9256779,64.62585034,1574197940,1574197942,2.165976048,77,99,26,26,1574197938,1574197940,,,NC,1,21,M,Undergrad,2019_Nov_19_1308,AdjustExp1,3.1.5,59.68189514,Experiment
136,Stimuli/Morph136.JPG,Stimuli/Morph136.png,Stimuli/BlurLevel5/BlurEditedMorph136,Stimuli/BlurLevel5/BlurEditedMorph136.png,Stimuli/BlurLevel5/NumberedMorphs/BlurEditedMorph136.png,Stimuli/BlurLevel5/OriginalBlur/BlurEditedMorph136.png,Stimuli/BlurMorphTrio/EditedMorph136.png,None,None,0,0,0,0,0,42,42,135,,,69,1,43,154,-2.246985116,1.095927867,136,291.0814207,291.575124,291.0814207,291.575124,51.02040816,1574197945,1574197947,2.13308382,83,100,36,36,1574197943,1574197945,,,NC,1,21,M,Undergrad,2019_Nov_19_1308,AdjustExp1,3.1.5,59.68189514,Experiment
99,Stimuli/Morph99.JPG,Stimuli/Morph99.png,Stimuli/BlurLevel5/BlurEditedMorph99,Stimuli/BlurLevel5/BlurEditedMorph99.png,Stimuli/BlurLevel5/NumberedMorphs/BlurEditedMorph99.png,Stimuli/BlurLevel5/OriginalBlur/BlurEditedMorph99.png,Stimuli/BlurMorphTrio/EditedMorph99.png,020299right.gif,Stimuli/normal_thumbnails/99right.gif,0,0,0,0,0,43,43,98,,,45,1,44,197,-2.39076189,-0.730929262,99,295.6080322,296.1086518,295.6080322,296.1086518,87.75510204,1574197949,1574197951,1.033477783,108,108,-9,-9,1574197947,1574197949,,,NC,1,21,M,Undergrad,2019_Nov_19_1308,AdjustExp1,3.1.5,59.68189514,Experiment
14,Stimuli/Morph14.JPG,Stimuli/Morph14.png,Stimuli/BlurLevel5/BlurEditedMorph14,Stimuli/BlurLevel5/BlurEditedMorph14.png,Stimuli/BlurLevel5/NumberedMorphs/BlurEditedMorph14.png,Stimuli/BlurLevel5/OriginalBlur/BlurEditedMorph14.png,Stimuli/BlurMorphTrio/EditedMorph14.png,010030right.gif,Stimuli/normal_thumbnails/14right.gif,0,0,0,0,0,44,44,13,,,90,1,45,319,1.886773951,-1.640147572,14,299.1251033,299.6249185,299.1251033,299.6249185,100,1574197953,1574197957,3.582988977,23,14,0,0,1574197951,1574197953,,,NC,1,21,M,Undergrad,2019_Nov_19_1308,AdjustExp1,3.1.5,59.68189514,Experiment
120,Stimuli/Morph120.JPG,Stimuli/Morph120.png,Stimuli/BlurLevel5/BlurEditedMorph120,Stimuli/BlurLevel5/BlurEditedMorph120.png,Stimuli/BlurLevel5/NumberedMorphs/BlurEditedMorph120.png,Stimuli/BlurLevel5/OriginalBlur/BlurEditedMorph120.png,Stimuli/BlurMorphTrio/EditedMorph120.png,None,None,0,0,0,0,0,45,45,119,,,40,1,46,196,-2.40315424,-0.68909339,120,305.4095737,305.9083715,305.4095737,305.9083715,89.11564626,1574197959,1574197961,1.616495848,2,112,8,8,1574197957,1574197959,,,NC,1,21,M,Undergrad,2019_Nov_19_1308,AdjustExp1,3.1.5,59.68189514,Experiment
35,Stimuli/Morph35.JPG,Stimuli/Morph35.png,Stimuli/BlurLevel5/BlurEditedMorph35,Stimuli/BlurLevel5/BlurEditedMorph35.png,Stimuli/BlurLevel5/NumberedMorphs/BlurEditedMorph35.png,Stimuli/BlurLevel5/OriginalBlur/BlurEditedMorph35.png,Stimuli/BlurMorphTrio/EditedMorph35.png,010094right.gif,Stimuli/normal_thumbnails/35right.gif,0,0,0,0,0,46,46,34,,,63,1,47,84,0.261321158,2.486304738,35,309.6247734,310.1250363,309.6247734,310.1250363,98.63945578,1574197964,1574197966,2.217102051,85,34,1,1,1574197961,1574197963,,,NC,1,21,M,Undergrad,2019_Nov_19_1308,AdjustExp1,3.1.5,59.68189514,Experiment
137,Stimuli/Morph137.JPG,Stimuli/Morph137.png,Stimuli/BlurLevel5/BlurEditedMorph137,Stimuli/BlurLevel5/BlurEditedMorph137.png,Stimuli/BlurLevel5/NumberedMorphs/BlurEditedMorph137.png,Stimuli/BlurLevel5/OriginalBlur/BlurEditedMorph137.png,Stimuli/BlurMorphTrio/EditedMorph137.png,None,None,0,0,0,0,0,47,47,136,,,5,1,48,256,-0.604804739,-2.425739316,137,314.4247189,314.9251763,314.4247189,314.9251763,65.98639456,1574197968,1574197970,1.833536148,94,112,25,25,1574197966,1574197968,,,NC,1,21,M,Undergrad,2019_Nov_19_1308,AdjustExp1,3.1.5,59.68189514,Experiment
58,Stimuli/Morph58.JPG,Stimuli/Morph58.png,Stimuli/BlurLevel5/BlurEditedMorph58,Stimuli/BlurLevel5/BlurEditedMorph58.png,Stimuli/BlurLevel5/NumberedMorphs/BlurEditedMorph58.png,Stimuli/BlurLevel5/OriginalBlur/BlurEditedMorph58.png,Stimuli/BlurMorphTrio/EditedMorph58.png,010159right.gif,Stimuli/normal_thumbnails/58right.gif,0,0,0,0,0,48,48,57,,,67,1,49,145,-2.047880111,1.433941091,58,319.0080279,319.5075845,319.0080279,319.5075845,97.27891156,1574197973,1574197977,4.349457979,123,60,-2,-2,1574197970,1574197973,,,NC,1,21,M,Undergrad,2019_Nov_19_1308,AdjustExp1,3.1.5,59.68189514,Experiment
41,Stimuli/Morph41.JPG,Stimuli/Morph41.png,Stimuli/BlurLevel5/BlurEditedMorph41,Stimuli/BlurLevel5/BlurEditedMorph41.png,Stimuli/BlurLevel5/NumberedMorphs/BlurEditedMorph41.png,Stimuli/BlurLevel5/OriginalBlur/BlurEditedMorph41.png,Stimuli/BlurMorphTrio/EditedMorph41.png,010112right.gif,Stimuli/normal_thumbnails/41right.gif,0,0,0,0,0,49,49,40,,,87,1,50,301,1.287595187,-2.142918252,41,325.6785526,326.1749165,325.6785526,326.1749165,98.63945578,1574197980,1574197982,1.967117786,57,42,-1,-1,1574197978,1574197980,,,NC,1,21,M,Undergrad,2019_Nov_19_1308,AdjustExp1,3.1.5,59.68189514,Experiment
92,Stimuli/Morph92.JPG,Stimuli/Morph92.png,Stimuli/BlurLevel5/BlurEditedMorph92,Stimuli/BlurLevel5/BlurEditedMorph92.png,Stimuli/BlurLevel5/NumberedMorphs/BlurEditedMorph92.png,Stimuli/BlurLevel5/OriginalBlur/BlurEditedMorph92.png,Stimuli/BlurMorphTrio/EditedMorph92.png,020277right.gif,Stimuli/normal_thumbnails/92right.gif,0,0,0,0,0,50,50,91,,,65,1,51,252,-0.772542486,-2.377641291,92,330.0315355,330.524631,330.0315355,330.524631,23.80952381,1574197984,1574197993,8.650569916,3,1,91,-56,1574197982,1574197984,,,NC,1,21,M,Undergrad,2019_Nov_19_1308,AdjustExp1,3.1.5,59.68189514,Experiment
115,Stimuli/Morph115.JPG,Stimuli/Morph115.png,Stimuli/BlurLevel5/BlurEditedMorph115,Stimuli/BlurLevel5/BlurEditedMorph115.png,Stimuli/BlurLevel5/NumberedMorphs/BlurEditedMorph115.png,Stimuli/BlurLevel5/OriginalBlur/BlurEditedMorph115.png,Stimuli/BlurMorphTrio/EditedMorph115.png,None,None,0,0,0,0,0,51,51,114,,,85,1,52,232,-1.539153688,-1.970026884,115,341.257693,341.7571607,341.257693,341.7571607,98.63945578,1574197995,1574197997,2.033262014,29,114,1,1,1574197993,1574197995,,,NC,1,21,M,Undergrad,2019_Nov_19_1308,AdjustExp1,3.1.5,59.68189514,Experiment
146,Stimuli/Morph146.JPG,Stimuli/Morph146.png,Stimuli/BlurLevel5/BlurEditedMorph146,Stimuli/BlurLevel5/BlurEditedMorph146.png,Stimuli/BlurLevel5/NumberedMorphs/BlurEditedMorph146.png,Stimuli/BlurLevel5/OriginalBlur/BlurEditedMorph146.png,Stimuli/BlurMorphTrio/EditedMorph146.png,None,None,0,0,0,0,0,52,52,145,,,43,1,53,37,1.996588775,1.504537558,146,346.007197,346.5076722,346.007197,346.5076722,100,1574198000,1574198002,2.216940165,145,146,0,0,1574197997,1574198000,,,NC,1,21,M,Undergrad,2019_Nov_19_1308,AdjustExp1,3.1.5,59.68189514,Experiment
139,Stimuli/Morph139.JPG,Stimuli/Morph139.png,Stimuli/BlurLevel5/BlurEditedMorph139,Stimuli/BlurLevel5/BlurEditedMorph139.png,Stimuli/BlurLevel5/NumberedMorphs/BlurEditedMorph139.png,Stimuli/BlurLevel5/OriginalBlur/BlurEditedMorph139.png,Stimuli/BlurMorphTrio/EditedMorph139.png,None,None,0,0,0,0,0,53,53,138,,,77,1,54,22,2.317959636,0.936516484,139,350.8074011,351.307492,350.8074011,351.307492,97.27891156,1574198005,1574198008,3.033448935,53,141,-2,-2,1574198002,1574198005,,,NC,1,21,M,Undergrad,2019_Nov_19_1308,AdjustExp1,3.1.5,59.68189514,Experiment
104,Stimuli/Morph104.JPG,Stimuli/Morph104.png,Stimuli/BlurLevel5/BlurEditedMorph104,Stimuli/BlurLevel5/BlurEditedMorph104.png,Stimuli/BlurLevel5/NumberedMorphs/BlurEditedMorph104.png,Stimuli/BlurLevel5/OriginalBlur/BlurEditedMorph104.png,Stimuli/BlurMorphTrio/EditedMorph104.png,None,None,0,0,0,0,0,54,54,103,,,32,1,55,349,2.454067959,-0.477022488,104,356.3602565,356.8579134,356.3602565,356.8579134,94.55782313,1574198010,1574198013,2.699903011,97,100,4,4,1574198008,1574198010,,,NC,1,21,M,Undergrad,2019_Nov_19_1308,AdjustExp1,3.1.5,59.68189514,Experiment
11,Stimuli/Morph11.JPG,Stimuli/Morph11.png,Stimuli/BlurLevel5/BlurEditedMorph11,Stimuli/BlurLevel5/BlurEditedMorph11.png,Stimuli/BlurLevel5/NumberedMorphs/BlurEditedMorph11.png,Stimuli/BlurLevel5/OriginalBlur/BlurEditedMorph11.png,Stimuli/BlurMorphTrio/EditedMorph11.png,010024right.gif,Stimuli/normal_thumbnails/11right.gif,0,0,0,0,0,55,55,10,,,59,1,56,135,-1.767766953,1.767766953,11,361.2575925,361.7568402,361.2575925,361.7568402,85.03401361,1574198015,1574198020,4.549988985,95,147,-136,11,1574198013,1574198015,,,NC,1,21,M,Undergrad,2019_Nov_19_1308,AdjustExp1,3.1.5,59.68189514,Experiment
29,Stimuli/Morph29.JPG,Stimuli/Morph29.png,Stimuli/BlurLevel5/BlurEditedMorph29,Stimuli/BlurLevel5/BlurEditedMorph29.png,Stimuli/BlurLevel5/NumberedMorphs/BlurEditedMorph29.png,Stimuli/BlurLevel5/OriginalBlur/BlurEditedMorph29.png,Stimuli/BlurMorphTrio/EditedMorph29.png,010074right.gif,Stimuli/normal_thumbnails/29right.gif,0,0,0,0,0,56,56,28,,,41,1,57,324,2.022542486,-1.469463131,29,368.456948,368.9577724,368.456948,368.9577724,94.55782313,1574198022,1574198025,2.516941786,79,25,4,4,1574198020,1574198022,,,NC,1,21,M,Undergrad,2019_Nov_19_1308,AdjustExp1,3.1.5,59.68189514,Experiment
87,Stimuli/Morph87.JPG,Stimuli/Morph87.png,Stimuli/BlurLevel5/BlurEditedMorph87,Stimuli/BlurLevel5/BlurEditedMorph87.png,Stimuli/BlurLevel5/NumberedMorphs/BlurEditedMorph87.png,Stimuli/BlurLevel5/OriginalBlur/BlurEditedMorph87.png,Stimuli/BlurMorphTrio/EditedMorph87.png,020270right.gif,Stimuli/normal_thumbnails/87right.gif,0,0,0,0,0,57,57,86,,,97,1,58,57,1.361597588,2.09667642,87,373.7734939,374.2742154,373.7734939,374.2742154,100,1574198028,1574198032,4.267165899,140,87,0,0,1574198025,1574198028,,,NC,1,21,M,Undergrad,2019_Nov_19_1308,AdjustExp1,3.1.5,59.68189514,Experiment
116,Stimuli/Morph116.JPG,Stimuli/Morph116.png,Stimuli/BlurLevel5/BlurEditedMorph116,Stimuli/BlurLevel5/BlurEditedMorph116.png,Stimuli/BlurLevel5/NumberedMorphs/BlurEditedMorph116.png,Stimuli/BlurLevel5/OriginalBlur/BlurEditedMorph116.png,Stimuli/BlurMorphTrio/EditedMorph116.png,None,None,0,0,0,0,0,58,58,115,,,100,1,59,316,1.798349501,-1.736645926,116,380.6566895,381.1574972,380.6566895,381.1574972,82.31292517,1574198035,1574198037,2.867080927,47,103,13,13,1574198032,1574198035,,,NC,1,21,M,Undergrad,2019_Nov_19_1308,AdjustExp1,3.1.5,59.68189514,Experiment
79,Stimuli/Morph79.JPG,Stimuli/Morph79.png,Stimuli/BlurLevel5/BlurEditedMorph79,Stimuli/BlurLevel5/BlurEditedMorph79.png,Stimuli/BlurLevel5/NumberedMorphs/BlurEditedMorph79.png,Stimuli/BlurLevel5/OriginalBlur/BlurEditedMorph79.png,Stimuli/BlurMorphTrio/EditedMorph79.png,020239right.gif,Stimuli/normal_thumbnails/79right.gif,0,0,0,0,0,59,59,78,,,12,1,60,72,0.772542486,2.377641291,79,386.0131627,386.5067796,386.0131627,386.5067796,89.11564626,1574198040,1574198041,1.099988937,98,87,-8,-8,1574198038,1574198040,,,NC,1,21,M,Undergrad,2019_Nov_19_1308,AdjustExp1,3.1.5,59.68189514,Experiment
55,Stimuli/Morph55.JPG,Stimuli/Morph55.png,Stimuli/BlurLevel5/BlurEditedMorph55,Stimuli/BlurLevel5/BlurEditedMorph55.png,Stimuli/BlurLevel5/NumberedMorphs/BlurEditedMorph55.png,Stimuli/BlurLevel5/OriginalBlur/BlurEditedMorph55.png,Stimuli/BlurMorphTrio/EditedMorph55.png,010151right.gif,Stimuli/normal_thumbnails/55right.gif,0,0,0,0,0,60,60,54,,,33,1,61,266,-0.174391184,-2.493910126,55,389.6074828,390.1073215,389.6074828,390.1073215,85.03401361,1574198043,1574198047,3.016021967,120,66,-11,-11,1574198041,1574198043,,,NC,1,21,M,Undergrad,2019_Nov_19_1308,AdjustExp1,3.1.5,59.68189514,Experiment
4,Stimuli/Morph4.JPG,Stimuli/Morph4.png,Stimuli/BlurLevel5/BlurEditedMorph4,Stimuli/BlurLevel5/BlurEditedMorph4.png,Stimuli/BlurLevel5/NumberedMorphs/BlurEditedMorph4.png,Stimuli/BlurLevel5/OriginalBlur/BlurEditedMorph4.png,Stimuli/BlurMorphTrio/EditedMorph4.png,010010right.gif,Stimuli/normal_thumbnails/4right.gif,0,0,0,0,0,61,61,3,,,78,1,62,210,-2.165063509,-1.25,4,395.0564307,395.5574521,395.0564307,395.5574521,91.83673469,1574198049,1574198056,6.649357796,121,10,-6,-6,1574198047,1574198049,,,NC,1,21,M,Undergrad,2019_Nov_19_1308,AdjustExp1,3.1.5,59.68189514,Experiment
126,Stimuli/Morph126.JPG,Stimuli/Morph126.png,Stimuli/BlurLevel5/BlurEditedMorph126,Stimuli/BlurLevel5/BlurEditedMorph126.png,Stimuli/BlurLevel5/NumberedMorphs/BlurEditedMorph126.png,Stimuli/BlurLevel5/OriginalBlur/BlurEditedMorph126.png,Stimuli/BlurMorphTrio/EditedMorph126.png,None,None,0,0,0,0,0,62,62,125,,,92,1,63,295,1.056545654,-2.265769468,126,404.8564947,405.3571955,404.8564947,405.3571955,98.63945578,1574198059,1574198061,2.317352057,93,125,1,1,1574198056,1574198059,,,NC,1,21,M,Undergrad,2019_Nov_19_1308,AdjustExp1,3.1.5,59.68189514,Experiment
59,Stimuli/Morph59.JPG,Stimuli/Morph59.png,Stimuli/BlurLevel5/BlurEditedMorph59,Stimuli/BlurLevel5/BlurEditedMorph59.png,Stimuli/BlurLevel5/NumberedMorphs/BlurEditedMorph59.png,Stimuli/BlurLevel5/OriginalBlur/BlurEditedMorph59.png,Stimuli/BlurMorphTrio/EditedMorph59.png,010160right.gif,Stimuli/normal_thumbnails/59right.gif,0,0,0,0,0,63,63,58,,,47,1,64,293,0.976827821,-2.301262134,59,410.1228265,410.6230312,410.1228265,410.6230312,98.63945578,1574198064,1574198066,1.566988945,37,60,-1,-1,1574198061,1574198064,,,NC,1,21,M,Undergrad,2019_Nov_19_1308,AdjustExp1,3.1.5,59.68189514,Experiment
81,Stimuli/Morph81.JPG,Stimuli/Morph81.png,Stimuli/BlurLevel5/BlurEditedMorph81,Stimuli/BlurLevel5/BlurEditedMorph81.png,Stimuli/BlurLevel5/NumberedMorphs/BlurEditedMorph81.png,Stimuli/BlurLevel5/OriginalBlur/BlurEditedMorph81.png,Stimuli/BlurMorphTrio/EditedMorph81.png,020245right.gif,Stimuli/normal_thumbnails/81right.gif,0,0,0,0,0,64,64,80,,,85,1,65,140,-1.915111108,1.606969024,81,414.1729127,414.6737407,414.1729127,414.6737407,90.47619048,1574198068,1574198070,1.582839727,94,88,-7,-7,1574198066,1574198068,,,NC,1,21,M,Undergrad,2019_Nov_19_1308,AdjustExp1,3.1.5,59.68189514,Experiment
34,Stimuli/Morph34.JPG,Stimuli/Morph34.png,Stimuli/BlurLevel5/BlurEditedMorph34,Stimuli/BlurLevel5/BlurEditedMorph34.png,Stimuli/BlurLevel5/NumberedMorphs/BlurEditedMorph34.png,Stimuli/BlurLevel5/OriginalBlur/BlurEditedMorph34.png,Stimuli/BlurMorphTrio/EditedMorph34.png,010090right.gif,Stimuli/normal_thumbnails/34right.gif,0,0,0,0,0,65,65,33,,,19,1,66,154,-2.246985116,1.095927867,34,418.7578352,419.2557353,418.7578352,419.2557353,95.91836735,1574198073,1574198075,2.766625166,109,37,-3,-3,1574198070,1574198073,,,NC,1,21,M,Undergrad,2019_Nov_19_1308,AdjustExp1,3.1.5,59.68189514,Experiment
22,Stimuli/Morph22.JPG,Stimuli/Morph22.png,Stimuli/BlurLevel5/BlurEditedMorph22,Stimuli/BlurLevel5/BlurEditedMorph22.png,Stimuli/BlurLevel5/NumberedMorphs/BlurEditedMorph22.png,Stimuli/BlurLevel5/OriginalBlur/BlurEditedMorph22.png,Stimuli/BlurMorphTrio/EditedMorph22.png,010055right.gif,Stimuli/normal_thumbnails/22right.gif,0,0,0,0,0,66,66,21,,,51,1,67,122,-1.324798161,2.12012024,22,424.3731488,424.873324,424.3731488,424.873324,98.63945578,1574198078,1574198081,2.283369303,23,21,1,1,1574198076,1574198078,,,NC,1,21,M,Undergrad,2019_Nov_19_1308,AdjustExp1,3.1.5,59.68189514,Experiment
132,Stimuli/Morph132.JPG,Stimuli/Morph132.png,Stimuli/BlurLevel5/BlurEditedMorph132,Stimuli/BlurLevel5/BlurEditedMorph132.png,Stimuli/BlurLevel5/NumberedMorphs/BlurEditedMorph132.png,Stimuli/BlurLevel5/OriginalBlur/BlurEditedMorph132.png,Stimuli/BlurMorphTrio/EditedMorph132.png,None,None,0,0,0,0,0,67,67,131,,,4,1,68,253,-0.730929262,-2.39076189,132,429.5233836,430.0233459,429.5233836,430.0233459,91.83673469,1574198083,1574198085,1.100190878,138,138,-6,-6,1574198081,1574198083,,,NC,1,21,M,Undergrad,2019_Nov_19_1308,AdjustExp1,3.1.5,59.68189514,Experiment
93,Stimuli/Morph93.JPG,Stimuli/Morph93.png,Stimuli/BlurLevel5/BlurEditedMorph93,Stimuli/BlurLevel5/BlurEditedMorph93.png,Stimuli/BlurLevel5/NumberedMorphs/BlurEditedMorph93.png,Stimuli/BlurLevel5/OriginalBlur/BlurEditedMorph93.png,Stimuli/BlurMorphTrio/EditedMorph93.png,020280right.gif,Stimuli/normal_thumbnails/93right.gif,0,0,0,0,0,68,68,92,,,59,1,69,78,0.519779227,2.445369002,93,432.9564313,433.456899,432.9564313,433.456899,89.11564626,1574198087,1574198091,4.016940117,49,101,-8,-8,1574198085,1574198087,,,NC,1,21,M,Undergrad,2019_Nov_19_1308,AdjustExp1,3.1.5,59.68189514,Experiment
43,Stimuli/Morph43.JPG,Stimuli/Morph43.png,Stimuli/BlurLevel5/BlurEditedMorph43,Stimuli/BlurLevel5/BlurEditedMorph43.png,Stimuli/BlurLevel5/NumberedMorphs/BlurEditedMorph43.png,Stimuli/BlurLevel5/OriginalBlur/BlurEditedMorph43.png,Stimuli/BlurMorphTrio/EditedMorph43.png,010124right.gif,Stimuli/normal_thumbnails/43right.gif,0,0,0,0,0,69,69,42,,,37,1,70,148,-2.12012024,1.324798161,43,439.6922716,440.190218,439.6922716,440.190218,100,1574198094,1574198097,3.233763933,84,43,0,0,1574198091,1574198094,,,NC,1,21,M,Undergrad,2019_Nov_19_1308,AdjustExp1,3.1.5,59.68189514,Experiment
144,Stimuli/Morph144.JPG,Stimuli/Morph144.png,Stimuli/BlurLevel5/BlurEditedMorph144,Stimuli/BlurLevel5/BlurEditedMorph144.png,Stimuli/BlurLevel5/NumberedMorphs/BlurEditedMorph144.png,Stimuli/BlurLevel5/OriginalBlur/BlurEditedMorph144.png,Stimuli/BlurMorphTrio/EditedMorph144.png,None,None,0,0,0,0,0,70,70,143,,,60,1,71,324,2.022542486,-1.469463131,144,445.3899119,445.889087,445.3899119,445.889087,93.19727891,1574198099,1574198104,5.199595213,17,2,142,-5,1574198097,1574198099,,,NC,1,21,M,Undergrad,2019_Nov_19_1308,AdjustExp1,3.1.5,59.68189514,Experiment
78,Stimuli/Morph78.JPG,Stimuli/Morph78.png,Stimuli/BlurLevel5/BlurEditedMorph78,Stimuli/BlurLevel5/BlurEditedMorph78.png,Stimuli/BlurLevel5/NumberedMorphs/BlurEditedMorph78.png,Stimuli/BlurLevel5/OriginalBlur/BlurEditedMorph78.png,Stimuli/BlurMorphTrio/EditedMorph78.png,020238right.gif,Stimuli/normal_thumbnails/78right.gif,0,0,0,0,0,71,71,77,,,41,1,72,351,2.469220851,-0.391086163,78,452.9582156,453.4561914,452.9582156,453.4561914,94.55782313,1574198107,1574198110,3.632981062,48,82,-4,-4,1574198105,1574198107,,,NC,1,21,M,Undergrad,2019_Nov_19_1308,AdjustExp1,3.1.5,59.68189514,Experiment
49,Stimuli/Morph49.JPG,Stimuli/Morph49.png,Stimuli/BlurLevel5/BlurEditedMorph49,Stimuli/BlurLevel5/BlurEditedMorph49.png,Stimuli/BlurLevel5/NumberedMorphs/BlurEditedMorph49.png,Stimuli/BlurLevel5/OriginalBlur/BlurEditedMorph49.png,Stimuli/BlurMorphTrio/EditedMorph49.png,010135right.gif,Stimuli/normal_thumbnails/49right.gif,0,0,0,0,0,72,72,48,,,79,1,73,168,-2.445369002,0.519779227,49,459.0559972,459.5564383,459.0559972,459.5564383,100,1574198113,1574198115,2.267511845,130,49,0,0,1574198111,1574198113,,,NC,1,21,M,Undergrad,2019_Nov_19_1308,AdjustExp1,3.1.5,59.68189514,Experiment
62,Stimuli/Morph62.JPG,Stimuli/Morph62.png,Stimuli/BlurLevel5/BlurEditedMorph62,Stimuli/BlurLevel5/BlurEditedMorph62.png,Stimuli/BlurLevel5/NumberedMorphs/BlurEditedMorph62.png,Stimuli/BlurLevel5/OriginalBlur/BlurEditedMorph62.png,Stimuli/BlurMorphTrio/EditedMorph62.png,020205right.gif,Stimuli/normal_thumbnails/62right.gif,0,0,0,0,0,73,73,61,,,68,1,74,18,2.377641291,0.772542486,62,464.0558908,464.55587,464.0558908,464.55587,93.19727891,1574198118,1574198121,3.050481081,76,67,-5,-5,1574198115,1574198118,,,NC,1,21,M,Undergrad,2019_Nov_19_1308,AdjustExp1,3.1.5,59.68189514,Experiment
119,Stimuli/Morph119.JPG,Stimuli/Morph119.png,Stimuli/BlurLevel5/BlurEditedMorph119,Stimuli/BlurLevel5/BlurEditedMorph119.png,Stimuli/BlurLevel5/NumberedMorphs/BlurEditedMorph119.png,Stimuli/BlurLevel5/OriginalBlur/BlurEditedMorph119.png,Stimuli/BlurMorphTrio/EditedMorph119.png,None,None,0,0,0,0,0,74,74,118,,,73,1,75,242,-1.173678907,-2.207368982,119,469.6223345,470.1226651,469.6223345,470.1226651,56.46258503,1574198124,1574198127,3.716526031,97,87,32,32,1574198121,1574198123,,,NC,1,21,M,Undergrad,2019_Nov_19_1308,AdjustExp1,3.1.5,59.68189514,Experiment
114,Stimuli/Morph114.JPG,Stimuli/Morph114.png,Stimuli/BlurLevel5/BlurEditedMorph114,Stimuli/BlurLevel5/BlurEditedMorph114.png,Stimuli/BlurLevel5/NumberedMorphs/BlurEditedMorph114.png,Stimuli/BlurLevel5/OriginalBlur/BlurEditedMorph114.png,Stimuli/BlurMorphTrio/EditedMorph114.png,None,None,0,0,0,0,0,75,75,113,,,83,1,76,271,0.043631016,-2.499619238,114,476.0758669,476.5717995,476.0758669,476.5717995,82.31292517,1574198130,1574198132,2.450028896,41,101,13,13,1574198127,1574198130,,,NC,1,21,M,Undergrad,2019_Nov_19_1308,AdjustExp1,3.1.5,59.68189514,Experiment
16,Stimuli/Morph16.JPG,Stimuli/Morph16.png,Stimuli/BlurLevel5/BlurEditedMorph16,Stimuli/BlurLevel5/BlurEditedMorph16.png,Stimuli/BlurLevel5/NumberedMorphs/BlurEditedMorph16.png,Stimuli/BlurLevel5/OriginalBlur/BlurEditedMorph16.png,Stimuli/BlurMorphTrio/EditedMorph16.png,010034right.gif,Stimuli/normal_thumbnails/16right.gif,0,0,0,0,0,76,76,15,,,91,1,77,52,1.539153688,1.970026884,16,481.3225624,481.8224182,481.3225624,481.8224182,87.75510204,1574198135,1574198138,3.250076056,28,25,-9,-9,1574198133,1574198135,,,NC,1,21,M,Undergrad,2019_Nov_19_1308,AdjustExp1,3.1.5,59.68189514,Experiment
143,Stimuli/Morph143.JPG,Stimuli/Morph143.png,Stimuli/BlurLevel5/BlurEditedMorph143,Stimuli/BlurLevel5/BlurEditedMorph143.png,Stimuli/BlurLevel5/NumberedMorphs/BlurEditedMorph143.png,Stimuli/BlurLevel5/OriginalBlur/BlurEditedMorph143.png,Stimuli/BlurMorphTrio/EditedMorph143.png,None,None,0,0,0,0,0,77,77,142,,,56,1,78,244,-1.095927867,-2.246985116,143,487.4580473,487.9559619,487.4580473,487.9559619,76.8707483,1574198141,1574198147,5.56611681,97,126,17,17,1574198139,1574198141,,,NC,1,21,M,Undergrad,2019_Nov_19_1308,AdjustExp1,3.1.5,59.68189514,Experiment
123,Stimuli/Morph123.JPG,Stimuli/Morph123.png,Stimuli/BlurLevel5/BlurEditedMorph123,Stimuli/BlurLevel5/BlurEditedMorph123.png,Stimuli/BlurLevel5/NumberedMorphs/BlurEditedMorph123.png,Stimuli/BlurLevel5/OriginalBlur/BlurEditedMorph123.png,Stimuli/BlurMorphTrio/EditedMorph123.png,None,None,0,0,0,0,0,78,78,122,,,48,1,79,94,-0.174391184,2.493910126,123,495.455429,495.9557429,495.455429,495.9557429,95.91836735,1574198149,1574198151,1.39977169,100,120,3,3,1574198147,1574198149,,,NC,1,21,M,Undergrad,2019_Nov_19_1308,AdjustExp1,3.1.5,59.68189514,Experiment
89,Stimuli/Morph89.JPG,Stimuli/Morph89.png,Stimuli/BlurLevel5/BlurEditedMorph89,Stimuli/BlurLevel5/BlurEditedMorph89.png,Stimuli/BlurLevel5/NumberedMorphs/BlurEditedMorph89.png,Stimuli/BlurLevel5/OriginalBlur/BlurEditedMorph89.png,Stimuli/BlurMorphTrio/EditedMorph89.png,020273right.gif,Stimuli/normal_thumbnails/89right.gif,0,0,0,0,0,79,79,88,,,16,1,80,7,2.481365379,0.304673359,89,499.6713514,500.1719777,499.6713514,500.1719777,94.55782313,1574198154,1574198156,2.516968012,40,93,-4,-4,1574198151,1574198154,,,NC,1,21,M,Undergrad,2019_Nov_19_1308,AdjustExp1,3.1.5,59.68189514,Experiment
54,Stimuli/Morph54.JPG,Stimuli/Morph54.png,Stimuli/BlurLevel5/BlurEditedMorph54,Stimuli/BlurLevel5/BlurEditedMorph54.png,Stimuli/BlurLevel5/NumberedMorphs/BlurEditedMorph54.png,Stimuli/BlurLevel5/OriginalBlur/BlurEditedMorph54.png,Stimuli/BlurMorphTrio/EditedMorph54.png,010150right.gif,Stimuli/normal_thumbnails/54right.gif,0,0,0,0,0,80,80,53,,,69,1,81,202,-2.317959636,-0.936516484,54,504.6559782,505.1551233,504.6559782,505.1551233,91.83673469,1574198159,1574198162,3.151199102,79,60,-6,-6,1574198156,1574198159,,,NC,1,21,M,Undergrad,2019_Nov_19_1308,AdjustExp1,3.1.5,59.68189514,Experiment
86,Stimuli/Morph86.JPG,Stimuli/Morph86.png,Stimuli/BlurLevel5/BlurEditedMorph86,Stimuli/BlurLevel5/BlurEditedMorph86.png,Stimuli/BlurLevel5/NumberedMorphs/BlurEditedMorph86.png,Stimuli/BlurLevel5/OriginalBlur/BlurEditedMorph86.png,Stimuli/BlurMorphTrio/EditedMorph86.png,020266right.gif,Stimuli/normal_thumbnails/86right.gif,0,0,0,0,0,81,81,85,,,92,1,82,79,0.477022488,2.454067959,86,510.7116338,511.2049438,510.7116338,511.2049438,94.55782313,1574198165,1574198169,3.98406601,147,82,4,4,1574198162,1574198165,,,NC,1,21,M,Undergrad,2019_Nov_19_1308,AdjustExp1,3.1.5,59.68189514,Experiment
94,Stimuli/Morph94.JPG,Stimuli/Morph94.png,Stimuli/BlurLevel5/BlurEditedMorph94,Stimuli/BlurLevel5/BlurEditedMorph94.png,Stimuli/BlurLevel5/NumberedMorphs/BlurEditedMorph94.png,Stimuli/BlurLevel5/OriginalBlur/BlurEditedMorph94.png,Stimuli/BlurMorphTrio/EditedMorph94.png,020286right.gif,Stimuli/normal_thumbnails/94right.gif,0,0,0,0,0,82,82,93,,,35,1,83,5,2.490486745,0.217889357,94,517.2931203,517.7886586,517.2931203,517.7886586,94.55782313,1574198171,1574198174,2.999363661,54,90,4,4,1574198169,1574198171,,,NC,1,21,M,Undergrad,2019_Nov_19_1308,AdjustExp1,3.1.5,59.68189514,Experiment
5,Stimuli/Morph5.JPG,Stimuli/Morph5.png,Stimuli/BlurLevel5/BlurEditedMorph5,Stimuli/BlurLevel5/BlurEditedMorph5.png,Stimuli/BlurLevel5/NumberedMorphs/BlurEditedMorph5.png,Stimuli/BlurLevel5/OriginalBlur/BlurEditedMorph5.png,Stimuli/BlurMorphTrio/EditedMorph5.png,010011right.gif,Stimuli/normal_thumbnails/5right.gif,0,0,0,0,0,83,83,4,,,46,1,84,218,-1.970026884,-1.539153688,5,522.756308,523.2556003,522.756308,523.2556003,59.18367347,1574198177,1574198178,0.883707047,122,122,-117,30,1574198174,1574198177,,,NC,1,21,M,Undergrad,2019_Nov_19_1308,AdjustExp1,3.1.5,59.68189514,Experiment
18,Stimuli/Morph18.JPG,Stimuli/Morph18.png,Stimuli/BlurLevel5/BlurEditedMorph18,Stimuli/BlurLevel5/BlurEditedMorph18.png,Stimuli/BlurLevel5/NumberedMorphs/BlurEditedMorph18.png,Stimuli/BlurLevel5/OriginalBlur/BlurEditedMorph18.png,Stimuli/BlurMorphTrio/EditedMorph18.png,010039right.gif,Stimuli/normal_thumbnails/18right.gif,0,0,0,0,0,84,84,17,,,40,1,85,239,-1.287595187,-2.142918252,18,526.3717602,526.8719847,526.3717602,526.8719847,97.27891156,1574198180,1574198184,3.483105183,62,20,-2,-2,1574198178,1574198180,,,NC,1,21,M,Undergrad,2019_Nov_19_1308,AdjustExp1,3.1.5,59.68189514,Experiment
120,Stimuli/Morph120.JPG,Stimuli/Morph120.png,Stimuli/BlurLevel5/BlurEditedMorph120,Stimuli/BlurLevel5/BlurEditedMorph120.png,Stimuli/BlurLevel5/NumberedMorphs/BlurEditedMorph120.png,Stimuli/BlurLevel5/OriginalBlur/BlurEditedMorph120.png,Stimuli/BlurMorphTrio/EditedMorph120.png,None,None,1,0,1,0,0,0,0,119,,,99,2,1,127,-1.504537558,1.996588775,120,568.7234235,569.2214723,568.7234235,569.2214723,95.91836735,1574198223,1574198226,2.983026266,57,123,-3,-3,1574198221,1574198223,space,36.44792687,NC,1,21,M,Undergrad,2019_Nov_19_1308,AdjustExp1,3.1.5,59.68189514,Experiment
83,Stimuli/Morph83.JPG,Stimuli/Morph83.png,Stimuli/BlurLevel5/BlurEditedMorph83,Stimuli/BlurLevel5/BlurEditedMorph83.png,Stimuli/BlurLevel5/NumberedMorphs/BlurEditedMorph83.png,Stimuli/BlurLevel5/OriginalBlur/BlurEditedMorph83.png,Stimuli/BlurMorphTrio/EditedMorph83.png,020259right.gif,Stimuli/normal_thumbnails/83right.gif,1,0,1,0,0,1,1,82,,,36,2,2,145,-2.047880111,1.433941091,83,574.1706444,574.6712952,574.1706444,574.6712952,95.91836735,1574198228,1574198230,1.783380032,94,80,3,3,1574198226,1574198228,,,NC,1,21,M,Undergrad,2019_Nov_19_1308,AdjustExp1,3.1.5,59.68189514,Experiment
15,Stimuli/Morph15.JPG,Stimuli/Morph15.png,Stimuli/BlurLevel5/BlurEditedMorph15,Stimuli/BlurLevel5/BlurEditedMorph15.png,Stimuli/BlurLevel5/NumberedMorphs/BlurEditedMorph15.png,Stimuli/BlurLevel5/OriginalBlur/BlurEditedMorph15.png,Stimuli/BlurMorphTrio/EditedMorph15.png,010031right.gif,Stimuli/normal_thumbnails/15right.gif,1,0,1,0,0,2,2,14,,,1,2,3,217,-1.996588775,-1.504537558,15,577.909392,578.4045143,577.909392,578.4045143,100,1574198232,1574198234,2.033498049,137,15,0,0,1574198230,1574198232,,,NC,1,21,M,Undergrad,2019_Nov_19_1308,AdjustExp1,3.1.5,59.68189514,Experiment
107,Stimuli/Morph107.JPG,Stimuli/Morph107.png,Stimuli/BlurLevel5/BlurEditedMorph107,Stimuli/BlurLevel5/BlurEditedMorph107.png,Stimuli/BlurLevel5/NumberedMorphs/BlurEditedMorph107.png,Stimuli/BlurLevel5/OriginalBlur/BlurEditedMorph107.png,Stimuli/BlurMorphTrio/EditedMorph107.png,None,None,1,0,1,0,0,3,3,106,,,34,2,4,315,1.767766953,-1.767766953,107,582.7376734,583.2377668,582.7376734,583.2377668,87.75510204,1574198237,1574198238,1.233060837,2,116,-9,-9,1574198234,1574198237,,,NC,1,21,M,Undergrad,2019_Nov_19_1308,AdjustExp1,3.1.5,59.68189514,Experiment
32,Stimuli/Morph32.JPG,Stimuli/Morph32.png,Stimuli/BlurLevel5/BlurEditedMorph32,Stimuli/BlurLevel5/BlurEditedMorph32.png,Stimuli/BlurLevel5/NumberedMorphs/BlurEditedMorph32.png,Stimuli/BlurLevel5/OriginalBlur/BlurEditedMorph32.png,Stimuli/BlurMorphTrio/EditedMorph32.png,010080right.gif,Stimuli/normal_thumbnails/32right.gif,1,0,1,0,0,4,4,31,,,88,2,5,83,0.304673359,2.481365379,32,586.5923432,587.0876793,586.5923432,587.0876793,89.11564626,1574198240,1574198244,3.14977169,4,24,8,8,1574198238,1574198240,,,NC,1,21,M,Undergrad,2019_Nov_19_1308,AdjustExp1,3.1.5,59.68189514,Experiment
39,Stimuli/Morph39.JPG,Stimuli/Morph39.png,Stimuli/BlurLevel5/BlurEditedMorph39,Stimuli/BlurLevel5/BlurEditedMorph39.png,Stimuli/BlurLevel5/NumberedMorphs/BlurEditedMorph39.png,Stimuli/BlurLevel5/OriginalBlur/BlurEditedMorph39.png,Stimuli/BlurMorphTrio/EditedMorph39.png,010109right.gif,Stimuli/normal_thumbnails/39right.gif,1,0,1,0,0,5,5,38,,,55,2,6,88,0.087248742,2.498477068,39,592.0391181,592.5376153,592.0391181,592.5376153,100,1574198246,1574198248,2.499995708,106,39,0,0,1574198244,1574198246,,,NC,1,21,M,Undergrad,2019_Nov_19_1308,AdjustExp1,3.1.5,59.68189514,Experiment
112,Stimuli/Morph112.JPG,Stimuli/Morph112.png,Stimuli/BlurLevel5/BlurEditedMorph112,Stimuli/BlurLevel5/BlurEditedMorph112.png,Stimuli/BlurLevel5/NumberedMorphs/BlurEditedMorph112.png,Stimuli/BlurLevel5/OriginalBlur/BlurEditedMorph112.png,Stimuli/BlurMorphTrio/EditedMorph112.png,None,None,1,0,1,0,0,6,6,111,,,14,2,7,346,2.425739316,-0.604804739,112,597.0226857,597.5207574,597.0226857,597.5207574,100,1574198251,1574198252,1.249634981,128,112,0,0,1574198249,1574198251,,,NC,1,21,M,Undergrad,2019_Nov_19_1308,AdjustExp1,3.1.5,59.68189514,Experiment
138,Stimuli/Morph138.JPG,Stimuli/Morph138.png,Stimuli/BlurLevel5/BlurEditedMorph138,Stimuli/BlurLevel5/BlurEditedMorph138.png,Stimuli/BlurLevel5/NumberedMorphs/BlurEditedMorph138.png,Stimuli/BlurLevel5/OriginalBlur/BlurEditedMorph138.png,Stimuli/BlurMorphTrio/EditedMorph138.png,None,None,1,0,1,0,0,7,7,137,,,94,2,8,176,-2.493910126,0.174391184,138,601.2396676,601.7376173,601.2396676,601.7376173,56.46258503,1574198255,1574198257,2.000428915,83,106,32,32,1574198252,1574198255,,,NC,1,21,M,Undergrad,2019_Nov_19_1308,AdjustExp1,3.1.5,59.68189514,Experiment
121,Stimuli/Morph121.JPG,Stimuli/Morph121.png,Stimuli/BlurLevel5/BlurEditedMorph121,Stimuli/BlurLevel5/BlurEditedMorph121.png,Stimuli/BlurLevel5/NumberedMorphs/BlurEditedMorph121.png,Stimuli/BlurLevel5/OriginalBlur/BlurEditedMorph121.png,Stimuli/BlurMorphTrio/EditedMorph121.png,None,None,1,0,1,0,0,8,8,120,,,77,2,9,91,-0.043631016,2.499619238,121,605.9068132,606.4036927,605.9068132,606.4036927,75.51020408,1574198260,1574198263,2.866773844,59,103,18,18,1574198257,1574198260,,,NC,1,21,M,Undergrad,2019_Nov_19_1308,AdjustExp1,3.1.5,59.68189514,Experiment
76,Stimuli/Morph76.JPG,Stimuli/Morph76.png,Stimuli/BlurLevel5/BlurEditedMorph76,Stimuli/BlurLevel5/BlurEditedMorph76.png,Stimuli/BlurLevel5/NumberedMorphs/BlurEditedMorph76.png,Stimuli/BlurLevel5/OriginalBlur/BlurEditedMorph76.png,Stimuli/BlurMorphTrio/EditedMorph76.png,020234right.gif,Stimuli/normal_thumbnails/76right.gif,1,0,1,0,0,9,9,75,,,96,2,10,4,2.493910126,0.174391184,76,611.770147,612.2708601,611.770147,612.2708601,91.83673469,1574198266,1574198268,2.366917849,22,82,-6,-6,1574198263,1574198266,,,NC,1,21,M,Undergrad,2019_Nov_19_1308,AdjustExp1,3.1.5,59.68189514,Experiment
2,Stimuli/Morph2.JPG,Stimuli/Morph2.png,Stimuli/BlurLevel5/BlurEditedMorph2,Stimuli/BlurLevel5/BlurEditedMorph2.png,Stimuli/BlurLevel5/NumberedMorphs/BlurEditedMorph2.png,Stimuli/BlurLevel5/OriginalBlur/BlurEditedMorph2.png,Stimuli/BlurMorphTrio/EditedMorph2.png,010006right.gif,Stimuli/normal_thumbnails/2right.gif,1,0,1,0,0,10,10,1,,,96,2,11,14,2.425739316,0.604804739,2,616.6936403,617.1875195,616.6936403,617.1875195,75.51020408,1574198271,1574198273,2.866509914,35,131,-129,18,1574198268,1574198271,,,NC,1,21,M,Undergrad,2019_Nov_19_1308,AdjustExp1,3.1.5,59.68189514,Experiment
59,Stimuli/Morph59.JPG,Stimuli/Morph59.png,Stimuli/BlurLevel5/BlurEditedMorph59,Stimuli/BlurLevel5/BlurEditedMorph59.png,Stimuli/BlurLevel5/NumberedMorphs/BlurEditedMorph59.png,Stimuli/BlurLevel5/OriginalBlur/BlurEditedMorph59.png,Stimuli/BlurMorphTrio/EditedMorph59.png,010160right.gif,Stimuli/normal_thumbnails/59right.gif,1,0,1,0,0,11,11,58,,,87,2,12,115,-1.056545654,2.265769468,59,622.1367943,622.6373278,622.1367943,622.6373278,86.39455782,1574198276,1574198277,1.282629967,58,49,10,10,1574198274,1574198276,,,NC,1,21,M,Undergrad,2019_Nov_19_1308,AdjustExp1,3.1.5,59.68189514,Experiment
130,Stimuli/Morph130.JPG,Stimuli/Morph130.png,Stimuli/BlurLevel5/BlurEditedMorph130,Stimuli/BlurLevel5/BlurEditedMorph130.png,Stimuli/BlurLevel5/NumberedMorphs/BlurEditedMorph130.png,Stimuli/BlurLevel5/OriginalBlur/BlurEditedMorph130.png,Stimuli/BlurMorphTrio/EditedMorph130.png,None,None,1,0,1,0,0,12,12,129,,,96,2,13,160,-2.349231552,0.855050358,130,626.0887977,626.5873921,626.0887977,626.5873921,76.8707483,1574198280,1574198282,1.765941381,37,113,17,17,1574198278,1574198280,,,NC,1,21,M,Undergrad,2019_Nov_19_1308,AdjustExp1,3.1.5,59.68189514,Experiment
37,Stimuli/Morph37.JPG,Stimuli/Morph37.png,Stimuli/BlurLevel5/BlurEditedMorph37,Stimuli/BlurLevel5/BlurEditedMorph37.png,Stimuli/BlurLevel5/NumberedMorphs/BlurEditedMorph37.png,Stimuli/BlurLevel5/OriginalBlur/BlurEditedMorph37.png,Stimuli/BlurMorphTrio/EditedMorph37.png,010097right.gif,Stimuli/normal_thumbnails/37right.gif,1,0,1,0,0,13,13,36,,,2,2,14,117,-1.134976249,2.22751631,37,630.203931,630.7034597,630.203931,630.7034597,91.83673469,1574198284,1574198287,3.199114084,59,43,-6,-6,1574198282,1574198284,,,NC,1,21,M,Undergrad,2019_Nov_19_1308,AdjustExp1,3.1.5,59.68189514,Experiment
29,Stimuli/Morph29.JPG,Stimuli/Morph29.png,Stimuli/BlurLevel5/BlurEditedMorph29,Stimuli/BlurLevel5/BlurEditedMorph29.png,Stimuli/BlurLevel5/NumberedMorphs/BlurEditedMorph29.png,Stimuli/BlurLevel5/OriginalBlur/BlurEditedMorph29.png,Stimuli/BlurMorphTrio/EditedMorph29.png,010074right.gif,Stimuli/normal_thumbnails/29right.gif,1,0,1,0,0,14,14,28,,,49,2,15,286,0.68909339,-2.40315424,29,635.8374224,636.3372747,635.8374224,636.3372747,98.63945578,1574198290,1574198291,1.78366518,53,30,-1,-1,1574198288,1574198290,,,NC,1,21,M,Undergrad,2019_Nov_19_1308,AdjustExp1,3.1.5,59.68189514,Experiment
66,Stimuli/Morph66.JPG,Stimuli/Morph66.png,Stimuli/BlurLevel5/BlurEditedMorph66,Stimuli/BlurLevel5/BlurEditedMorph66.png,Stimuli/BlurLevel5/NumberedMorphs/BlurEditedMorph66.png,Stimuli/BlurLevel5/OriginalBlur/BlurEditedMorph66.png,Stimuli/BlurMorphTrio/EditedMorph66.png,020212right.gif,Stimuli/normal_thumbnails/66right.gif,1,0,1,0,0,15,15,65,,,13,2,16,217,-1.996588775,-1.504537558,66,640.5545961,641.0541278,640.5545961,641.0541278,90.47619048,1574198294,1574198298,3.399266958,90,59,7,7,1574198292,1574198294,,,NC,1,21,M,Undergrad,2019_Nov_19_1308,AdjustExp1,3.1.5,59.68189514,Experiment
84,Stimuli/Morph84.JPG,Stimuli/Morph84.png,Stimuli/BlurLevel5/BlurEditedMorph84,Stimuli/BlurLevel5/BlurEditedMorph84.png,Stimuli/BlurLevel5/NumberedMorphs/BlurEditedMorph84.png,Stimuli/BlurLevel5/OriginalBlur/BlurEditedMorph84.png,Stimuli/BlurMorphTrio/EditedMorph84.png,020261right.gif,Stimuli/normal_thumbnails/84right.gif,1,0,1,0,0,16,16,83,,,44,2,17,305,1.433941091,-2.047880111,84,646.6872692,647.2028574,646.6872692,647.2028574,97.27891156,1574198301,1574198302,1.899900913,80,86,-2,-2,1574198298,1574198301,,,NC,1,21,M,Undergrad,2019_Nov_19_1308,AdjustExp1,3.1.5,59.68189514,Experiment
18,Stimuli/Morph18.JPG,Stimuli/Morph18.png,Stimuli/BlurLevel5/BlurEditedMorph18,Stimuli/BlurLevel5/BlurEditedMorph18.png,Stimuli/BlurLevel5/NumberedMorphs/BlurEditedMorph18.png,Stimuli/BlurLevel5/OriginalBlur/BlurEditedMorph18.png,Stimuli/BlurMorphTrio/EditedMorph18.png,010039right.gif,Stimuli/normal_thumbnails/18right.gif,1,0,1,0,0,17,17,17,,,58,2,18,109,-0.813920386,2.363796439,18,651.1703904,651.670599,651.1703904,651.670599,93.19727891,1574198305,1574198306,1.450163126,23,23,-5,-5,1574198303,1574198305,,,NC,1,21,M,Undergrad,2019_Nov_19_1308,AdjustExp1,3.1.5,59.68189514,Experiment
55,Stimuli/Morph55.JPG,Stimuli/Morph55.png,Stimuli/BlurLevel5/BlurEditedMorph55,Stimuli/BlurLevel5/BlurEditedMorph55.png,Stimuli/BlurLevel5/NumberedMorphs/BlurEditedMorph55.png,Stimuli/BlurLevel5/OriginalBlur/BlurEditedMorph55.png,Stimuli/BlurMorphTrio/EditedMorph55.png,010151right.gif,Stimuli/normal_thumbnails/55right.gif,1,0,1,0,0,18,18,54,,,32,2,19,244,-1.095927867,-2.246985116,55,655.408003,655.9030188,655.408003,655.9030188,97.27891156,1574198309,1574198312,2.533364058,145,53,2,2,1574198307,1574198309,,,NC,1,21,M,Undergrad,2019_Nov_19_1308,AdjustExp1,3.1.5,59.68189514,Experiment
8,Stimuli/Morph8.JPG,Stimuli/Morph8.png,Stimuli/BlurLevel5/BlurEditedMorph8,Stimuli/BlurLevel5/BlurEditedMorph8.png,Stimuli/BlurLevel5/NumberedMorphs/BlurEditedMorph8.png,Stimuli/BlurLevel5/OriginalBlur/BlurEditedMorph8.png,Stimuli/BlurMorphTrio/EditedMorph8.png,010014right.gif,Stimuli/normal_thumbnails/8right.gif,1,0,1,0,0,19,19,7,,,52,2,20,36,2.022542486,1.469463131,8,660.5398455,661.0361378,660.5398455,661.0361378,95.91836735,1574198314,1574198316,1.682564735,32,5,3,3,1574198312,1574198314,,,NC,1,21,M,Undergrad,2019_Nov_19_1308,AdjustExp1,3.1.5,59.68189514,Experiment
96,Stimuli/Morph96.JPG,Stimuli/Morph96.png,Stimuli/BlurLevel5/BlurEditedMorph96,Stimuli/BlurLevel5/BlurEditedMorph96.png,Stimuli/BlurLevel5/NumberedMorphs/BlurEditedMorph96.png,Stimuli/BlurLevel5/OriginalBlur/BlurEditedMorph96.png,Stimuli/BlurMorphTrio/EditedMorph96.png,020292right.gif,Stimuli/normal_thumbnails/96right.gif,1,0,1,0,0,20,20,95,,,86,2,21,20,2.349231552,0.855050358,96,664.9700844,665.4700645,664.9700844,665.4700645,94.55782313,1574198319,1574198321,2.167340994,75,92,4,4,1574198316,1574198319,,,NC,1,21,M,Undergrad,2019_Nov_19_1308,AdjustExp1,3.1.5,59.68189514,Experiment
28,Stimuli/Morph28.JPG,Stimuli/Morph28.png,Stimuli/BlurLevel5/BlurEditedMorph28,Stimuli/BlurLevel5/BlurEditedMorph28.png,Stimuli/BlurLevel5/NumberedMorphs/BlurEditedMorph28.png,Stimuli/BlurLevel5/OriginalBlur/BlurEditedMorph28.png,Stimuli/BlurMorphTrio/EditedMorph28.png,010073right.gif,Stimuli/normal_thumbnails/28right.gif,1,0,1,0,0,21,21,27,,,50,2,22,236,-1.397982259,-2.072593931,28,669.5377161,670.036902,669.5377161,670.036902,89.11564626,1574198323,1574198325,1.983175755,56,36,-8,-8,1574198321,1574198323,,,NC,1,21,M,Undergrad,2019_Nov_19_1308,AdjustExp1,3.1.5,59.68189514,Experiment
9,Stimuli/Morph9.JPG,Stimuli/Morph9.png,Stimuli/BlurLevel5/BlurEditedMorph9,Stimuli/BlurLevel5/BlurEditedMorph9.png,Stimuli/BlurLevel5/NumberedMorphs/BlurEditedMorph9.png,Stimuli/BlurLevel5/OriginalBlur/BlurEditedMorph9.png,Stimuli/BlurMorphTrio/EditedMorph9.png,010015right.gif,Stimuli/normal_thumbnails/9right.gif,1,0,1,0,0,22,22,8,,,48,2,23,211,-2.142918252,-1.287595187,9,674.1202611,674.6203478,674.1202611,674.6203478,76.8707483,1574198328,1574198333,4.866048098,107,139,-130,17,1574198326,1574198328,,,NC,1,21,M,Undergrad,2019_Nov_19_1308,AdjustExp1,3.1.5,59.68189514,Experiment
108,Stimuli/Morph108.JPG,Stimuli/Morph108.png,Stimuli/BlurLevel5/BlurEditedMorph108,Stimuli/BlurLevel5/BlurEditedMorph108.png,Stimuli/BlurLevel5/NumberedMorphs/BlurEditedMorph108.png,Stimuli/BlurLevel5/OriginalBlur/BlurEditedMorph108.png,Stimuli/BlurMorphTrio/EditedMorph108.png,None,None,1,0,1,0,0,23,23,107,,,97,2,24,160,-2.349231552,0.855050358,108,681.4891733,681.9867226,681.4891733,681.9867226,82.31292517,1574198335,1574198339,3.48433876,16,121,-13,-13,1574198333,1574198335,,,NC,1,21,M,Undergrad,2019_Nov_19_1308,AdjustExp1,3.1.5,59.68189514,Experiment
91,Stimuli/Morph91.JPG,Stimuli/Morph91.png,Stimuli/BlurLevel5/BlurEditedMorph91,Stimuli/BlurLevel5/BlurEditedMorph91.png,Stimuli/BlurLevel5/NumberedMorphs/BlurEditedMorph91.png,Stimuli/BlurLevel5/OriginalBlur/BlurEditedMorph91.png,Stimuli/BlurMorphTrio/EditedMorph91.png,020276right.gif,Stimuli/normal_thumbnails/91right.gif,1,0,1,0,0,24,24,90,,,93,2,25,47,1.7049959,1.828384254,91,687.8528391,688.3533572,687.8528391,688.3533572,98.63945578,1574198342,1574198344,2.48331213,86,90,1,1,1574198339,1574198342,,,NC,1,21,M,Undergrad,2019_Nov_19_1308,AdjustExp1,3.1.5,59.68189514,Experiment
133,Stimuli/Morph133.JPG,Stimuli/Morph133.png,Stimuli/BlurLevel5/BlurEditedMorph133,Stimuli/BlurLevel5/BlurEditedMorph133.png,Stimuli/BlurLevel5/NumberedMorphs/BlurEditedMorph133.png,Stimuli/BlurLevel5/OriginalBlur/BlurEditedMorph133.png,Stimuli/BlurMorphTrio/EditedMorph133.png,None,None,1,0,1,0,0,25,25,132,,,62,2,26,83,0.304673359,2.481365379,133,693.0590166,693.5525879,693.0590166,693.5525879,56.46258503,1574198347,1574198349,2.032597303,80,101,32,32,1574198344,1574198347,,,NC,1,21,M,Undergrad,2019_Nov_19_1308,AdjustExp1,3.1.5,59.68189514,Experiment
58,Stimuli/Morph58.JPG,Stimuli/Morph58.png,Stimuli/BlurLevel5/BlurEditedMorph58,Stimuli/BlurLevel5/BlurEditedMorph58.png,Stimuli/BlurLevel5/NumberedMorphs/BlurEditedMorph58.png,Stimuli/BlurLevel5/OriginalBlur/BlurEditedMorph58.png,Stimuli/BlurMorphTrio/EditedMorph58.png,010159right.gif,Stimuli/normal_thumbnails/58right.gif,1,0,1,0,0,26,26,57,,,85,2,27,121,-1.287595187,2.142918252,58,697.3573025,697.8526889,697.3573025,697.8526889,90.47619048,1574198351,1574198354,2.283293009,95,51,7,7,1574198349,1574198351,,,NC,1,21,M,Undergrad,2019_Nov_19_1308,AdjustExp1,3.1.5,59.68189514,Experiment
35,Stimuli/Morph35.JPG,Stimuli/Morph35.png,Stimuli/BlurLevel5/BlurEditedMorph35,Stimuli/BlurLevel5/BlurEditedMorph35.png,Stimuli/BlurLevel5/NumberedMorphs/BlurEditedMorph35.png,Stimuli/BlurLevel5/OriginalBlur/BlurEditedMorph35.png,Stimuli/BlurMorphTrio/EditedMorph35.png,010094right.gif,Stimuli/normal_thumbnails/35right.gif,1,0,1,0,0,27,27,34,,,38,2,28,74,0.68909339,2.40315424,35,702.1189207,702.6198168,702.1189207,702.6198168,97.27891156,1574198356,1574198360,3.648938179,80,33,2,2,1574198354,1574198356,,,NC,1,21,M,Undergrad,2019_Nov_19_1308,AdjustExp1,3.1.5,59.68189514,Experiment
104,Stimuli/Morph104.JPG,Stimuli/Morph104.png,Stimuli/BlurLevel5/BlurEditedMorph104,Stimuli/BlurLevel5/BlurEditedMorph104.png,Stimuli/BlurLevel5/NumberedMorphs/BlurEditedMorph104.png,Stimuli/BlurLevel5/OriginalBlur/BlurEditedMorph104.png,Stimuli/BlurMorphTrio/EditedMorph104.png,None,None,1,0,1,0,0,28,28,103,,,18,2,29,334,2.246985116,-1.095927867,104,708.0700051,708.5697741,708.0700051,708.5697741,93.19727891,1574198362,1574198363,1.067224979,99,99,5,5,1574198360,1574198362,,,NC,1,21,M,Undergrad,2019_Nov_19_1308,AdjustExp1,3.1.5,59.68189514,Experiment
80,Stimuli/Morph80.JPG,Stimuli/Morph80.png,Stimuli/BlurLevel5/BlurEditedMorph80,Stimuli/BlurLevel5/BlurEditedMorph80.png,Stimuli/BlurLevel5/NumberedMorphs/BlurEditedMorph80.png,Stimuli/BlurLevel5/OriginalBlur/BlurEditedMorph80.png,Stimuli/BlurMorphTrio/EditedMorph80.png,020240right.gif,Stimuli/normal_thumbnails/80right.gif,1,0,1,0,0,29,29,79,,,83,2,30,236,-1.397982259,-2.072593931,80,711.8188106,712.3194914,711.8188106,712.3194914,89.11564626,1574198366,1574198369,3.166864157,42,88,-8,-8,1574198363,1574198366,,,NC,1,21,M,Undergrad,2019_Nov_19_1308,AdjustExp1,3.1.5,59.68189514,Experiment
25,Stimuli/Morph25.JPG,Stimuli/Morph25.png,Stimuli/BlurLevel5/BlurEditedMorph25,Stimuli/BlurLevel5/BlurEditedMorph25.png,Stimuli/BlurLevel5/NumberedMorphs/BlurEditedMorph25.png,Stimuli/BlurLevel5/OriginalBlur/BlurEditedMorph25.png,Stimuli/BlurMorphTrio/EditedMorph25.png,010069right.gif,Stimuli/normal_thumbnails/25right.gif,1,0,1,0,0,30,30,24,,,38,2,31,132,-1.672826516,1.857862064,25,717.3882273,717.8863088,717.3882273,717.8863088,98.63945578,1574198371,1574198374,2.799482107,9,26,-1,-1,1574198369,1574198371,,,NC,1,21,M,Undergrad,2019_Nov_19_1308,AdjustExp1,3.1.5,59.68189514,Experiment
1,Stimuli/Morph1.JPG,Stimuli/Morph1.png,Stimuli/BlurLevel5/BlurEditedMorph1,Stimuli/BlurLevel5/BlurEditedMorph1.png,Stimuli/BlurLevel5/NumberedMorphs/BlurEditedMorph1.png,Stimuli/BlurLevel5/OriginalBlur/BlurEditedMorph1.png,Stimuli/BlurMorphTrio/EditedMorph1.png,010003right.gif,Stimuli/normal_thumbnails/1right.gif,1,0,1,0,0,31,31,0,,,7,2,32,205,-2.265769468,-1.056545654,1,722.6860563,723.1852779,722.6860563,723.1852779,89.11564626,1574198377,1574198383,6.53322196,44,140,-139,8,1574198374,1574198377,,,NC,1,21,M,Undergrad,2019_Nov_19_1308,AdjustExp1,3.1.5,59.68189514,Experiment
124,Stimuli/Morph124.JPG,Stimuli/Morph124.png,Stimuli/BlurLevel5/BlurEditedMorph124,Stimuli/BlurLevel5/BlurEditedMorph124.png,Stimuli/BlurLevel5/NumberedMorphs/BlurEditedMorph124.png,Stimuli/BlurLevel5/OriginalBlur/BlurEditedMorph124.png,Stimuli/BlurMorphTrio/EditedMorph124.png,None,None,1,0,1,0,0,32,32,123,,,75,2,33,268,-0.087248742,-2.498477068,124,731.6527663,732.1525798,731.6527663,732.1525798,86.39455782,1574198386,1574198387,1.200652122,137,134,-10,-10,1574198383,1574198386,,,NC,1,21,M,Undergrad,2019_Nov_19_1308,AdjustExp1,3.1.5,59.68189514,Experiment
103,Stimuli/Morph103.JPG,Stimuli/Morph103.png,Stimuli/BlurLevel5/BlurEditedMorph103,Stimuli/BlurLevel5/BlurEditedMorph103.png,Stimuli/BlurLevel5/NumberedMorphs/BlurEditedMorph103.png,Stimuli/BlurLevel5/OriginalBlur/BlurEditedMorph103.png,Stimuli/BlurMorphTrio/EditedMorph103.png,None,None,1,0,1,0,0,33,33,102,,,85,2,34,334,2.246985116,-1.095927867,103,735.4188699,735.9193371,735.4188699,735.9193371,97.27891156,1574198389,1574198391,2.116461039,26,101,2,2,1574198387,1574198389,,,NC,1,21,M,Undergrad,2019_Nov_19_1308,AdjustExp1,3.1.5,59.68189514,Experiment
43,Stimuli/Morph43.JPG,Stimuli/Morph43.png,Stimuli/BlurLevel5/BlurEditedMorph43,Stimuli/BlurLevel5/BlurEditedMorph43.png,Stimuli/BlurLevel5/NumberedMorphs/BlurEditedMorph43.png,Stimuli/BlurLevel5/OriginalBlur/BlurEditedMorph43.png,Stimuli/BlurMorphTrio/EditedMorph43.png,010124right.gif,Stimuli/normal_thumbnails/43right.gif,1,0,1,0,0,34,34,42,,,85,2,35,74,0.68909339,2.40315424,43,739.7019305,740.2026709,739.7019305,740.2026709,94.55782313,1574198394,1574198395,1.015568972,47,47,-4,-4,1574198392,1574198394,,,NC,1,21,M,Undergrad,2019_Nov_19_1308,AdjustExp1,3.1.5,59.68189514,Experiment
51,Stimuli/Morph51.JPG,Stimuli/Morph51.png,Stimuli/BlurLevel5/BlurEditedMorph51,Stimuli/BlurLevel5/BlurEditedMorph51.png,Stimuli/BlurLevel5/NumberedMorphs/BlurEditedMorph51.png,Stimuli/BlurLevel5/OriginalBlur/BlurEditedMorph51.png,Stimuli/BlurMorphTrio/EditedMorph51.png,010146right.gif,Stimuli/normal_thumbnails/51right.gif,1,0,1,0,0,35,35,50,,,95,2,36,82,0.347932752,2.475670172,51,743.5397971,744.1689852,743.5397971,744.1689852,98.63945578,1574198398,1574198401,3.216520071,13,50,1,1,1574198395,1574198398,,,NC,1,21,M,Undergrad,2019_Nov_19_1308,AdjustExp1,3.1.5,59.68189514,Experiment
113,Stimuli/Morph113.JPG,Stimuli/Morph113.png,Stimuli/BlurLevel5/BlurEditedMorph113,Stimuli/BlurLevel5/BlurEditedMorph113.png,Stimuli/BlurLevel5/NumberedMorphs/BlurEditedMorph113.png,Stimuli/BlurLevel5/OriginalBlur/BlurEditedMorph113.png,Stimuli/BlurMorphTrio/EditedMorph113.png,None,None,1,0,1,0,0,36,36,112,,,75,2,37,345,2.414814566,-0.647047613,113,749.0688933,749.5689722,749.0688933,749.5689722,87.75510204,1574198403,1574198406,2.664964914,22,122,-9,-9,1574198401,1574198403,,,NC,1,21,M,Undergrad,2019_Nov_19_1308,AdjustExp1,3.1.5,59.68189514,Experiment
100,Stimuli/Morph100.JPG,Stimuli/Morph100.png,Stimuli/BlurLevel5/BlurEditedMorph100,Stimuli/BlurLevel5/BlurEditedMorph100.png,Stimuli/BlurLevel5/NumberedMorphs/BlurEditedMorph100.png,Stimuli/BlurLevel5/OriginalBlur/BlurEditedMorph100.png,Stimuli/BlurMorphTrio/EditedMorph100.png,020297right.gif,Stimuli/normal_thumbnails/100right.gif,1,0,1,0,0,37,37,99,,,80,2,38,162,-2.377641291,0.772542486,100,753.9854033,754.4854274,753.9854033,754.4854274,97.27891156,1574198408,1574198410,1.84900403,16,98,2,2,1574198406,1574198408,,,NC,1,21,M,Undergrad,2019_Nov_19_1308,AdjustExp1,3.1.5,59.68189514,Experiment
23,Stimuli/Morph23.JPG,Stimuli/Morph23.png,Stimuli/BlurLevel5/BlurEditedMorph23,Stimuli/BlurLevel5/BlurEditedMorph23.png,Stimuli/BlurLevel5/NumberedMorphs/BlurEditedMorph23.png,Stimuli/BlurLevel5/OriginalBlur/BlurEditedMorph23.png,Stimuli/BlurMorphTrio/EditedMorph23.png,010063right.gif,Stimuli/normal_thumbnails/23right.gif,1,0,1,0,0,38,38,22,,,46,2,39,6,2.486304738,0.261321158,23,758.0709155,758.5684151,758.0709155,758.5684151,95.91836735,1574198412,1574198414,1.850100994,20,20,3,3,1574198410,1574198412,,,NC,1,21,M,Undergrad,2019_Nov_19_1308,AdjustExp1,3.1.5,59.68189514,Experiment
26,Stimuli/Morph26.JPG,Stimuli/Morph26.png,Stimuli/BlurLevel5/BlurEditedMorph26,Stimuli/BlurLevel5/BlurEditedMorph26.png,Stimuli/BlurLevel5/NumberedMorphs/BlurEditedMorph26.png,Stimuli/BlurLevel5/OriginalBlur/BlurEditedMorph26.png,Stimuli/BlurMorphTrio/EditedMorph26.png,010070right.gif,Stimuli/normal_thumbnails/26right.gif,1,0,1,0,0,39,39,25,,,31,2,40,241,-1.212024051,-2.186549268,26,762.5513012,763.0518108,762.5513012,763.0518108,93.19727891,1574198416,1574198419,2.666707993,103,21,5,5,1574198414,1574198416,,,NC,1,21,M,Undergrad,2019_Nov_19_1308,AdjustExp1,3.1.5,59.68189514,Experiment
140,Stimuli/Morph140.JPG,Stimuli/Morph140.png,Stimuli/BlurLevel5/BlurEditedMorph140,Stimuli/BlurLevel5/BlurEditedMorph140.png,Stimuli/BlurLevel5/NumberedMorphs/BlurEditedMorph140.png,Stimuli/BlurLevel5/OriginalBlur/BlurEditedMorph140.png,Stimuli/BlurMorphTrio/EditedMorph140.png,None,None,1,0,1,0,0,40,40,139,,,68,2,41,133,-1.7049959,1.828384254,140,767.8744938,768.3686745,767.8744938,768.3686745,98.63945578,1574198422,1574198426,4.14999795,141,139,1,1,1574198419,1574198422,,,NC,1,21,M,Undergrad,2019_Nov_19_1308,AdjustExp1,3.1.5,59.68189514,Experiment
45,Stimuli/Morph45.JPG,Stimuli/Morph45.png,Stimuli/BlurLevel5/BlurEditedMorph45,Stimuli/BlurLevel5/BlurEditedMorph45.png,Stimuli/BlurLevel5/NumberedMorphs/BlurEditedMorph45.png,Stimuli/BlurLevel5/OriginalBlur/BlurEditedMorph45.png,Stimuli/BlurMorphTrio/EditedMorph45.png,010127right.gif,Stimuli/normal_thumbnails/45right.gif,1,0,1,0,0,41,41,44,,,92,2,42,28,2.207368982,1.173678907,45,775.0885129,775.5848561,775.0885129,775.5848561,91.83673469,1574198429,1574198431,2.198556185,70,51,-6,-6,1574198426,1574198429,,,NC,1,21,M,Undergrad,2019_Nov_19_1308,AdjustExp1,3.1.5,59.68189514,Experiment
75,Stimuli/Morph75.JPG,Stimuli/Morph75.png,Stimuli/BlurLevel5/BlurEditedMorph75,Stimuli/BlurLevel5/BlurEditedMorph75.png,Stimuli/BlurLevel5/NumberedMorphs/BlurEditedMorph75.png,Stimuli/BlurLevel5/OriginalBlur/BlurEditedMorph75.png,Stimuli/BlurMorphTrio/EditedMorph75.png,020233right.gif,Stimuli/normal_thumbnails/75right.gif,1,0,1,0,0,42,42,74,,,30,2,43,140,-1.915111108,1.606969024,75,780.0196287,780.5181684,780.0196287,780.5181684,86.39455782,1574198434,1574198437,2.900090933,144,65,10,10,1574198431,1574198434,,,NC,1,21,M,Undergrad,2019_Nov_19_1308,AdjustExp1,3.1.5,59.68189514,Experiment
48,Stimuli/Morph48.JPG,Stimuli/Morph48.png,Stimuli/BlurLevel5/BlurEditedMorph48,Stimuli/BlurLevel5/BlurEditedMorph48.png,Stimuli/BlurLevel5/NumberedMorphs/BlurEditedMorph48.png,Stimuli/BlurLevel5/OriginalBlur/BlurEditedMorph48.png,Stimuli/BlurMorphTrio/EditedMorph48.png,010131right.gif,Stimuli/normal_thumbnails/48right.gif,1,0,1,0,0,43,43,47,,,60,2,44,199,-2.363796439,-0.813920386,48,785.8521013,786.3522029,785.8521013,786.3522029,86.39455782,1574198440,1574198442,1.833278894,116,58,-10,-10,1574198437,1574198440,,,NC,1,21,M,Undergrad,2019_Nov_19_1308,AdjustExp1,3.1.5,59.68189514,Experiment
49,Stimuli/Morph49.JPG,Stimuli/Morph49.png,Stimuli/BlurLevel5/BlurEditedMorph49,Stimuli/BlurLevel5/BlurEditedMorph49.png,Stimuli/BlurLevel5/NumberedMorphs/BlurEditedMorph49.png,Stimuli/BlurLevel5/OriginalBlur/BlurEditedMorph49.png,Stimuli/BlurMorphTrio/EditedMorph49.png,010135right.gif,Stimuli/normal_thumbnails/49right.gif,1,0,1,0,0,44,44,48,,,1,2,45,3,2.496573837,0.130839891,49,789.6349186,790.1354002,789.6349186,790.1354002,95.91836735,1574198444,1574198445,1.016719103,57,52,-3,-3,1574198442,1574198443,,,NC,1,21,M,Undergrad,2019_Nov_19_1308,AdjustExp1,3.1.5,59.68189514,Experiment
50,Stimuli/Morph50.JPG,Stimuli/Morph50.png,Stimuli/BlurLevel5/BlurEditedMorph50,Stimuli/BlurLevel5/BlurEditedMorph50.png,Stimuli/BlurLevel5/NumberedMorphs/BlurEditedMorph50.png,Stimuli/BlurLevel5/OriginalBlur/BlurEditedMorph50.png,Stimuli/BlurMorphTrio/EditedMorph50.png,010142right.gif,Stimuli/normal_thumbnails/50right.gif,1,0,1,0,0,45,45,49,,,55,2,46,248,-0.936516484,-2.317959636,50,793.1350897,793.6352134,793.1350897,793.6352134,87.75510204,1574198447,1574198449,1.682388067,74,59,-9,-9,1574198445,1574198447,,,NC,1,21,M,Undergrad,2019_Nov_19_1308,AdjustExp1,3.1.5,59.68189514,Experiment
90,Stimuli/Morph90.JPG,Stimuli/Morph90.png,Stimuli/BlurLevel5/BlurEditedMorph90,Stimuli/BlurLevel5/BlurEditedMorph90.png,Stimuli/BlurLevel5/NumberedMorphs/BlurEditedMorph90.png,Stimuli/BlurLevel5/OriginalBlur/BlurEditedMorph90.png,Stimuli/BlurMorphTrio/EditedMorph90.png,020275right.gif,Stimuli/normal_thumbnails/90right.gif,1,0,1,0,0,46,46,89,,,7,2,47,93,-0.130839891,2.496573837,90,797.4519396,797.9514087,797.4519396,797.9514087,93.19727891,1574198451,1574198453,1.749513865,80,85,5,5,1574198449,1574198451,,,NC,1,21,M,Undergrad,2019_Nov_19_1308,AdjustExp1,3.1.5,59.68189514,Experiment
116,Stimuli/Morph116.JPG,Stimuli/Morph116.png,Stimuli/BlurLevel5/BlurEditedMorph116,Stimuli/BlurLevel5/BlurEditedMorph116.png,Stimuli/BlurLevel5/NumberedMorphs/BlurEditedMorph116.png,Stimuli/BlurLevel5/OriginalBlur/BlurEditedMorph116.png,Stimuli/BlurMorphTrio/EditedMorph116.png,None,None,1,0,1,0,0,47,47,115,,,36,2,48,211,-2.142918252,-1.287595187,116,801.7015716,802.2014875,801.7015716,802.2014875,97.27891156,1574198456,1574198456,0.681674004,118,118,-2,-2,1574198453,1574198456,,,NC,1,21,M,Undergrad,2019_Nov_19_1308,AdjustExp1,3.1.5,59.68189514,Experiment
92,Stimuli/Morph92.JPG,Stimuli/Morph92.png,Stimuli/BlurLevel5/BlurEditedMorph92,Stimuli/BlurLevel5/BlurEditedMorph92.png,Stimuli/BlurLevel5/NumberedMorphs/BlurEditedMorph92.png,Stimuli/BlurLevel5/OriginalBlur/BlurEditedMorph92.png,Stimuli/BlurMorphTrio/EditedMorph92.png,020277right.gif,Stimuli/normal_thumbnails/92right.gif,1,0,1,0,0,48,48,91,,,69,2,49,333,2.22751631,-1.134976249,92,805.0017851,805.501535,805.0017851,805.501535,89.11564626,1574198459,1574198460,0.716461897,100,100,-8,-8,1574198457,1574198459,,,NC,1,21,M,Undergrad,2019_Nov_19_1308,AdjustExp1,3.1.5,59.68189514,Experiment
22,Stimuli/Morph22.JPG,Stimuli/Morph22.png,Stimuli/BlurLevel5/BlurEditedMorph22,Stimuli/BlurLevel5/BlurEditedMorph22.png,Stimuli/BlurLevel5/NumberedMorphs/BlurEditedMorph22.png,Stimuli/BlurLevel5/OriginalBlur/BlurEditedMorph22.png,Stimuli/BlurMorphTrio/EditedMorph22.png,010055right.gif,Stimuli/normal_thumbnails/22right.gif,1,0,1,0,0,49,49,21,,,92,2,50,179,-2.499619238,0.043631016,22,808.6079245,809.1015164,808.6079245,809.1015164,87.75510204,1574198462,1574198464,1.332901955,31,31,-9,-9,1574198460,1574198462,,,NC,1,21,M,Undergrad,2019_Nov_19_1308,AdjustExp1,3.1.5,59.68189514,Experiment
67,Stimuli/Morph67.JPG,Stimuli/Morph67.png,Stimuli/BlurLevel5/BlurEditedMorph67,Stimuli/BlurLevel5/BlurEditedMorph67.png,Stimuli/BlurLevel5/NumberedMorphs/BlurEditedMorph67.png,Stimuli/BlurLevel5/OriginalBlur/BlurEditedMorph67.png,Stimuli/BlurMorphTrio/EditedMorph67.png,020217right.gif,Stimuli/normal_thumbnails/67right.gif,1,0,1,0,0,50,50,66,,,43,2,51,359,2.499619238,-0.043631016,67,812.5007814,813.0013636,812.5007814,813.0013636,94.55782313,1574198466,1574198468,2.098954439,40,63,4,4,1574198464,1574198466,,,NC,1,21,M,Undergrad,2019_Nov_19_1308,AdjustExp1,3.1.5,59.68189514,Experiment
143,Stimuli/Morph143.JPG,Stimuli/Morph143.png,Stimuli/BlurLevel5/BlurEditedMorph143,Stimuli/BlurLevel5/BlurEditedMorph143.png,Stimuli/BlurLevel5/NumberedMorphs/BlurEditedMorph143.png,Stimuli/BlurLevel5/OriginalBlur/BlurEditedMorph143.png,Stimuli/BlurMorphTrio/EditedMorph143.png,None,None,1,0,1,0,0,51,51,142,,,43,2,52,35,2.047880111,1.433941091,143,816.7673485,817.2677932,816.7673485,817.2677932,87.75510204,1574198471,1574198473,2.567020893,104,134,9,9,1574198469,1574198471,,,NC,1,21,M,Undergrad,2019_Nov_19_1308,AdjustExp1,3.1.5,59.68189514,Experiment
3,Stimuli/Morph3.JPG,Stimuli/Morph3.png,Stimuli/BlurLevel5/BlurEditedMorph3,Stimuli/BlurLevel5/BlurEditedMorph3.png,Stimuli/BlurLevel5/NumberedMorphs/BlurEditedMorph3.png,Stimuli/BlurLevel5/OriginalBlur/BlurEditedMorph3.png,Stimuli/BlurMorphTrio/EditedMorph3.png,010009right.gif,Stimuli/normal_thumbnails/3right.gif,1,0,1,0,0,52,52,2,,,5,2,53,239,-1.287595187,-2.142918252,3,821.7849496,822.2848394,821.7849496,822.2848394,98.63945578,1574198476,1574198478,1.951088667,17,2,1,1,1574198473,1574198476,,,NC,1,21,M,Undergrad,2019_Nov_19_1308,AdjustExp1,3.1.5,59.68189514,Experiment
19,Stimuli/Morph19.JPG,Stimuli/Morph19.png,Stimuli/BlurLevel5/BlurEditedMorph19,Stimuli/BlurLevel5/BlurEditedMorph19.png,Stimuli/BlurLevel5/NumberedMorphs/BlurEditedMorph19.png,Stimuli/BlurLevel5/OriginalBlur/BlurEditedMorph19.png,Stimuli/BlurMorphTrio/EditedMorph19.png,010045right.gif,Stimuli/normal_thumbnails/19right.gif,1,0,1,0,0,53,53,18,,,94,2,54,320,1.915111108,-1.606969024,19,826.7183155,827.2179801,826.7183155,827.2179801,98.63945578,1574198481,1574198483,2.083960056,112,18,1,1,1574198478,1574198481,,,NC,1,21,M,Undergrad,2019_Nov_19_1308,AdjustExp1,3.1.5,59.68189514,Experiment
53,Stimuli/Morph53.JPG,Stimuli/Morph53.png,Stimuli/BlurLevel5/BlurEditedMorph53,Stimuli/BlurLevel5/BlurEditedMorph53.png,Stimuli/BlurLevel5/NumberedMorphs/BlurEditedMorph53.png,Stimuli/BlurLevel5/OriginalBlur/BlurEditedMorph53.png,Stimuli/BlurMorphTrio/EditedMorph53.png,010149right.gif,Stimuli/normal_thumbnails/53right.gif,1,0,1,0,0,54,54,52,,,52,2,55,111,-0.895919874,2.333951066,53,831.4005713,831.9013253,831.4005713,831.9013253,95.91836735,1574198485,1574198488,3.017246962,127,56,-3,-3,1574198483,1574198485,,,NC,1,21,M,Undergrad,2019_Nov_19_1308,AdjustExp1,3.1.5,59.68189514,Experiment
88,Stimuli/Morph88.JPG,Stimuli/Morph88.png,Stimuli/BlurLevel5/BlurEditedMorph88,Stimuli/BlurLevel5/BlurEditedMorph88.png,Stimuli/BlurLevel5/NumberedMorphs/BlurEditedMorph88.png,Stimuli/BlurLevel5/OriginalBlur/BlurEditedMorph88.png,Stimuli/BlurMorphTrio/EditedMorph88.png,020271right.gif,Stimuli/normal_thumbnails/88right.gif,1,0,1,0,0,55,55,87,,,23,2,56,285,0.647047613,-2.414814566,88,837.0049952,837.5008681,837.0049952,837.5008681,61.9047619,1574198491,1574198493,2.032716036,127,116,-28,-28,1574198489,1574198491,,,NC,1,21,M,Undergrad,2019_Nov_19_1308,AdjustExp1,3.1.5,59.68189514,Experiment
42,Stimuli/Morph42.JPG,Stimuli/Morph42.png,Stimuli/BlurLevel5/BlurEditedMorph42,Stimuli/BlurLevel5/BlurEditedMorph42.png,Stimuli/BlurLevel5/NumberedMorphs/BlurEditedMorph42.png,Stimuli/BlurLevel5/OriginalBlur/BlurEditedMorph42.png,Stimuli/BlurMorphTrio/EditedMorph42.png,010121right.gif,Stimuli/normal_thumbnails/42right.gif,1,0,1,0,0,56,56,41,,,40,2,57,58,1.324798161,2.12012024,42,841.8339609,842.3341605,841.8339609,842.3341605,86.39455782,1574198496,1574198496,0.682749987,52,52,-10,-10,1574198493,1574198496,,,NC,1,21,M,Undergrad,2019_Nov_19_1308,AdjustExp1,3.1.5,59.68189514,Experiment
73,Stimuli/Morph73.JPG,Stimuli/Morph73.png,Stimuli/BlurLevel5/BlurEditedMorph73,Stimuli/BlurLevel5/BlurEditedMorph73.png,Stimuli/BlurLevel5/NumberedMorphs/BlurEditedMorph73.png,Stimuli/BlurLevel5/OriginalBlur/BlurEditedMorph73.png,Stimuli/BlurMorphTrio/EditedMorph73.png,020230right.gif,Stimuli/normal_thumbnails/73right.gif,1,0,1,0,0,57,57,72,,,70,2,58,160,-2.349231552,0.855050358,73,844.9409222,845.4343901,844.9409222,845.4343901,97.27891156,1574198499,1574198501,2.249398947,88,71,2,2,1574198497,1574198499,,,NC,1,21,M,Undergrad,2019_Nov_19_1308,AdjustExp1,3.1.5,59.68189514,Experiment
82,Stimuli/Morph82.JPG,Stimuli/Morph82.png,Stimuli/BlurLevel5/BlurEditedMorph82,Stimuli/BlurLevel5/BlurEditedMorph82.png,Stimuli/BlurLevel5/NumberedMorphs/BlurEditedMorph82.png,Stimuli/BlurLevel5/OriginalBlur/BlurEditedMorph82.png,Stimuli/BlurMorphTrio/EditedMorph82.png,020247right.gif,Stimuli/normal_thumbnails/82right.gif,1,0,1,0,0,58,58,81,,,85,2,59,179,-2.499619238,0.043631016,82,849.7347302,850.2342391,849.7347302,850.2342391,98.63945578,1574198504,1574198506,2.03433013,113,81,1,1,1574198501,1574198504,,,NC,1,21,M,Undergrad,2019_Nov_19_1308,AdjustExp1,3.1.5,59.68189514,Experiment
64,Stimuli/Morph64.JPG,Stimuli/Morph64.png,Stimuli/BlurLevel5/BlurEditedMorph64,Stimuli/BlurLevel5/BlurEditedMorph64.png,Stimuli/BlurLevel5/NumberedMorphs/BlurEditedMorph64.png,Stimuli/BlurLevel5/OriginalBlur/BlurEditedMorph64.png,Stimuli/BlurMorphTrio/EditedMorph64.png,020208right.gif,Stimuli/normal_thumbnails/64right.gif,1,0,1,0,0,59,59,63,,,39,2,60,51,1.573300978,1.942864904,64,854.4897801,854.9843209,854.4897801,854.9843209,93.19727891,1574198508,1574198509,0.950706959,69,69,-5,-5,1574198506,1574198508,,,NC,1,21,M,Undergrad,2019_Nov_19_1308,AdjustExp1,3.1.5,59.68189514,Experiment
10,Stimuli/Morph10.JPG,Stimuli/Morph10.png,Stimuli/BlurLevel5/BlurEditedMorph10,Stimuli/BlurLevel5/BlurEditedMorph10.png,Stimuli/BlurLevel5/NumberedMorphs/BlurEditedMorph10.png,Stimuli/BlurLevel5/OriginalBlur/BlurEditedMorph10.png,Stimuli/BlurMorphTrio/EditedMorph10.png,010016right.gif,Stimuli/normal_thumbnails/10right.gif,1,0,1,0,0,60,60,9,,,24,2,61,181,-2.499619238,-0.043631016,10,858.0669177,858.5675437,858.0669177,858.5675437,74.14965986,1574198512,1574198513,1.083826303,138,138,-128,19,1574198510,1574198512,,,NC,1,21,M,Undergrad,2019_Nov_19_1308,AdjustExp1,3.1.5,59.68189514,Experiment
139,Stimuli/Morph139.JPG,Stimuli/Morph139.png,Stimuli/BlurLevel5/BlurEditedMorph139,Stimuli/BlurLevel5/BlurEditedMorph139.png,Stimuli/BlurLevel5/NumberedMorphs/BlurEditedMorph139.png,Stimuli/BlurLevel5/OriginalBlur/BlurEditedMorph139.png,Stimuli/BlurMorphTrio/EditedMorph139.png,None,None,1,0,1,0,0,61,61,138,,,15,2,62,57,1.361597588,2.09667642,139,861.6841767,862.1838142,861.6841767,862.1838142,90.47619048,1574198516,1574198516,0.616607904,146,146,-7,-7,1574198513,1574198516,,,NC,1,21,M,Undergrad,2019_Nov_19_1308,AdjustExp1,3.1.5,59.68189514,Experiment
62,Stimuli/Morph62.JPG,Stimuli/Morph62.png,Stimuli/BlurLevel5/BlurEditedMorph62,Stimuli/BlurLevel5/BlurEditedMorph62.png,Stimuli/BlurLevel5/NumberedMorphs/BlurEditedMorph62.png,Stimuli/BlurLevel5/OriginalBlur/BlurEditedMorph62.png,Stimuli/BlurMorphTrio/EditedMorph62.png,020205right.gif,Stimuli/normal_thumbnails/62right.gif,1,0,1,0,0,62,62,61,,,3,2,63,84,0.261321158,2.486304738,62,865.0035895,865.5010547,865.0035895,865.5010547,87.75510204,1574198519,1574198522,2.867211103,122,71,-9,-9,1574198517,1574198519,,,NC,1,21,M,Undergrad,2019_Nov_19_1308,AdjustExp1,3.1.5,59.68189514,Experiment
132,Stimuli/Morph132.JPG,Stimuli/Morph132.png,Stimuli/BlurLevel5/BlurEditedMorph132,Stimuli/BlurLevel5/BlurEditedMorph132.png,Stimuli/BlurLevel5/NumberedMorphs/BlurEditedMorph132.png,Stimuli/BlurLevel5/OriginalBlur/BlurEditedMorph132.png,Stimuli/BlurMorphTrio/EditedMorph132.png,None,None,1,0,1,0,0,63,63,131,,,81,2,64,295,1.056545654,-2.265769468,132,870.1024266,870.6005917,870.1024266,870.6005917,93.19727891,1574198524,1574198526,2.500771999,71,127,5,5,1574198522,1574198524,,,NC,1,21,M,Undergrad,2019_Nov_19_1308,AdjustExp1,3.1.5,59.68189514,Experiment
106,Stimuli/Morph106.JPG,Stimuli/Morph106.png,Stimuli/BlurLevel5/BlurEditedMorph106,Stimuli/BlurLevel5/BlurEditedMorph106.png,Stimuli/BlurLevel5/NumberedMorphs/BlurEditedMorph106.png,Stimuli/BlurLevel5/OriginalBlur/BlurEditedMorph106.png,Stimuli/BlurMorphTrio/EditedMorph106.png,None,None,1,0,1,0,0,64,64,105,,,85,2,65,141,-1.942864904,1.573300978,106,874.8221798,875.3174276,874.8221798,875.3174276,83.67346939,1574198529,1574198531,2.483191013,65,94,12,12,1574198527,1574198529,,,NC,1,21,M,Undergrad,2019_Nov_19_1308,AdjustExp1,3.1.5,59.68189514,Experiment
11,Stimuli/Morph11.JPG,Stimuli/Morph11.png,Stimuli/BlurLevel5/BlurEditedMorph11,Stimuli/BlurLevel5/BlurEditedMorph11.png,Stimuli/BlurLevel5/NumberedMorphs/BlurEditedMorph11.png,Stimuli/BlurLevel5/OriginalBlur/BlurEditedMorph11.png,Stimuli/BlurMorphTrio/EditedMorph11.png,010024right.gif,Stimuli/normal_thumbnails/11right.gif,1,0,1,0,0,65,65,10,,,73,2,66,230,-1.606969024,-1.915111108,11,879.6333463,880.1341467,879.6333463,880.1341467,98.63945578,1574198534,1574198535,1.752291918,20,10,1,1,1574198531,1574198533,,,NC,1,21,M,Undergrad,2019_Nov_19_1308,AdjustExp1,3.1.5,59.68189514,Experiment
54,Stimuli/Morph54.JPG,Stimuli/Morph54.png,Stimuli/BlurLevel5/BlurEditedMorph54,Stimuli/BlurLevel5/BlurEditedMorph54.png,Stimuli/BlurLevel5/NumberedMorphs/BlurEditedMorph54.png,Stimuli/BlurLevel5/OriginalBlur/BlurEditedMorph54.png,Stimuli/BlurMorphTrio/EditedMorph54.png,010150right.gif,Stimuli/normal_thumbnails/54right.gif,1,0,1,0,0,66,66,53,,,91,2,67,139,-1.886773951,1.640147572,54,884.1168967,884.6172978,884.1168967,884.6172978,95.91836735,1574198538,1574198540,2.082519054,146,51,3,3,1574198536,1574198538,,,NC,1,21,M,Undergrad,2019_Nov_19_1308,AdjustExp1,3.1.5,59.68189514,Experiment
117,Stimuli/Morph117.JPG,Stimuli/Morph117.png,Stimuli/BlurLevel5/BlurEditedMorph117,Stimuli/BlurLevel5/BlurEditedMorph117.png,Stimuli/BlurLevel5/NumberedMorphs/BlurEditedMorph117.png,Stimuli/BlurLevel5/OriginalBlur/BlurEditedMorph117.png,Stimuli/BlurMorphTrio/EditedMorph117.png,None,None,1,0,1,0,0,67,67,116,,,15,2,68,48,1.672826516,1.857862064,117,888.4887788,888.9833677,888.4887788,888.9833677,97.27891156,1574198542,1574198545,3.132889032,52,115,2,2,1574198540,1574198542,,,NC,1,21,M,Undergrad,2019_Nov_19_1308,AdjustExp1,3.1.5,59.68189514,Experiment
125,Stimuli/Morph125.JPG,Stimuli/Morph125.png,Stimuli/BlurLevel5/BlurEditedMorph125,Stimuli/BlurLevel5/BlurEditedMorph125.png,Stimuli/BlurLevel5/NumberedMorphs/BlurEditedMorph125.png,Stimuli/BlurLevel5/OriginalBlur/BlurEditedMorph125.png,Stimuli/BlurMorphTrio/EditedMorph125.png,None,None,1,0,1,0,0,68,68,124,,,21,2,69,30,2.165063509,1.25,125,893.9175539,894.4174173,893.9175539,894.4174173,67.34693878,1574198548,1574198550,2.549378157,75,101,24,24,1574198546,1574198548,,,NC,1,21,M,Undergrad,2019_Nov_19_1308,AdjustExp1,3.1.5,59.68189514,Experiment
4,Stimuli/Morph4.JPG,Stimuli/Morph4.png,Stimuli/BlurLevel5/BlurEditedMorph4,Stimuli/BlurLevel5/BlurEditedMorph4.png,Stimuli/BlurLevel5/NumberedMorphs/BlurEditedMorph4.png,Stimuli/BlurLevel5/OriginalBlur/BlurEditedMorph4.png,Stimuli/BlurMorphTrio/EditedMorph4.png,010010right.gif,Stimuli/normal_thumbnails/4right.gif,1,0,1,0,0,69,69,3,,,43,2,70,302,1.324798161,-2.12012024,4,899.1503849,899.64988,899.1503849,899.64988,68.70748299,1574198553,1574198554,1.216573,103,128,-124,23,1574198551,1574198553,,,NC,1,21,M,Undergrad,2019_Nov_19_1308,AdjustExp1,3.1.5,59.68189514,Experiment
33,Stimuli/Morph33.JPG,Stimuli/Morph33.png,Stimuli/BlurLevel5/BlurEditedMorph33,Stimuli/BlurLevel5/BlurEditedMorph33.png,Stimuli/BlurLevel5/NumberedMorphs/BlurEditedMorph33.png,Stimuli/BlurLevel5/OriginalBlur/BlurEditedMorph33.png,Stimuli/BlurMorphTrio/EditedMorph33.png,010089right.gif,Stimuli/normal_thumbnails/33right.gif,1,0,1,0,0,70,70,32,,,95,2,71,356,2.493910126,-0.174391184,33,903.3342963,903.8333758,903.3342963,903.8333758,98.63945578,1574198557,1574198560,3.067703009,51,34,-1,-1,1574198555,1574198557,,,NC,1,21,M,Undergrad,2019_Nov_19_1308,AdjustExp1,3.1.5,59.68189514,Experiment
60,Stimuli/Morph60.JPG,Stimuli/Morph60.png,Stimuli/BlurLevel5/BlurEditedMorph60,Stimuli/BlurLevel5/BlurEditedMorph60.png,Stimuli/BlurLevel5/NumberedMorphs/BlurEditedMorph60.png,Stimuli/BlurLevel5/OriginalBlur/BlurEditedMorph60.png,Stimuli/BlurMorphTrio/EditedMorph60.png,020200right.gif,Stimuli/normal_thumbnails/60right.gif,1,0,1,0,0,71,71,59,,,49,2,72,279,0.391086163,-2.469220851,60,909.1015475,909.6001514,909.1015475,909.6001514,97.27891156,1574198563,1574198565,2.29986167,86,62,-2,-2,1574198561,1574198563,,,NC,1,21,M,Undergrad,2019_Nov_19_1308,AdjustExp1,3.1.5,59.68189514,Experiment
127,Stimuli/Morph127.JPG,Stimuli/Morph127.png,Stimuli/BlurLevel5/BlurEditedMorph127,Stimuli/BlurLevel5/BlurEditedMorph127.png,Stimuli/BlurLevel5/NumberedMorphs/BlurEditedMorph127.png,Stimuli/BlurLevel5/OriginalBlur/BlurEditedMorph127.png,Stimuli/BlurMorphTrio/EditedMorph127.png,None,None,1,0,1,0,0,72,72,126,,,97,2,73,47,1.7049959,1.828384254,127,914.1828713,914.683315,914.1828713,914.683315,93.19727891,1574198568,1574198570,1.917497873,21,122,5,5,1574198566,1574198568,,,NC,1,21,M,Undergrad,2019_Nov_19_1308,AdjustExp1,3.1.5,59.68189514,Experiment
46,Stimuli/Morph46.JPG,Stimuli/Morph46.png,Stimuli/BlurLevel5/BlurEditedMorph46,Stimuli/BlurLevel5/BlurEditedMorph46.png,Stimuli/BlurLevel5/NumberedMorphs/BlurEditedMorph46.png,Stimuli/BlurLevel5/OriginalBlur/BlurEditedMorph46.png,Stimuli/BlurMorphTrio/EditedMorph46.png,010128right.gif,Stimuli/normal_thumbnails/46right.gif,1,0,1,0,0,73,73,45,,,95,2,74,263,-0.304673359,-2.481365379,46,918.5830189,919.0826243,918.5830189,919.0826243,86.39455782,1574198572,1574198575,2.416781187,54,56,-10,-10,1574198570,1574198572,,,NC,1,21,M,Undergrad,2019_Nov_19_1308,AdjustExp1,3.1.5,59.68189514,Experiment
111,Stimuli/Morph111.JPG,Stimuli/Morph111.png,Stimuli/BlurLevel5/BlurEditedMorph111,Stimuli/BlurLevel5/BlurEditedMorph111.png,Stimuli/BlurLevel5/NumberedMorphs/BlurEditedMorph111.png,Stimuli/BlurLevel5/OriginalBlur/BlurEditedMorph111.png,Stimuli/BlurMorphTrio/EditedMorph111.png,None,None,1,0,1,0,0,74,74,110,,,57,2,75,215,-2.047880111,-1.433941091,111,923.6327563,924.1334008,923.6327563,924.1334008,78.23129252,1574198578,1574198580,1.832863092,15,127,-16,-16,1574198575,1574198578,,,NC,1,21,M,Undergrad,2019_Nov_19_1308,AdjustExp1,3.1.5,59.68189514,Experiment
145,Stimuli/Morph145.JPG,Stimuli/Morph145.png,Stimuli/BlurLevel5/BlurEditedMorph145,Stimuli/BlurLevel5/BlurEditedMorph145.png,Stimuli/BlurLevel5/NumberedMorphs/BlurEditedMorph145.png,Stimuli/BlurLevel5/OriginalBlur/BlurEditedMorph145.png,Stimuli/BlurMorphTrio/EditedMorph145.png,None,None,1,0,1,0,0,75,75,144,,,73,2,76,262,-0.347932752,-2.475670172,145,927.9520135,928.4501239,927.9520135,928.4501239,98.63945578,1574198582,1574198585,2.75040102,47,144,1,1,1574198580,1574198582,,,NC,1,21,M,Undergrad,2019_Nov_19_1308,AdjustExp1,3.1.5,59.68189514,Experiment
87,Stimuli/Morph87.JPG,Stimuli/Morph87.png,Stimuli/BlurLevel5/BlurEditedMorph87,Stimuli/BlurLevel5/BlurEditedMorph87.png,Stimuli/BlurLevel5/NumberedMorphs/BlurEditedMorph87.png,Stimuli/BlurLevel5/OriginalBlur/BlurEditedMorph87.png,Stimuli/BlurMorphTrio/EditedMorph87.png,020270right.gif,Stimuli/normal_thumbnails/87right.gif,1,0,1,0,0,76,76,86,,,42,2,77,70,0.855050358,2.349231552,87,933.2867715,933.7832691,933.2867715,933.7832691,98.63945578,1574198587,1574198590,2.849899054,11,88,-1,-1,1574198585,1574198587,,,NC,1,21,M,Undergrad,2019_Nov_19_1308,AdjustExp1,3.1.5,59.68189514,Experiment
5,Stimuli/Morph5.JPG,Stimuli/Morph5.png,Stimuli/BlurLevel5/BlurEditedMorph5,Stimuli/BlurLevel5/BlurEditedMorph5.png,Stimuli/BlurLevel5/NumberedMorphs/BlurEditedMorph5.png,Stimuli/BlurLevel5/OriginalBlur/BlurEditedMorph5.png,Stimuli/BlurMorphTrio/EditedMorph5.png,010011right.gif,Stimuli/normal_thumbnails/5right.gif,1,0,1,0,0,77,77,4,,,55,2,78,265,-0.217889357,-2.490486745,5,938.7158173,939.216173,938.7158173,939.216173,93.19727891,1574198593,1574198594,1.698832989,17,147,-142,5,1574198590,1574198593,,,NC,1,21,M,Undergrad,2019_Nov_19_1308,AdjustExp1,3.1.5,59.68189514,Experiment
56,Stimuli/Morph56.JPG,Stimuli/Morph56.png,Stimuli/BlurLevel5/BlurEditedMorph56,Stimuli/BlurLevel5/BlurEditedMorph56.png,Stimuli/BlurLevel5/NumberedMorphs/BlurEditedMorph56.png,Stimuli/BlurLevel5/OriginalBlur/BlurEditedMorph56.png,Stimuli/BlurMorphTrio/EditedMorph56.png,010157right.gif,Stimuli/normal_thumbnails/56right.gif,1,0,1,0,0,78,78,55,,,44,2,79,232,-1.539153688,-1.970026884,56,943.1512147,943.6495724,943.1512147,943.6495724,95.91836735,1574198597,1574198599,1.850800753,138,53,3,3,1574198595,1574198597,,,NC,1,21,M,Undergrad,2019_Nov_19_1308,AdjustExp1,3.1.5,59.68189514,Experiment
7,Stimuli/Morph7.JPG,Stimuli/Morph7.png,Stimuli/BlurLevel5/BlurEditedMorph7,Stimuli/BlurLevel5/BlurEditedMorph7.png,Stimuli/BlurLevel5/NumberedMorphs/BlurEditedMorph7.png,Stimuli/BlurLevel5/OriginalBlur/BlurEditedMorph7.png,Stimuli/BlurMorphTrio/EditedMorph7.png,010013right.gif,Stimuli/normal_thumbnails/7right.gif,1,0,1,0,0,79,79,6,,,11,2,80,41,1.886773951,1.640147572,7,948.072409,948.5658495,948.072409,948.5658495,86.39455782,1574198602,1574198604,1.966221809,41,144,-137,10,1574198599,1574198602,,,NC,1,21,M,Undergrad,2019_Nov_19_1308,AdjustExp1,3.1.5,59.68189514,Experiment
129,Stimuli/Morph129.JPG,Stimuli/Morph129.png,Stimuli/BlurLevel5/BlurEditedMorph129,Stimuli/BlurLevel5/BlurEditedMorph129.png,Stimuli/BlurLevel5/NumberedMorphs/BlurEditedMorph129.png,Stimuli/BlurLevel5/OriginalBlur/BlurEditedMorph129.png,Stimuli/BlurMorphTrio/EditedMorph129.png,None,None,1,0,1,0,0,80,80,128,,,28,2,81,143,-1.996588775,1.504537558,129,952.8361181,953.3326491,952.8361181,953.3326491,83.67346939,1574198607,1574198609,2.416282892,81,117,12,12,1574198604,1574198607,,,NC,1,21,M,Undergrad,2019_Nov_19_1308,AdjustExp1,3.1.5,59.68189514,Experiment
20,Stimuli/Morph20.JPG,Stimuli/Morph20.png,Stimuli/BlurLevel5/BlurEditedMorph20,Stimuli/BlurLevel5/BlurEditedMorph20.png,Stimuli/BlurLevel5/NumberedMorphs/BlurEditedMorph20.png,Stimuli/BlurLevel5/OriginalBlur/BlurEditedMorph20.png,Stimuli/BlurMorphTrio/EditedMorph20.png,010046right.gif,Stimuli/normal_thumbnails/20right.gif,1,0,1,0,0,81,81,19,,,98,2,82,34,2.072593931,1.397982259,20,958.1160282,958.615712,958.1160282,958.615712,94.55782313,1574198612,1574198616,3.650592089,48,16,4,4,1574198609,1574198612,,,NC,1,21,M,Undergrad,2019_Nov_19_1308,AdjustExp1,3.1.5,59.68189514,Experiment
98,Stimuli/Morph98.JPG,Stimuli/Morph98.png,Stimuli/BlurLevel5/BlurEditedMorph98,Stimuli/BlurLevel5/BlurEditedMorph98.png,Stimuli/BlurLevel5/NumberedMorphs/BlurEditedMorph98.png,Stimuli/BlurLevel5/OriginalBlur/BlurEditedMorph98.png,Stimuli/BlurMorphTrio/EditedMorph98.png,020298right.gif,Stimuli/normal_thumbnails/98right.gif,1,0,1,0,0,82,82,97,,,53,2,83,249,-0.895919874,-2.333951066,98,964.4863506,964.9829742,964.4863506,964.9829742,86.39455782,1574198618,1574198619,0.849237204,108,108,-10,-10,1574198616,1574198618,,,NC,1,21,M,Undergrad,2019_Nov_19_1308,AdjustExp1,3.1.5,59.68189514,Experiment
21,Stimuli/Morph21.JPG,Stimuli/Morph21.png,Stimuli/BlurLevel5/BlurEditedMorph21,Stimuli/BlurLevel5/BlurEditedMorph21.png,Stimuli/BlurLevel5/NumberedMorphs/BlurEditedMorph21.png,Stimuli/BlurLevel5/OriginalBlur/BlurEditedMorph21.png,Stimuli/BlurMorphTrio/EditedMorph21.png,010049right.gif,Stimuli/normal_thumbnails/21right.gif,1,0,1,0,0,83,83,20,,,7,2,84,93,-0.130839891,2.496573837,21,968.0700341,968.5660409,968.0700341,968.5660409,98.63945578,1574198622,1574198625,3.033199072,17,22,-1,-1,1574198619,1574198622,,,NC,1,21,M,Undergrad,2019_Nov_19_1308,AdjustExp1,3.1.5,59.68189514,Experiment
118,Stimuli/Morph118.JPG,Stimuli/Morph118.png,Stimuli/BlurLevel5/BlurEditedMorph118,Stimuli/BlurLevel5/BlurEditedMorph118.png,Stimuli/BlurLevel5/NumberedMorphs/BlurEditedMorph118.png,Stimuli/BlurLevel5/OriginalBlur/BlurEditedMorph118.png,Stimuli/BlurMorphTrio/EditedMorph118.png,None,None,1,0,1,0,0,84,84,117,,,93,2,85,13,2.435925162,0.562377636,118,973.9533472,974.4494912,973.9533472,974.4494912,90.47619048,1574198628,1574198631,3.399252415,10,125,-7,-7,1574198625,1574198628,,,NC,1,21,M,Undergrad,2019_Nov_19_1308,AdjustExp1,3.1.5,59.68189514,Experiment
130,Stimuli/Morph130.JPG,Stimuli/Morph130.png,Stimuli/BlurLevel5/BlurEditedMorph130,Stimuli/BlurLevel5/BlurEditedMorph130.png,Stimuli/BlurLevel5/NumberedMorphs/BlurEditedMorph130.png,Stimuli/BlurLevel5/OriginalBlur/BlurEditedMorph130.png,Stimuli/BlurMorphTrio/EditedMorph130.png,None,None,2,0,2,0,0,0,0,129,,,74,3,1,130,-1.606969024,1.915111108,130,1026.032112,1026.531698,1026.032112,1026.531698,41.49659864,1574198680,1574198682,2.299858093,62,87,43,43,1574198678,1574198680,space,45.99163356,NC,1,21,M,Undergrad,2019_Nov_19_1308,AdjustExp1,3.1.5,59.68189514,Experiment
