stimulusID,stimulus_JPG,stimulusPath,stimulusPath2,stimulusPath3,stimulusPath4,stimulusPath5,stimulusPath6,xRayOriginal,xRayPath,Training.thisRepN,Training.thisTrialN,Training.thisN,Training.thisIndex,Blocks.thisRepN,Blocks.thisTrialN,Blocks.thisN,Blocks.thisIndex,Trials.thisRepN,Trials.thisTrialN,Trials.thisN,Trials.thisIndex,text_2.started,text_2.stopped,image.started,image.stopped,image_2.started,image_2.stopped,image_3.started,image_3.stopped,image_4.started,image_4.stopped,image_6.started,image_6.stopped,image_7.started,image_7.stopped,image_8.started,image_8.stopped,image_9.started,image_9.stopped,image_10.started,image_10.stopped,image_12.started,image_12.stopped,xrayID,trialNumber,blockNumber,stimLocationDeg,stimXCoord,stimYCoord,stimulusID,blockType,trainingXray.started,trainingXray.stopped,trainingTumors.started,trainingTumors.stopped,trainingScore%,startTrainingRespTime,endTrainingRespTime,trainingRT,morphTrack,morphID,errorRaw,errorCorrected,startTrainingStimTime,endTrainingStimTime,key_resp_3.keys,key_resp_3.rt,text.started,text.stopped,text_3.started,text_3.stopped,text_4.started,text_4.stopped,key_resp_5.keys,key_resp_5.rt,key_resp_5.started,key_resp_5.stopped,xray1.started,xray1.stopped,tumors.started,tumors.stopped,trialCorrect%,startRespTime,endRespTime,RT,startStimTime,endStimTime,key_resp.keys,key_resp.rt,participant,session,age,gender,status,date,expName,psychopyVersion,frameRate
113,Stimuli/Morph113.JPG,Stimuli/Morph113.png,Stimuli/BlurLevel5/BlurEditedMorph113,Stimuli/BlurLevel5/BlurEditedMorph113.png,Stimuli/BlurLevel5/NumberedMorphs/BlurEditedMorph113.png,Stimuli/BlurLevel5/OriginalBlur/BlurEditedMorph113.png,Stimuli/BlurMorphTrio/EditedMorph113.png,None,None,0,0,0,112,,,,,,,,,86.63968709,None,86.63968709,None,86.63968709,None,86.63968709,None,86.63968709,None,86.63968709,None,86.63968709,None,86.63968709,None,86.63968709,None,86.63968709,None,86.63968709,None,23,-100,-100,102,-0.519779227,2.445369002,113,training,128.5593803,129.056372,128.5593803,129.056372,82.31292517,1575492535,1575492538,3.069117308,26,100,13,13,1575492532,1575492535,space,4.361525476,,,,,,,,,,,,,,,,,,,,,,,s11,1,45,m,expert radiologist,2019_Dec_04_1448,AdjustEyeTrack,3.1.5,60.08477674
59,Stimuli/Morph59.JPG,Stimuli/Morph59.png,Stimuli/BlurLevel5/BlurEditedMorph59,Stimuli/BlurLevel5/BlurEditedMorph59.png,Stimuli/BlurLevel5/NumberedMorphs/BlurEditedMorph59.png,Stimuli/BlurLevel5/OriginalBlur/BlurEditedMorph59.png,Stimuli/BlurMorphTrio/EditedMorph59.png,010160right.gif,Stimuli/normal_thumbnails/59right.gif,0,1,1,58,,,,,,,,,,,,,,,,,,,,,,,,,,,,,,,45,-100,-100,248,-0.936516484,-2.317959636,59,training,138.1437339,138.6396916,138.1437339,138.6396916,86.39455782,1575492544,1575492547,2.51450181,121,49,10,10,1575492542,1575492544,space,14.96387049,,,,,,,,,,,,,,,,,,,,,,,s11,1,45,m,expert radiologist,2019_Dec_04_1448,AdjustEyeTrack,3.1.5,60.08477674
20,Stimuli/Morph20.JPG,Stimuli/Morph20.png,Stimuli/BlurLevel5/BlurEditedMorph20,Stimuli/BlurLevel5/BlurEditedMorph20.png,Stimuli/BlurLevel5/NumberedMorphs/BlurEditedMorph20.png,Stimuli/BlurLevel5/OriginalBlur/BlurEditedMorph20.png,Stimuli/BlurMorphTrio/EditedMorph20.png,010046right.gif,Stimuli/normal_thumbnails/20right.gif,0,2,2,19,,,,,,,,,,,,,,,,,,,,,,,,,,,,,,,87,-100,-100,181,-2.499619238,-0.043631016,20,training,158.2432608,158.7403016,158.2432608,158.7403016,93.19727891,1575492564,1575492570,5.084401131,17,15,5,5,1575492562,1575492564,space,2.218127131,,,,,,,,,,,,,,,,,,,,,,,s11,1,45,m,expert radiologist,2019_Dec_04_1448,AdjustEyeTrack,3.1.5,60.08477674
83,Stimuli/Morph83.JPG,Stimuli/Morph83.png,Stimuli/BlurLevel5/BlurEditedMorph83,Stimuli/BlurLevel5/BlurEditedMorph83.png,Stimuli/BlurLevel5/NumberedMorphs/BlurEditedMorph83.png,Stimuli/BlurLevel5/OriginalBlur/BlurEditedMorph83.png,Stimuli/BlurMorphTrio/EditedMorph83.png,020259right.gif,Stimuli/normal_thumbnails/83right.gif,0,3,3,82,,,,,,,,,,,,,,,,,,,,,,,,,,,,,,,21,-100,-100,89,0.043631016,2.499619238,83,training,168.0283008,168.5379792,168.0283008,168.5379792,17.00680272,1575492574,1575492579,4.667324066,142,144,-61,-61,1575492572,1575492574,space,2.442878478,,,,,,,,,,,,,,,,,,,,,,,s11,1,45,m,expert radiologist,2019_Dec_04_1448,AdjustEyeTrack,3.1.5,60.08477674
30,Stimuli/Morph30.JPG,Stimuli/Morph30.png,Stimuli/BlurLevel5/BlurEditedMorph30,Stimuli/BlurLevel5/BlurEditedMorph30.png,Stimuli/BlurLevel5/NumberedMorphs/BlurEditedMorph30.png,Stimuli/BlurLevel5/OriginalBlur/BlurEditedMorph30.png,Stimuli/BlurMorphTrio/EditedMorph30.png,010076right.gif,Stimuli/normal_thumbnails/30right.gif,0,4,4,29,,,,,,,,,,,,,,,,,,,,,,,,,,,,,,,38,-100,-100,341,2.363796439,-0.813920386,30,training,177.7963346,178.3054377,177.7963346,178.3054377,79.59183673,1575492584,1575492586,2.117368937,83,45,-15,-15,1575492581,1575492584,space,1.627183213,,,,,,,,,,,,,,,,,,,,,,,s11,1,45,m,expert radiologist,2019_Dec_04_1448,AdjustEyeTrack,3.1.5,60.08477674
36,Stimuli/Morph36.JPG,Stimuli/Morph36.png,Stimuli/BlurLevel5/BlurEditedMorph36,Stimuli/BlurLevel5/BlurEditedMorph36.png,Stimuli/BlurLevel5/NumberedMorphs/BlurEditedMorph36.png,Stimuli/BlurLevel5/OriginalBlur/BlurEditedMorph36.png,Stimuli/BlurMorphTrio/EditedMorph36.png,010095right.gif,Stimuli/normal_thumbnails/36right.gif,0,5,5,35,,,,,,,,,,,,,,,,,,,,,,,,,,,,,,,56,-100,-100,213,-2.09667642,-1.361597588,36,training,184.4394756,184.9546315,184.4394756,184.9546315,87.75510204,1575492591,1575492593,2.116336107,89,45,-9,-9,1575492588,1575492591,space,2.474549241,,,,,,,,,,,,,,,,,,,,,,,s11,1,45,m,expert radiologist,2019_Dec_04_1448,AdjustEyeTrack,3.1.5,60.08477674
76,Stimuli/Morph76.JPG,Stimuli/Morph76.png,Stimuli/BlurLevel5/BlurEditedMorph76,Stimuli/BlurLevel5/BlurEditedMorph76.png,Stimuli/BlurLevel5/NumberedMorphs/BlurEditedMorph76.png,Stimuli/BlurLevel5/OriginalBlur/BlurEditedMorph76.png,Stimuli/BlurMorphTrio/EditedMorph76.png,020234right.gif,Stimuli/normal_thumbnails/76right.gif,0,6,6,75,,,,,,,,,,,,,,,,,,,,,,,,,,,,,,,47,-100,-100,163,-2.39076189,0.730929262,76,training,192.309984,192.8209957,192.309984,192.8209957,94.55782313,1575492599,1575492600,1.850286007,73,72,4,4,1575492595,1575492599,space,2.940069081,,,,,,,,,,,,,,,,,,,,,,,s11,1,45,m,expert radiologist,2019_Dec_04_1448,AdjustEyeTrack,3.1.5,60.08477674
29,Stimuli/Morph29.JPG,Stimuli/Morph29.png,Stimuli/BlurLevel5/BlurEditedMorph29,Stimuli/BlurLevel5/BlurEditedMorph29.png,Stimuli/BlurLevel5/NumberedMorphs/BlurEditedMorph29.png,Stimuli/BlurLevel5/OriginalBlur/BlurEditedMorph29.png,Stimuli/BlurMorphTrio/EditedMorph29.png,010074right.gif,Stimuli/normal_thumbnails/29right.gif,0,7,7,28,,,,,,,,,,,,,,,,,,,,,,,,,,,,,,,72,-100,-100,195,-2.414814566,-0.647047613,29,training,199.8399301,200.3546736,199.8399301,200.3546736,53.7414966,1575492606,1575492609,3.384120941,120,142,-113,34,1575492603,1575492606,space,3.882166794,,,,,,,,,,,,,,,,,,,,,,,s11,1,45,m,expert radiologist,2019_Dec_04_1448,AdjustEyeTrack,3.1.5,60.08477674
135,Stimuli/Morph135.JPG,Stimuli/Morph135.png,Stimuli/BlurLevel5/BlurEditedMorph135,Stimuli/BlurLevel5/BlurEditedMorph135.png,Stimuli/BlurLevel5/NumberedMorphs/BlurEditedMorph135.png,Stimuli/BlurLevel5/OriginalBlur/BlurEditedMorph135.png,Stimuli/BlurMorphTrio/EditedMorph135.png,None,None,0,8,8,134,,,,,,,,,,,,,,,,,,,,,,,,,,,,,,,67,-100,-100,12,2.445369002,0.519779227,135,training,209.8721524,210.3712388,209.8721524,210.3712388,75.51020408,1575492616,1575492620,3.532186985,122,6,129,-18,1575492613,1575492616,space,1.917559603,,,,,,,,,,,,,,,,,,,,,,,s11,1,45,m,expert radiologist,2019_Dec_04_1448,AdjustEyeTrack,3.1.5,60.08477674
47,Stimuli/Morph47.JPG,Stimuli/Morph47.png,Stimuli/BlurLevel5/BlurEditedMorph47,Stimuli/BlurLevel5/BlurEditedMorph47.png,Stimuli/BlurLevel5/NumberedMorphs/BlurEditedMorph47.png,Stimuli/BlurLevel5/OriginalBlur/BlurEditedMorph47.png,Stimuli/BlurMorphTrio/EditedMorph47.png,010130right.gif,Stimuli/normal_thumbnails/47right.gif,0,9,9,46,,,,,,,,,,,,,,,,,,,,,,,,,,,,,,,83,-100,-100,178,-2.498477068,0.087248742,47,training,218.1371759,218.6377858,218.1371759,218.6377858,97.27891156,1575492624,1575492627,2.949908018,32,49,-2,-2,1575492622,1575492624,space,3.091558407,,,,,,,,,,,,,,,,,,,,,,,s11,1,45,m,expert radiologist,2019_Dec_04_1448,AdjustEyeTrack,3.1.5,60.08477674
,,,,,,,,,,,,,,,,,,,,,,,,,,,,,,,,,,,,,,,,,,,,,-100,-100,,,,,training,,,,,,,,,,,,,,,,,225.8380453,None,225.8380453,None,225.8380453,None,space,48.75182443,225.8380453,None,,,,,,,,,,,,,s11,1,45,m,expert radiologist,2019_Dec_04_1448,AdjustEyeTrack,3.1.5,60.08477674
40,Stimuli/Morph40.JPG,Stimuli/Morph40.png,Stimuli/BlurLevel5/BlurEditedMorph40,Stimuli/BlurLevel5/BlurEditedMorph40.png,Stimuli/BlurLevel5/NumberedMorphs/BlurEditedMorph40.png,Stimuli/BlurLevel5/OriginalBlur/BlurEditedMorph40.png,Stimuli/BlurMorphTrio/EditedMorph40.png,010110right.gif,Stimuli/normal_thumbnails/40right.gif,,,,,0,0,0,0,0,0,0,39,,,,,,,,,,,,,,,,,,,,,,,13,1,1,121,-1.287595187,2.142918252,40,Experiment,,,,,,,,,79,45,-5,-5,,,,,,,,,,,,,,,275.8232329,276.337108,275.8232329,276.337108,93.19727891,1575492682,1575492684,2.315000057,1575492680,1575492682,,,s11,1,45,m,expert radiologist,2019_Dec_04_1448,AdjustEyeTrack,3.1.5,60.08477674
45,Stimuli/Morph45.JPG,Stimuli/Morph45.png,Stimuli/BlurLevel5/BlurEditedMorph45,Stimuli/BlurLevel5/BlurEditedMorph45.png,Stimuli/BlurLevel5/NumberedMorphs/BlurEditedMorph45.png,Stimuli/BlurLevel5/OriginalBlur/BlurEditedMorph45.png,Stimuli/BlurMorphTrio/EditedMorph45.png,010127right.gif,Stimuli/normal_thumbnails/45right.gif,,,,,0,0,0,0,0,1,1,44,,,,,,,,,,,,,,,,,,,,,,,40,2,1,287,0.730929262,-2.39076189,45,Experiment,,,,,,,,,2,38,7,7,,,,,,,,,,,,,,,281.046457,281.5530751,281.046457,281.5530751,90.47619048,1575492687,1575492692,4.818523169,1575492685,1575492687,,,s11,1,45,m,expert radiologist,2019_Dec_04_1448,AdjustEyeTrack,3.1.5,60.08477674
18,Stimuli/Morph18.JPG,Stimuli/Morph18.png,Stimuli/BlurLevel5/BlurEditedMorph18,Stimuli/BlurLevel5/BlurEditedMorph18.png,Stimuli/BlurLevel5/NumberedMorphs/BlurEditedMorph18.png,Stimuli/BlurLevel5/OriginalBlur/BlurEditedMorph18.png,Stimuli/BlurMorphTrio/EditedMorph18.png,010039right.gif,Stimuli/normal_thumbnails/18right.gif,,,,,0,0,0,0,0,2,2,17,,,,,,,,,,,,,,,,,,,,,,,8,3,1,316,1.798349501,-1.736645926,18,Experiment,,,,,,,,,89,18,0,0,,,,,,,,,,,,,,,288.8199756,289.3202445,288.8199756,289.3202445,100,1575492695,1575492698,3.383152008,1575492692,1575492695,,,s11,1,45,m,expert radiologist,2019_Dec_04_1448,AdjustEyeTrack,3.1.5,60.08477674
120,Stimuli/Morph120.JPG,Stimuli/Morph120.png,Stimuli/BlurLevel5/BlurEditedMorph120,Stimuli/BlurLevel5/BlurEditedMorph120.png,Stimuli/BlurLevel5/NumberedMorphs/BlurEditedMorph120.png,Stimuli/BlurLevel5/OriginalBlur/BlurEditedMorph120.png,Stimuli/BlurMorphTrio/EditedMorph120.png,None,None,,,,,0,0,0,0,0,3,3,119,,,,,,,,,,,,,,,,,,,,,,,5,4,1,190,-2.462019383,-0.434120444,120,Experiment,,,,,,,,,123,123,-3,-3,,,,,,,,,,,,,,,294.6696762,295.2579369,294.6696762,295.2579369,95.91836735,1575492701,1575492703,1.632387877,1575492699,1575492701,,,s11,1,45,m,expert radiologist,2019_Dec_04_1448,AdjustEyeTrack,3.1.5,60.08477674
3,Stimuli/Morph3.JPG,Stimuli/Morph3.png,Stimuli/BlurLevel5/BlurEditedMorph3,Stimuli/BlurLevel5/BlurEditedMorph3.png,Stimuli/BlurLevel5/NumberedMorphs/BlurEditedMorph3.png,Stimuli/BlurLevel5/OriginalBlur/BlurEditedMorph3.png,Stimuli/BlurMorphTrio/EditedMorph3.png,010009right.gif,Stimuli/normal_thumbnails/3right.gif,,,,,0,0,0,0,0,4,4,2,,,,,,,,,,,,,,,,,,,,,,,33,5,1,136,-1.798349501,1.736645926,3,Experiment,,,,,,,,,134,1,2,2,,,,,,,,,,,,,,,298.8391746,299.3365623,298.8391746,299.3365623,97.27891156,1575492705,1575492712,7.015926123,1575492703,1575492705,,,s11,1,45,m,expert radiologist,2019_Dec_04_1448,AdjustEyeTrack,3.1.5,60.08477674
140,Stimuli/Morph140.JPG,Stimuli/Morph140.png,Stimuli/BlurLevel5/BlurEditedMorph140,Stimuli/BlurLevel5/BlurEditedMorph140.png,Stimuli/BlurLevel5/NumberedMorphs/BlurEditedMorph140.png,Stimuli/BlurLevel5/OriginalBlur/BlurEditedMorph140.png,Stimuli/BlurMorphTrio/EditedMorph140.png,None,None,,,,,0,0,0,0,0,5,5,139,,,,,,,,,,,,,,,,,,,,,,,20,6,1,38,1.970026884,1.539153688,140,Experiment,,,,,,,,,15,140,0,0,,,,,,,,,,,,,,,308.6569189,309.1527484,308.6569189,309.1527484,100,1575492715,1575492720,5.582384825,1575492712,1575492715,,,s11,1,45,m,expert radiologist,2019_Dec_04_1448,AdjustEyeTrack,3.1.5,60.08477674
89,Stimuli/Morph89.JPG,Stimuli/Morph89.png,Stimuli/BlurLevel5/BlurEditedMorph89,Stimuli/BlurLevel5/BlurEditedMorph89.png,Stimuli/BlurLevel5/NumberedMorphs/BlurEditedMorph89.png,Stimuli/BlurLevel5/OriginalBlur/BlurEditedMorph89.png,Stimuli/BlurMorphTrio/EditedMorph89.png,020273right.gif,Stimuli/normal_thumbnails/89right.gif,,,,,0,0,0,0,0,6,6,88,,,,,,,,,,,,,,,,,,,,,,,32,7,1,192,-2.445369002,-0.519779227,89,Experiment,,,,,,,,,125,86,3,3,,,,,,,,,,,,,,,317.2118898,317.7202919,317.2118898,317.7202919,95.91836735,1575492723,1575492727,3.28152442,1575492721,1575492723,,,s11,1,45,m,expert radiologist,2019_Dec_04_1448,AdjustEyeTrack,3.1.5,60.08477674
119,Stimuli/Morph119.JPG,Stimuli/Morph119.png,Stimuli/BlurLevel5/BlurEditedMorph119,Stimuli/BlurLevel5/BlurEditedMorph119.png,Stimuli/BlurLevel5/NumberedMorphs/BlurEditedMorph119.png,Stimuli/BlurLevel5/OriginalBlur/BlurEditedMorph119.png,Stimuli/BlurMorphTrio/EditedMorph119.png,None,None,,,,,0,0,0,0,0,7,7,118,,,,,,,,,,,,,,,,,,,,,,,43,8,1,296,1.095927867,-2.246985116,119,Experiment,,,,,,,,,145,111,8,8,,,,,,,,,,,,,,,323.2418893,323.7547286,323.2418893,323.7547286,89.11564626,1575492729,1575492733,3.082956076,1575492727,1575492729,,,s11,1,45,m,expert radiologist,2019_Dec_04_1448,AdjustEyeTrack,3.1.5,60.08477674
34,Stimuli/Morph34.JPG,Stimuli/Morph34.png,Stimuli/BlurLevel5/BlurEditedMorph34,Stimuli/BlurLevel5/BlurEditedMorph34.png,Stimuli/BlurLevel5/NumberedMorphs/BlurEditedMorph34.png,Stimuli/BlurLevel5/OriginalBlur/BlurEditedMorph34.png,Stimuli/BlurMorphTrio/EditedMorph34.png,010090right.gif,Stimuli/normal_thumbnails/34right.gif,,,,,0,0,0,0,0,8,8,33,,,,,,,,,,,,,,,,,,,,,,,45,9,1,254,-0.68909339,-2.40315424,34,Experiment,,,,,,,,,74,31,3,3,,,,,,,,,,,,,,,328.7196245,329.2366774,328.7196245,329.2366774,95.91836735,1575492735,1575492738,3.418020964,1575492733,1575492735,,,s11,1,45,m,expert radiologist,2019_Dec_04_1448,AdjustEyeTrack,3.1.5,60.08477674
70,Stimuli/Morph70.JPG,Stimuli/Morph70.png,Stimuli/BlurLevel5/BlurEditedMorph70,Stimuli/BlurLevel5/BlurEditedMorph70.png,Stimuli/BlurLevel5/NumberedMorphs/BlurEditedMorph70.png,Stimuli/BlurLevel5/OriginalBlur/BlurEditedMorph70.png,Stimuli/BlurMorphTrio/EditedMorph70.png,020221right.gif,Stimuli/normal_thumbnails/70right.gif,,,,,0,0,0,0,0,9,9,69,,,,,,,,,,,,,,,,,,,,,,,1,10,1,285,0.647047613,-2.414814566,70,Experiment,,,,,,,,,72,91,-21,-21,,,,,,,,,,,,,,,334.0878893,334.5870917,334.0878893,334.5870917,71.42857143,1575492740,1575492745,4.583415985,1575492739,1575492740,,,s11,1,45,m,expert radiologist,2019_Dec_04_1448,AdjustEyeTrack,3.1.5,60.08477674
28,Stimuli/Morph28.JPG,Stimuli/Morph28.png,Stimuli/BlurLevel5/BlurEditedMorph28,Stimuli/BlurLevel5/BlurEditedMorph28.png,Stimuli/BlurLevel5/NumberedMorphs/BlurEditedMorph28.png,Stimuli/BlurLevel5/OriginalBlur/BlurEditedMorph28.png,Stimuli/BlurMorphTrio/EditedMorph28.png,010073right.gif,Stimuli/normal_thumbnails/28right.gif,,,,,0,0,0,0,0,10,10,27,,,,,,,,,,,,,,,,,,,,,,,12,11,1,158,-2.317959636,0.936516484,28,Experiment,,,,,,,,,78,63,-35,-35,,,,,,,,,,,,,,,341.8773701,342.3696507,341.8773701,342.3696507,52.38095238,1575492748,1575492753,4.749448299,1575492745,1575492748,,,s11,1,45,m,expert radiologist,2019_Dec_04_1448,AdjustEyeTrack,3.1.5,60.08477674
72,Stimuli/Morph72.JPG,Stimuli/Morph72.png,Stimuli/BlurLevel5/BlurEditedMorph72,Stimuli/BlurLevel5/BlurEditedMorph72.png,Stimuli/BlurLevel5/NumberedMorphs/BlurEditedMorph72.png,Stimuli/BlurLevel5/OriginalBlur/BlurEditedMorph72.png,Stimuli/BlurMorphTrio/EditedMorph72.png,020227right.gif,Stimuli/normal_thumbnails/72right.gif,,,,,0,0,0,0,0,11,11,71,,,,,,,,,,,,,,,,,,,,,,,32,12,1,54,1.469463131,2.022542486,72,Experiment,,,,,,,,,86,74,-2,-2,,,,,,,,,,,,,,,349.3363729,349.8360278,349.3363729,349.8360278,97.27891156,1575492756,1575492761,5.6358428,1575492753,1575492756,,,s11,1,45,m,expert radiologist,2019_Dec_04_1448,AdjustEyeTrack,3.1.5,60.08477674
66,Stimuli/Morph66.JPG,Stimuli/Morph66.png,Stimuli/BlurLevel5/BlurEditedMorph66,Stimuli/BlurLevel5/BlurEditedMorph66.png,Stimuli/BlurLevel5/NumberedMorphs/BlurEditedMorph66.png,Stimuli/BlurLevel5/OriginalBlur/BlurEditedMorph66.png,Stimuli/BlurMorphTrio/EditedMorph66.png,020212right.gif,Stimuli/normal_thumbnails/66right.gif,,,,,0,0,0,0,0,12,12,65,,,,,,,,,,,,,,,,,,,,,,,12,13,1,92,-0.087248742,2.498477068,66,Experiment,,,,,,,,,76,74,-8,-8,,,,,,,,,,,,,,,357.5210693,358.019787,357.5210693,358.019787,89.11564626,1575492764,1575492770,6.716039896,1575492761,1575492764,,,s11,1,45,m,expert radiologist,2019_Dec_04_1448,AdjustEyeTrack,3.1.5,60.08477674
59,Stimuli/Morph59.JPG,Stimuli/Morph59.png,Stimuli/BlurLevel5/BlurEditedMorph59,Stimuli/BlurLevel5/BlurEditedMorph59.png,Stimuli/BlurLevel5/NumberedMorphs/BlurEditedMorph59.png,Stimuli/BlurLevel5/OriginalBlur/BlurEditedMorph59.png,Stimuli/BlurMorphTrio/EditedMorph59.png,010160right.gif,Stimuli/normal_thumbnails/59right.gif,,,,,0,0,0,0,0,13,13,58,,,,,,,,,,,,,,,,,,,,,,,54,14,1,339,2.333951066,-0.895919874,59,Experiment,,,,,,,,,51,73,-14,-14,,,,,,,,,,,,,,,366.670733,367.1892189,366.670733,367.1892189,80.95238095,1575492773,1575492780,7.116760015,1575492771,1575492773,,,s11,1,45,m,expert radiologist,2019_Dec_04_1448,AdjustEyeTrack,3.1.5,60.08477674
49,Stimuli/Morph49.JPG,Stimuli/Morph49.png,Stimuli/BlurLevel5/BlurEditedMorph49,Stimuli/BlurLevel5/BlurEditedMorph49.png,Stimuli/BlurLevel5/NumberedMorphs/BlurEditedMorph49.png,Stimuli/BlurLevel5/OriginalBlur/BlurEditedMorph49.png,Stimuli/BlurMorphTrio/EditedMorph49.png,010135right.gif,Stimuli/normal_thumbnails/49right.gif,,,,,0,0,0,0,0,14,14,48,,,,,,,,,,,,,,,,,,,,,,,81,15,1,120,-1.25,2.165063509,49,Experiment,,,,,,,,,75,50,-1,-1,,,,,,,,,,,,,,,376.1361149,376.6356616,376.1361149,376.6356616,98.63945578,1575492782,1575492785,3.067276001,1575492780,1575492782,,,s11,1,45,m,expert radiologist,2019_Dec_04_1448,AdjustEyeTrack,3.1.5,60.08477674
104,Stimuli/Morph104.JPG,Stimuli/Morph104.png,Stimuli/BlurLevel5/BlurEditedMorph104,Stimuli/BlurLevel5/BlurEditedMorph104.png,Stimuli/BlurLevel5/NumberedMorphs/BlurEditedMorph104.png,Stimuli/BlurLevel5/OriginalBlur/BlurEditedMorph104.png,Stimuli/BlurMorphTrio/EditedMorph104.png,None,None,,,,,0,0,0,0,0,15,15,103,,,,,,,,,,,,,,,,,,,,,,,18,16,1,17,2.39076189,0.730929262,104,Experiment,,,,,,,,,117,117,-13,-13,,,,,,,,,,,,,,,381.6358916,382.1518732,381.6358916,382.1518732,82.31292517,1575492788,1575492790,1.850257158,1575492786,1575492788,,,s11,1,45,m,expert radiologist,2019_Dec_04_1448,AdjustEyeTrack,3.1.5,60.08477674
94,Stimuli/Morph94.JPG,Stimuli/Morph94.png,Stimuli/BlurLevel5/BlurEditedMorph94,Stimuli/BlurLevel5/BlurEditedMorph94.png,Stimuli/BlurLevel5/NumberedMorphs/BlurEditedMorph94.png,Stimuli/BlurLevel5/OriginalBlur/BlurEditedMorph94.png,Stimuli/BlurMorphTrio/EditedMorph94.png,020286right.gif,Stimuli/normal_thumbnails/94right.gif,,,,,0,0,0,0,0,16,16,93,,,,,,,,,,,,,,,,,,,,,,,53,17,1,128,-1.539153688,1.970026884,94,Experiment,,,,,,,,,20,103,-9,-9,,,,,,,,,,,,,,,386.505875,387.0190173,386.505875,387.0190173,87.75510204,1575492793,1575492797,4.133071661,1575492790,1575492793,,,s11,1,45,m,expert radiologist,2019_Dec_04_1448,AdjustEyeTrack,3.1.5,60.08477674
143,Stimuli/Morph143.JPG,Stimuli/Morph143.png,Stimuli/BlurLevel5/BlurEditedMorph143,Stimuli/BlurLevel5/BlurEditedMorph143.png,Stimuli/BlurLevel5/NumberedMorphs/BlurEditedMorph143.png,Stimuli/BlurLevel5/OriginalBlur/BlurEditedMorph143.png,Stimuli/BlurMorphTrio/EditedMorph143.png,None,None,,,,,0,0,0,0,0,17,17,142,,,,,,,,,,,,,,,,,,,,,,,30,18,1,10,2.462019383,0.434120444,143,Experiment,,,,,,,,,96,144,-1,-1,,,,,,,,,,,,,,,393.6193489,394.154563,393.6193489,394.154563,98.63945578,1575492800,1575492804,4.016082764,1575492797,1575492800,,,s11,1,45,m,expert radiologist,2019_Dec_04_1448,AdjustEyeTrack,3.1.5,60.08477674
74,Stimuli/Morph74.JPG,Stimuli/Morph74.png,Stimuli/BlurLevel5/BlurEditedMorph74,Stimuli/BlurLevel5/BlurEditedMorph74.png,Stimuli/BlurLevel5/NumberedMorphs/BlurEditedMorph74.png,Stimuli/BlurLevel5/OriginalBlur/BlurEditedMorph74.png,Stimuli/BlurMorphTrio/EditedMorph74.png,020232right.gif,Stimuli/normal_thumbnails/74right.gif,,,,,0,0,0,0,0,18,18,73,,,,,,,,,,,,,,,,,,,,,,,33,19,1,110,-0.855050358,2.349231552,74,Experiment,,,,,,,,,127,91,-17,-17,,,,,,,,,,,,,,,400.406352,400.9190159,400.406352,400.9190159,76.8707483,1575492807,1575492818,10.95531821,1575492804,1575492807,,,s11,1,45,m,expert radiologist,2019_Dec_04_1448,AdjustEyeTrack,3.1.5,60.08477674
20,Stimuli/Morph20.JPG,Stimuli/Morph20.png,Stimuli/BlurLevel5/BlurEditedMorph20,Stimuli/BlurLevel5/BlurEditedMorph20.png,Stimuli/BlurLevel5/NumberedMorphs/BlurEditedMorph20.png,Stimuli/BlurLevel5/OriginalBlur/BlurEditedMorph20.png,Stimuli/BlurMorphTrio/EditedMorph20.png,010046right.gif,Stimuli/normal_thumbnails/20right.gif,,,,,0,0,0,0,0,19,19,19,,,,,,,,,,,,,,,,,,,,,,,57,20,1,34,2.072593931,1.397982259,20,Experiment,,,,,,,,,67,13,7,7,,,,,,,,,,,,,,,414.1709184,414.6686449,414.1709184,414.6686449,90.47619048,1575492821,1575492824,3.133168936,1575492818,1575492821,,,s11,1,45,m,expert radiologist,2019_Dec_04_1448,AdjustEyeTrack,3.1.5,60.08477674
24,Stimuli/Morph24.JPG,Stimuli/Morph24.png,Stimuli/BlurLevel5/BlurEditedMorph24,Stimuli/BlurLevel5/BlurEditedMorph24.png,Stimuli/BlurLevel5/NumberedMorphs/BlurEditedMorph24.png,Stimuli/BlurLevel5/OriginalBlur/BlurEditedMorph24.png,Stimuli/BlurMorphTrio/EditedMorph24.png,010068right.gif,Stimuli/normal_thumbnails/24right.gif,,,,,0,0,0,0,0,20,20,23,,,,,,,,,,,,,,,,,,,,,,,52,21,1,280,0.434120444,-2.462019383,24,Experiment,,,,,,,,,116,32,-8,-8,,,,,,,,,,,,,,,419.8720286,420.3685052,419.8720286,420.3685052,89.11564626,1575492826,1575492831,4.836028099,1575492824,1575492826,,,s11,1,45,m,expert radiologist,2019_Dec_04_1448,AdjustEyeTrack,3.1.5,60.08477674
109,Stimuli/Morph109.JPG,Stimuli/Morph109.png,Stimuli/BlurLevel5/BlurEditedMorph109,Stimuli/BlurLevel5/BlurEditedMorph109.png,Stimuli/BlurLevel5/NumberedMorphs/BlurEditedMorph109.png,Stimuli/BlurLevel5/OriginalBlur/BlurEditedMorph109.png,Stimuli/BlurMorphTrio/EditedMorph109.png,None,None,,,,,0,0,0,0,0,21,21,108,,,,,,,,,,,,,,,,,,,,,,,13,22,1,210,-2.165063509,-1.25,109,Experiment,,,,,,,,,90,104,5,5,,,,,,,,,,,,,,,427.3703329,427.8841963,427.3703329,427.8841963,93.19727891,1575492834,1575492838,3.93486619,1575492831,1575492834,,,s11,1,45,m,expert radiologist,2019_Dec_04_1448,AdjustEyeTrack,3.1.5,60.08477674
111,Stimuli/Morph111.JPG,Stimuli/Morph111.png,Stimuli/BlurLevel5/BlurEditedMorph111,Stimuli/BlurLevel5/BlurEditedMorph111.png,Stimuli/BlurLevel5/NumberedMorphs/BlurEditedMorph111.png,Stimuli/BlurLevel5/OriginalBlur/BlurEditedMorph111.png,Stimuli/BlurMorphTrio/EditedMorph111.png,None,None,,,,,0,0,0,0,0,22,22,110,,,,,,,,,,,,,,,,,,,,,,,90,23,1,272,0.087248742,-2.498477068,111,Experiment,,,,,,,,,84,99,12,12,,,,,,,,,,,,,,,434.0211356,434.5181791,434.0211356,434.5181791,83.67346939,1575492840,1575492844,3.897594213,1575492838,1575492840,,,s11,1,45,m,expert radiologist,2019_Dec_04_1448,AdjustEyeTrack,3.1.5,60.08477674
81,Stimuli/Morph81.JPG,Stimuli/Morph81.png,Stimuli/BlurLevel5/BlurEditedMorph81,Stimuli/BlurLevel5/BlurEditedMorph81.png,Stimuli/BlurLevel5/NumberedMorphs/BlurEditedMorph81.png,Stimuli/BlurLevel5/OriginalBlur/BlurEditedMorph81.png,Stimuli/BlurMorphTrio/EditedMorph81.png,020245right.gif,Stimuli/normal_thumbnails/81right.gif,,,,,0,0,0,0,0,23,23,80,,,,,,,,,,,,,,,,,,,,,,,26,24,1,194,-2.425739316,-0.604804739,81,Experiment,,,,,,,,,98,87,-6,-6,,,,,,,,,,,,,,,440.6607418,441.1699771,440.6607418,441.1699771,91.83673469,1575492847,1575492850,3.166610956,1575492844,1575492847,,,s11,1,45,m,expert radiologist,2019_Dec_04_1448,AdjustEyeTrack,3.1.5,60.08477674
14,Stimuli/Morph14.JPG,Stimuli/Morph14.png,Stimuli/BlurLevel5/BlurEditedMorph14,Stimuli/BlurLevel5/BlurEditedMorph14.png,Stimuli/BlurLevel5/NumberedMorphs/BlurEditedMorph14.png,Stimuli/BlurLevel5/OriginalBlur/BlurEditedMorph14.png,Stimuli/BlurMorphTrio/EditedMorph14.png,010030right.gif,Stimuli/normal_thumbnails/14right.gif,,,,,0,0,0,0,0,24,24,13,,,,,,,,,,,,,,,,,,,,,,,65,25,1,213,-2.09667642,-1.361597588,14,Experiment,,,,,,,,,20,16,-2,-2,,,,,,,,,,,,,,,446.5846107,447.0843505,446.5846107,447.0843505,97.27891156,1575492853,1575492858,5.082566977,1575492850,1575492853,,,s11,1,45,m,expert radiologist,2019_Dec_04_1448,AdjustEyeTrack,3.1.5,60.08477674
145,Stimuli/Morph145.JPG,Stimuli/Morph145.png,Stimuli/BlurLevel5/BlurEditedMorph145,Stimuli/BlurLevel5/BlurEditedMorph145.png,Stimuli/BlurLevel5/NumberedMorphs/BlurEditedMorph145.png,Stimuli/BlurLevel5/OriginalBlur/BlurEditedMorph145.png,Stimuli/BlurMorphTrio/EditedMorph145.png,None,None,,,,,0,0,0,0,0,25,25,144,,,,,,,,,,,,,,,,,,,,,,,68,26,1,236,-1.397982259,-2.072593931,145,Experiment,,,,,,,,,80,142,3,3,,,,,,,,,,,,,,,454.5178681,455.0342779,454.5178681,455.0342779,95.91836735,1575492861,1575492864,3.582856894,1575492858,1575492861,,,s11,1,45,m,expert radiologist,2019_Dec_04_1448,AdjustEyeTrack,3.1.5,60.08477674
108,Stimuli/Morph108.JPG,Stimuli/Morph108.png,Stimuli/BlurLevel5/BlurEditedMorph108,Stimuli/BlurLevel5/BlurEditedMorph108.png,Stimuli/BlurLevel5/NumberedMorphs/BlurEditedMorph108.png,Stimuli/BlurLevel5/OriginalBlur/BlurEditedMorph108.png,Stimuli/BlurMorphTrio/EditedMorph108.png,None,None,,,,,0,0,0,0,0,26,26,107,,,,,,,,,,,,,,,,,,,,,,,88,27,1,199,-2.363796439,-0.813920386,108,Experiment,,,,,,,,,126,117,-9,-9,,,,,,,,,,,,,,,461.0576632,461.567748,461.0576632,461.567748,87.75510204,1575492867,1575492871,3.383363008,1575492865,1575492867,,,s11,1,45,m,expert radiologist,2019_Dec_04_1448,AdjustEyeTrack,3.1.5,60.08477674
90,Stimuli/Morph90.JPG,Stimuli/Morph90.png,Stimuli/BlurLevel5/BlurEditedMorph90,Stimuli/BlurLevel5/BlurEditedMorph90.png,Stimuli/BlurLevel5/NumberedMorphs/BlurEditedMorph90.png,Stimuli/BlurLevel5/OriginalBlur/BlurEditedMorph90.png,Stimuli/BlurMorphTrio/EditedMorph90.png,020275right.gif,Stimuli/normal_thumbnails/90right.gif,,,,,0,0,0,0,0,27,27,89,,,,,,,,,,,,,,,,,,,,,,,15,28,1,256,-0.604804739,-2.425739316,90,Experiment,,,,,,,,,81,107,-17,-17,,,,,,,,,,,,,,,467.0190996,467.5343852,467.0190996,467.5343852,76.8707483,1575492873,1575492876,2.665671825,1575492871,1575492873,,,s11,1,45,m,expert radiologist,2019_Dec_04_1448,AdjustEyeTrack,3.1.5,60.08477674
50,Stimuli/Morph50.JPG,Stimuli/Morph50.png,Stimuli/BlurLevel5/BlurEditedMorph50,Stimuli/BlurLevel5/BlurEditedMorph50.png,Stimuli/BlurLevel5/NumberedMorphs/BlurEditedMorph50.png,Stimuli/BlurLevel5/OriginalBlur/BlurEditedMorph50.png,Stimuli/BlurMorphTrio/EditedMorph50.png,010142right.gif,Stimuli/normal_thumbnails/50right.gif,,,,,0,0,0,0,0,28,28,49,,,,,,,,,,,,,,,,,,,,,,,22,29,1,131,-1.640147572,1.886773951,50,Experiment,,,,,,,,,117,50,0,0,,,,,,,,,,,,,,,472.5013472,473.0022475,472.5013472,473.0022475,100,1575492879,1575492883,4.686554193,1575492876,1575492879,,,s11,1,45,m,expert radiologist,2019_Dec_04_1448,AdjustEyeTrack,3.1.5,60.08477674
131,Stimuli/Morph131.JPG,Stimuli/Morph131.png,Stimuli/BlurLevel5/BlurEditedMorph131,Stimuli/BlurLevel5/BlurEditedMorph131.png,Stimuli/BlurLevel5/NumberedMorphs/BlurEditedMorph131.png,Stimuli/BlurLevel5/OriginalBlur/BlurEditedMorph131.png,Stimuli/BlurMorphTrio/EditedMorph131.png,None,None,,,,,0,0,0,0,0,29,29,130,,,,,,,,,,,,,,,,,,,,,,,93,30,1,17,2.39076189,0.730929262,131,Experiment,,,,,,,,,133,126,5,5,,,,,,,,,,,,,,,480.1052089,480.6340615,480.1052089,480.6340615,93.19727891,1575492886,1575492891,4.750298023,1575492884,1575492886,,,s11,1,45,m,expert radiologist,2019_Dec_04_1448,AdjustEyeTrack,3.1.5,60.08477674
56,Stimuli/Morph56.JPG,Stimuli/Morph56.png,Stimuli/BlurLevel5/BlurEditedMorph56,Stimuli/BlurLevel5/BlurEditedMorph56.png,Stimuli/BlurLevel5/NumberedMorphs/BlurEditedMorph56.png,Stimuli/BlurLevel5/OriginalBlur/BlurEditedMorph56.png,Stimuli/BlurMorphTrio/EditedMorph56.png,010157right.gif,Stimuli/normal_thumbnails/56right.gif,,,,,0,0,0,0,0,30,30,55,,,,,,,,,,,,,,,,,,,,,,,97,31,1,173,-2.481365379,0.304673359,56,Experiment,,,,,,,,,23,44,12,12,,,,,,,,,,,,,,,487.8337066,488.3694248,487.8337066,488.3694248,83.67346939,1575492894,1575492899,4.803594112,1575492891,1575492894,,,s11,1,45,m,expert radiologist,2019_Dec_04_1448,AdjustEyeTrack,3.1.5,60.08477674
122,Stimuli/Morph122.JPG,Stimuli/Morph122.png,Stimuli/BlurLevel5/BlurEditedMorph122,Stimuli/BlurLevel5/BlurEditedMorph122.png,Stimuli/BlurLevel5/NumberedMorphs/BlurEditedMorph122.png,Stimuli/BlurLevel5/OriginalBlur/BlurEditedMorph122.png,Stimuli/BlurMorphTrio/EditedMorph122.png,None,None,,,,,0,0,0,0,0,31,31,121,,,,,,,,,,,,,,,,,,,,,,,83,32,1,133,-1.7049959,1.828384254,122,Experiment,,,,,,,,,90,99,23,23,,,,,,,,,,,,,,,495.8376735,496.3350919,495.8376735,496.3350919,68.70748299,1575492902,1575492904,2.002912998,1575492899,1575492902,,,s11,1,45,m,expert radiologist,2019_Dec_04_1448,AdjustEyeTrack,3.1.5,60.08477674
106,Stimuli/Morph106.JPG,Stimuli/Morph106.png,Stimuli/BlurLevel5/BlurEditedMorph106,Stimuli/BlurLevel5/BlurEditedMorph106.png,Stimuli/BlurLevel5/NumberedMorphs/BlurEditedMorph106.png,Stimuli/BlurLevel5/OriginalBlur/BlurEditedMorph106.png,Stimuli/BlurMorphTrio/EditedMorph106.png,None,None,,,,,0,0,0,0,0,32,32,105,,,,,,,,,,,,,,,,,,,,,,,21,33,1,289,0.813920386,-2.363796439,106,Experiment,,,,,,,,,70,105,1,1,,,,,,,,,,,,,,,500.3861167,500.8860367,500.3861167,500.8860367,98.63945578,1575492907,1575492909,2.301773787,1575492904,1575492907,,,s11,1,45,m,expert radiologist,2019_Dec_04_1448,AdjustEyeTrack,3.1.5,60.08477674
124,Stimuli/Morph124.JPG,Stimuli/Morph124.png,Stimuli/BlurLevel5/BlurEditedMorph124,Stimuli/BlurLevel5/BlurEditedMorph124.png,Stimuli/BlurLevel5/NumberedMorphs/BlurEditedMorph124.png,Stimuli/BlurLevel5/OriginalBlur/BlurEditedMorph124.png,Stimuli/BlurMorphTrio/EditedMorph124.png,None,None,,,,,0,0,0,0,0,33,33,123,,,,,,,,,,,,,,,,,,,,,,,2,34,1,126,-1.469463131,2.022542486,124,Experiment,,,,,,,,,79,104,20,20,,,,,,,,,,,,,,,505.4012743,505.9005687,505.4012743,505.9005687,72.78911565,1575492912,1575492918,6.41656971,1575492909,1575492912,,,s11,1,45,m,expert radiologist,2019_Dec_04_1448,AdjustEyeTrack,3.1.5,60.08477674
144,Stimuli/Morph144.JPG,Stimuli/Morph144.png,Stimuli/BlurLevel5/BlurEditedMorph144,Stimuli/BlurLevel5/BlurEditedMorph144.png,Stimuli/BlurLevel5/NumberedMorphs/BlurEditedMorph144.png,Stimuli/BlurLevel5/OriginalBlur/BlurEditedMorph144.png,Stimuli/BlurMorphTrio/EditedMorph144.png,None,None,,,,,0,0,0,0,0,34,34,143,,,,,,,,,,,,,,,,,,,,,,,9,35,1,51,1.573300978,1.942864904,144,Experiment,,,,,,,,,46,147,-3,-3,,,,,,,,,,,,,,,514.2261423,514.7335014,514.2261423,514.7335014,95.91836735,1575492920,1575492926,5.417262077,1575492918,1575492920,,,s11,1,45,m,expert radiologist,2019_Dec_04_1448,AdjustEyeTrack,3.1.5,60.08477674
15,Stimuli/Morph15.JPG,Stimuli/Morph15.png,Stimuli/BlurLevel5/BlurEditedMorph15,Stimuli/BlurLevel5/BlurEditedMorph15.png,Stimuli/BlurLevel5/NumberedMorphs/BlurEditedMorph15.png,Stimuli/BlurLevel5/OriginalBlur/BlurEditedMorph15.png,Stimuli/BlurMorphTrio/EditedMorph15.png,010031right.gif,Stimuli/normal_thumbnails/15right.gif,,,,,0,0,0,0,0,35,35,14,,,,,,,,,,,,,,,,,,,,,,,47,36,1,18,2.377641291,0.772542486,15,Experiment,,,,,,,,,131,22,-7,-7,,,,,,,,,,,,,,,523.0249074,523.534811,523.0249074,523.534811,90.47619048,1575492929,1575492934,5.05189395,1575492926,1575492929,,,s11,1,45,m,expert radiologist,2019_Dec_04_1448,AdjustEyeTrack,3.1.5,60.08477674
37,Stimuli/Morph37.JPG,Stimuli/Morph37.png,Stimuli/BlurLevel5/BlurEditedMorph37,Stimuli/BlurLevel5/BlurEditedMorph37.png,Stimuli/BlurLevel5/NumberedMorphs/BlurEditedMorph37.png,Stimuli/BlurLevel5/OriginalBlur/BlurEditedMorph37.png,Stimuli/BlurMorphTrio/EditedMorph37.png,010097right.gif,Stimuli/normal_thumbnails/37right.gif,,,,,0,0,0,0,0,36,36,36,,,,,,,,,,,,,,,,,,,,,,,84,37,1,199,-2.363796439,-0.813920386,37,Experiment,,,,,,,,,126,34,3,3,,,,,,,,,,,,,,,530.7496627,531.2503544,530.7496627,531.2503544,95.91836735,1575492937,1575492940,3.303655148,1575492935,1575492937,,,s11,1,45,m,expert radiologist,2019_Dec_04_1448,AdjustEyeTrack,3.1.5,60.08477674
146,Stimuli/Morph146.JPG,Stimuli/Morph146.png,Stimuli/BlurLevel5/BlurEditedMorph146,Stimuli/BlurLevel5/BlurEditedMorph146.png,Stimuli/BlurLevel5/NumberedMorphs/BlurEditedMorph146.png,Stimuli/BlurLevel5/OriginalBlur/BlurEditedMorph146.png,Stimuli/BlurMorphTrio/EditedMorph146.png,None,None,,,,,0,0,0,0,0,37,37,145,,,,,,,,,,,,,,,,,,,,,,,17,38,1,272,0.087248742,-2.498477068,146,Experiment,,,,,,,,,95,147,-1,-1,,,,,,,,,,,,,,,536.9666596,537.4835425,536.9666596,537.4835425,98.63945578,1575492943,1575492946,2.451044083,1575492941,1575492943,,,s11,1,45,m,expert radiologist,2019_Dec_04_1448,AdjustEyeTrack,3.1.5,60.08477674
53,Stimuli/Morph53.JPG,Stimuli/Morph53.png,Stimuli/BlurLevel5/BlurEditedMorph53,Stimuli/BlurLevel5/BlurEditedMorph53.png,Stimuli/BlurLevel5/NumberedMorphs/BlurEditedMorph53.png,Stimuli/BlurLevel5/OriginalBlur/BlurEditedMorph53.png,Stimuli/BlurMorphTrio/EditedMorph53.png,010149right.gif,Stimuli/normal_thumbnails/53right.gif,,,,,0,0,0,0,0,38,38,52,,,,,,,,,,,,,,,,,,,,,,,74,39,1,172,-2.475670172,0.347932752,53,Experiment,,,,,,,,,2,52,1,1,,,,,,,,,,,,,,,541.9605605,542.4668605,541.9605605,542.4668605,98.63945578,1575492948,1575492951,3.218446016,1575492946,1575492948,,,s11,1,45,m,expert radiologist,2019_Dec_04_1448,AdjustEyeTrack,3.1.5,60.08477674
95,Stimuli/Morph95.JPG,Stimuli/Morph95.png,Stimuli/BlurLevel5/BlurEditedMorph95,Stimuli/BlurLevel5/BlurEditedMorph95.png,Stimuli/BlurLevel5/NumberedMorphs/BlurEditedMorph95.png,Stimuli/BlurLevel5/OriginalBlur/BlurEditedMorph95.png,Stimuli/BlurMorphTrio/EditedMorph95.png,020287right.gif,Stimuli/normal_thumbnails/95right.gif,,,,,0,0,0,0,0,39,39,94,,,,,,,,,,,,,,,,,,,,,,,87,40,1,334,2.246985116,-1.095927867,95,Experiment,,,,,,,,,21,114,-19,-19,,,,,,,,,,,,,,,547.8847473,548.434814,547.8847473,548.434814,74.14965986,1575492954,1575492957,2.466370821,1575492952,1575492954,,,s11,1,45,m,expert radiologist,2019_Dec_04_1448,AdjustEyeTrack,3.1.5,60.08477674
32,Stimuli/Morph32.JPG,Stimuli/Morph32.png,Stimuli/BlurLevel5/BlurEditedMorph32,Stimuli/BlurLevel5/BlurEditedMorph32.png,Stimuli/BlurLevel5/NumberedMorphs/BlurEditedMorph32.png,Stimuli/BlurLevel5/OriginalBlur/BlurEditedMorph32.png,Stimuli/BlurMorphTrio/EditedMorph32.png,010080right.gif,Stimuli/normal_thumbnails/32right.gif,,,,,0,0,0,0,0,40,40,31,,,,,,,,,,,,,,,,,,,,,,,41,41,1,211,-2.142918252,-1.287595187,32,Experiment,,,,,,,,,141,36,-4,-4,,,,,,,,,,,,,,,553.1846536,553.699552,553.1846536,553.699552,94.55782313,1575492959,1575492962,3.066338062,1575492957,1575492959,,,s11,1,45,m,expert radiologist,2019_Dec_04_1448,AdjustEyeTrack,3.1.5,60.08477674
36,Stimuli/Morph36.JPG,Stimuli/Morph36.png,Stimuli/BlurLevel5/BlurEditedMorph36,Stimuli/BlurLevel5/BlurEditedMorph36.png,Stimuli/BlurLevel5/NumberedMorphs/BlurEditedMorph36.png,Stimuli/BlurLevel5/OriginalBlur/BlurEditedMorph36.png,Stimuli/BlurMorphTrio/EditedMorph36.png,010095right.gif,Stimuli/normal_thumbnails/36right.gif,,,,,0,0,0,0,0,41,41,35,,,,,,,,,,,,,,,,,,,,,,,67,42,1,350,2.462019383,-0.434120444,36,Experiment,,,,,,,,,20,39,-3,-3,,,,,,,,,,,,,,,559.1874983,559.699366,559.1874983,559.699366,95.91836735,1575492965,1575492968,2.733379126,1575492963,1575492965,,,s11,1,45,m,expert radiologist,2019_Dec_04_1448,AdjustEyeTrack,3.1.5,60.08477674
44,Stimuli/Morph44.JPG,Stimuli/Morph44.png,Stimuli/BlurLevel5/BlurEditedMorph44,Stimuli/BlurLevel5/BlurEditedMorph44.png,Stimuli/BlurLevel5/NumberedMorphs/BlurEditedMorph44.png,Stimuli/BlurLevel5/OriginalBlur/BlurEditedMorph44.png,Stimuli/BlurMorphTrio/EditedMorph44.png,010126right.gif,Stimuli/normal_thumbnails/44right.gif,,,,,0,0,0,0,0,42,42,43,,,,,,,,,,,,,,,,,,,,,,,93,43,1,230,-1.606969024,-1.915111108,44,Experiment,,,,,,,,,58,35,9,9,,,,,,,,,,,,,,,565.8439348,566.3664313,565.8439348,566.3664313,87.75510204,1575492972,1575492977,4.515272856,1575492968,1575492972,,,s11,1,45,m,expert radiologist,2019_Dec_04_1448,AdjustEyeTrack,3.1.5,60.08477674
79,Stimuli/Morph79.JPG,Stimuli/Morph79.png,Stimuli/BlurLevel5/BlurEditedMorph79,Stimuli/BlurLevel5/BlurEditedMorph79.png,Stimuli/BlurLevel5/NumberedMorphs/BlurEditedMorph79.png,Stimuli/BlurLevel5/OriginalBlur/BlurEditedMorph79.png,Stimuli/BlurMorphTrio/EditedMorph79.png,020239right.gif,Stimuli/normal_thumbnails/79right.gif,,,,,0,0,0,0,0,43,43,78,,,,,,,,,,,,,,,,,,,,,,,39,44,1,118,-1.173678907,2.207368982,79,Experiment,,,,,,,,,80,91,-12,-12,,,,,,,,,,,,,,,573.434021,573.9380075,573.434021,573.9380075,83.67346939,1575492980,1575492983,3.53953886,1575492977,1575492980,,,s11,1,45,m,expert radiologist,2019_Dec_04_1448,AdjustEyeTrack,3.1.5,60.08477674
134,Stimuli/Morph134.JPG,Stimuli/Morph134.png,Stimuli/BlurLevel5/BlurEditedMorph134,Stimuli/BlurLevel5/BlurEditedMorph134.png,Stimuli/BlurLevel5/NumberedMorphs/BlurEditedMorph134.png,Stimuli/BlurLevel5/OriginalBlur/BlurEditedMorph134.png,Stimuli/BlurMorphTrio/EditedMorph134.png,None,None,,,,,0,0,0,0,0,44,44,133,,,,,,,,,,,,,,,,,,,,,,,64,45,1,161,-2.363796439,0.813920386,134,Experiment,,,,,,,,,51,1,133,-14,,,,,,,,,,,,,,,579.5891108,580.0995245,579.5891108,580.0995245,80.95238095,1575492986,1575492992,6.432984114,1575492983,1575492986,,,s11,1,45,m,expert radiologist,2019_Dec_04_1448,AdjustEyeTrack,3.1.5,60.08477674
96,Stimuli/Morph96.JPG,Stimuli/Morph96.png,Stimuli/BlurLevel5/BlurEditedMorph96,Stimuli/BlurLevel5/BlurEditedMorph96.png,Stimuli/BlurLevel5/NumberedMorphs/BlurEditedMorph96.png,Stimuli/BlurLevel5/OriginalBlur/BlurEditedMorph96.png,Stimuli/BlurMorphTrio/EditedMorph96.png,020292right.gif,Stimuli/normal_thumbnails/96right.gif,,,,,0,0,0,0,0,45,45,95,,,,,,,,,,,,,,,,,,,,,,,45,46,1,285,0.647047613,-2.414814566,96,Experiment,,,,,,,,,91,108,-12,-12,,,,,,,,,,,,,,,588.5660501,589.0830947,588.5660501,589.0830947,83.67346939,1575492995,1575492999,4.016885042,1575492993,1575492995,,,s11,1,45,m,expert radiologist,2019_Dec_04_1448,AdjustEyeTrack,3.1.5,60.08477674
30,Stimuli/Morph30.JPG,Stimuli/Morph30.png,Stimuli/BlurLevel5/BlurEditedMorph30,Stimuli/BlurLevel5/BlurEditedMorph30.png,Stimuli/BlurLevel5/NumberedMorphs/BlurEditedMorph30.png,Stimuli/BlurLevel5/OriginalBlur/BlurEditedMorph30.png,Stimuli/BlurMorphTrio/EditedMorph30.png,010076right.gif,Stimuli/normal_thumbnails/30right.gif,,,,,0,0,0,0,0,46,46,29,,,,,,,,,,,,,,,,,,,,,,,47,47,1,335,2.265769468,-1.056545654,30,Experiment,,,,,,,,,37,35,-5,-5,,,,,,,,,,,,,,,595.8694145,596.5993644,595.8694145,596.5993644,93.19727891,1575493002,1575493011,8.533073902,1575492999,1575493002,,,s11,1,45,m,expert radiologist,2019_Dec_04_1448,AdjustEyeTrack,3.1.5,60.08477674
8,Stimuli/Morph8.JPG,Stimuli/Morph8.png,Stimuli/BlurLevel5/BlurEditedMorph8,Stimuli/BlurLevel5/BlurEditedMorph8.png,Stimuli/BlurLevel5/NumberedMorphs/BlurEditedMorph8.png,Stimuli/BlurLevel5/OriginalBlur/BlurEditedMorph8.png,Stimuli/BlurMorphTrio/EditedMorph8.png,010014right.gif,Stimuli/normal_thumbnails/8right.gif,,,,,0,0,0,0,0,47,47,7,,,,,,,,,,,,,,,,,,,,,,,95,48,1,49,1.640147572,1.886773951,8,Experiment,,,,,,,,,74,5,3,3,,,,,,,,,,,,,,,607.3495133,607.8487573,607.3495133,607.8487573,95.91836735,1575493014,1575493017,3.216150999,1575493011,1575493014,,,s11,1,45,m,expert radiologist,2019_Dec_04_1448,AdjustEyeTrack,3.1.5,60.08477674
12,Stimuli/Morph12.JPG,Stimuli/Morph12.png,Stimuli/BlurLevel5/BlurEditedMorph12,Stimuli/BlurLevel5/BlurEditedMorph12.png,Stimuli/BlurLevel5/NumberedMorphs/BlurEditedMorph12.png,Stimuli/BlurLevel5/OriginalBlur/BlurEditedMorph12.png,Stimuli/BlurMorphTrio/EditedMorph12.png,010026right.gif,Stimuli/normal_thumbnails/12right.gif,,,,,0,0,0,0,0,48,48,11,,,,,,,,,,,,,,,,,,,,,,,55,49,1,41,1.886773951,1.640147572,12,Experiment,,,,,,,,,81,13,-1,-1,,,,,,,,,,,,,,,613.2568603,613.7835813,613.2568603,613.7835813,98.63945578,1575493020,1575493027,7.499498129,1575493017,1575493019,,,s11,1,45,m,expert radiologist,2019_Dec_04_1448,AdjustEyeTrack,3.1.5,60.08477674
51,Stimuli/Morph51.JPG,Stimuli/Morph51.png,Stimuli/BlurLevel5/BlurEditedMorph51,Stimuli/BlurLevel5/BlurEditedMorph51.png,Stimuli/BlurLevel5/NumberedMorphs/BlurEditedMorph51.png,Stimuli/BlurLevel5/OriginalBlur/BlurEditedMorph51.png,Stimuli/BlurMorphTrio/EditedMorph51.png,010146right.gif,Stimuli/normal_thumbnails/51right.gif,,,,,0,0,0,0,0,49,49,50,,,,,,,,,,,,,,,,,,,,,,,100,50,1,156,-2.283863644,1.016841608,51,Experiment,,,,,,,,,53,49,2,2,,,,,,,,,,,,,,,623.5187495,624.032604,623.5187495,624.032604,97.27891156,1575493030,1575493034,3.783557177,1575493027,1575493030,,,s11,1,45,m,expert radiologist,2019_Dec_04_1448,AdjustEyeTrack,3.1.5,60.08477674
83,Stimuli/Morph83.JPG,Stimuli/Morph83.png,Stimuli/BlurLevel5/BlurEditedMorph83,Stimuli/BlurLevel5/BlurEditedMorph83.png,Stimuli/BlurLevel5/NumberedMorphs/BlurEditedMorph83.png,Stimuli/BlurLevel5/OriginalBlur/BlurEditedMorph83.png,Stimuli/BlurMorphTrio/EditedMorph83.png,020259right.gif,Stimuli/normal_thumbnails/83right.gif,,,,,0,0,0,0,0,50,50,82,,,,,,,,,,,,,,,,,,,,,,,68,51,1,170,-2.462019383,0.434120444,83,Experiment,,,,,,,,,120,120,-37,-37,,,,,,,,,,,,,,,630.0933812,630.5979835,630.0933812,630.5979835,49.65986395,1575493036,1575493038,2.070503235,1575493034,1575493036,,,s11,1,45,m,expert radiologist,2019_Dec_04_1448,AdjustEyeTrack,3.1.5,60.08477674
77,Stimuli/Morph77.JPG,Stimuli/Morph77.png,Stimuli/BlurLevel5/BlurEditedMorph77,Stimuli/BlurLevel5/BlurEditedMorph77.png,Stimuli/BlurLevel5/NumberedMorphs/BlurEditedMorph77.png,Stimuli/BlurLevel5/OriginalBlur/BlurEditedMorph77.png,Stimuli/BlurMorphTrio/EditedMorph77.png,020235right.gif,Stimuli/normal_thumbnails/77right.gif,,,,,0,0,0,0,0,51,51,76,,,,,,,,,,,,,,,,,,,,,,,82,52,1,234,-1.469463131,-2.022542486,77,Experiment,,,,,,,,,20,122,-45,-45,,,,,,,,,,,,,,,634.9237881,635.4199241,634.9237881,635.4199241,38.7755102,1575493041,1575493048,7.033011198,1575493039,1575493041,,,s11,1,45,m,expert radiologist,2019_Dec_04_1448,AdjustEyeTrack,3.1.5,60.08477674
117,Stimuli/Morph117.JPG,Stimuli/Morph117.png,Stimuli/BlurLevel5/BlurEditedMorph117,Stimuli/BlurLevel5/BlurEditedMorph117.png,Stimuli/BlurLevel5/NumberedMorphs/BlurEditedMorph117.png,Stimuli/BlurLevel5/OriginalBlur/BlurEditedMorph117.png,Stimuli/BlurMorphTrio/EditedMorph117.png,None,None,,,,,0,0,0,0,0,52,52,116,,,,,,,,,,,,,,,,,,,,,,,44,53,1,17,2.39076189,0.730929262,117,Experiment,,,,,,,,,101,113,4,4,,,,,,,,,,,,,,,644.9182968,645.4200486,644.9182968,645.4200486,94.55782313,1575493051,1575493055,3.533802986,1575493048,1575493051,,,s11,1,45,m,expert radiologist,2019_Dec_04_1448,AdjustEyeTrack,3.1.5,60.08477674
2,Stimuli/Morph2.JPG,Stimuli/Morph2.png,Stimuli/BlurLevel5/BlurEditedMorph2,Stimuli/BlurLevel5/BlurEditedMorph2.png,Stimuli/BlurLevel5/NumberedMorphs/BlurEditedMorph2.png,Stimuli/BlurLevel5/OriginalBlur/BlurEditedMorph2.png,Stimuli/BlurMorphTrio/EditedMorph2.png,010006right.gif,Stimuli/normal_thumbnails/2right.gif,,,,,0,0,0,0,0,53,53,1,,,,,,,,,,,,,,,,,,,,,,,44,54,1,99,-0.391086163,2.469220851,2,Experiment,,,,,,,,,111,132,-130,17,,,,,,,,,,,,,,,650.8158685,651.3161112,650.8158685,651.3161112,76.8707483,1575493057,1575493063,5.71700716,1575493055,1575493057,,,s11,1,45,m,expert radiologist,2019_Dec_04_1448,AdjustEyeTrack,3.1.5,60.08477674
22,Stimuli/Morph22.JPG,Stimuli/Morph22.png,Stimuli/BlurLevel5/BlurEditedMorph22,Stimuli/BlurLevel5/BlurEditedMorph22.png,Stimuli/BlurLevel5/NumberedMorphs/BlurEditedMorph22.png,Stimuli/BlurLevel5/OriginalBlur/BlurEditedMorph22.png,Stimuli/BlurMorphTrio/EditedMorph22.png,010055right.gif,Stimuli/normal_thumbnails/22right.gif,,,,,0,0,0,0,0,54,54,21,,,,,,,,,,,,,,,,,,,,,,,16,55,1,64,1.095927867,2.246985116,22,Experiment,,,,,,,,,15,15,7,7,,,,,,,,,,,,,,,659.0659324,659.5829068,659.0659324,659.5829068,90.47619048,1575493065,1575493067,1.817808151,1575493063,1575493065,,,s11,1,45,m,expert radiologist,2019_Dec_04_1448,AdjustEyeTrack,3.1.5,60.08477674
75,Stimuli/Morph75.JPG,Stimuli/Morph75.png,Stimuli/BlurLevel5/BlurEditedMorph75,Stimuli/BlurLevel5/BlurEditedMorph75.png,Stimuli/BlurLevel5/NumberedMorphs/BlurEditedMorph75.png,Stimuli/BlurLevel5/OriginalBlur/BlurEditedMorph75.png,Stimuli/BlurMorphTrio/EditedMorph75.png,020233right.gif,Stimuli/normal_thumbnails/75right.gif,,,,,0,0,0,0,0,55,55,74,,,,,,,,,,,,,,,,,,,,,,,88,56,1,58,1.324798161,2.12012024,75,Experiment,,,,,,,,,24,72,3,3,,,,,,,,,,,,,,,663.4278913,663.9319075,663.4278913,663.9319075,95.91836735,1575493070,1575493081,10.84840798,1575493067,1575493070,,,s11,1,45,m,expert radiologist,2019_Dec_04_1448,AdjustEyeTrack,3.1.5,60.08477674
7,Stimuli/Morph7.JPG,Stimuli/Morph7.png,Stimuli/BlurLevel5/BlurEditedMorph7,Stimuli/BlurLevel5/BlurEditedMorph7.png,Stimuli/BlurLevel5/NumberedMorphs/BlurEditedMorph7.png,Stimuli/BlurLevel5/OriginalBlur/BlurEditedMorph7.png,Stimuli/BlurMorphTrio/EditedMorph7.png,010013right.gif,Stimuli/normal_thumbnails/7right.gif,,,,,0,0,0,0,0,56,56,6,,,,,,,,,,,,,,,,,,,,,,,62,57,1,249,-0.895919874,-2.333951066,7,Experiment,,,,,,,,,117,132,-125,22,,,,,,,,,,,,,,,677.3879394,677.8845075,677.3879394,677.8845075,70.06802721,1575493084,1575493091,7.63772583,1575493081,1575493084,,,s11,1,45,m,expert radiologist,2019_Dec_04_1448,AdjustEyeTrack,3.1.5,60.08477674
110,Stimuli/Morph110.JPG,Stimuli/Morph110.png,Stimuli/BlurLevel5/BlurEditedMorph110,Stimuli/BlurLevel5/BlurEditedMorph110.png,Stimuli/BlurLevel5/NumberedMorphs/BlurEditedMorph110.png,Stimuli/BlurLevel5/OriginalBlur/BlurEditedMorph110.png,Stimuli/BlurMorphTrio/EditedMorph110.png,None,None,,,,,0,0,0,0,0,57,57,109,,,,,,,,,,,,,,,,,,,,,,,13,58,1,125,-1.433941091,2.047880111,110,Experiment,,,,,,,,,102,102,8,8,,,,,,,,,,,,,,,688.2682646,688.7657594,688.2682646,688.7657594,89.11564626,1575493094,1575493096,1.234627247,1575493092,1575493094,,,s11,1,45,m,expert radiologist,2019_Dec_04_1448,AdjustEyeTrack,3.1.5,60.08477674
9,Stimuli/Morph9.JPG,Stimuli/Morph9.png,Stimuli/BlurLevel5/BlurEditedMorph9,Stimuli/BlurLevel5/BlurEditedMorph9.png,Stimuli/BlurLevel5/NumberedMorphs/BlurEditedMorph9.png,Stimuli/BlurLevel5/OriginalBlur/BlurEditedMorph9.png,Stimuli/BlurMorphTrio/EditedMorph9.png,010015right.gif,Stimuli/normal_thumbnails/9right.gif,,,,,0,0,0,0,0,58,58,8,,,,,,,,,,,,,,,,,,,,,,,1,59,1,176,-2.493910126,0.174391184,9,Experiment,,,,,,,,,132,142,-133,14,,,,,,,,,,,,,,,691.4752626,691.9806894,691.4752626,691.9806894,80.95238095,1575493098,1575493100,2.716454029,1575493096,1575493098,,,s11,1,45,m,expert radiologist,2019_Dec_04_1448,AdjustEyeTrack,3.1.5,60.08477674
17,Stimuli/Morph17.JPG,Stimuli/Morph17.png,Stimuli/BlurLevel5/BlurEditedMorph17,Stimuli/BlurLevel5/BlurEditedMorph17.png,Stimuli/BlurLevel5/NumberedMorphs/BlurEditedMorph17.png,Stimuli/BlurLevel5/OriginalBlur/BlurEditedMorph17.png,Stimuli/BlurMorphTrio/EditedMorph17.png,010036right.gif,Stimuli/normal_thumbnails/17right.gif,,,,,0,0,0,0,0,59,59,16,,,,,,,,,,,,,,,,,,,,,,,96,60,1,79,0.477022488,2.454067959,17,Experiment,,,,,,,,,108,25,-8,-8,,,,,,,,,,,,,,,697.7019089,698.2148052,697.7019089,698.2148052,89.11564626,1575493104,1575493109,5.336115122,1575493101,1575493104,,,s11,1,45,m,expert radiologist,2019_Dec_04_1448,AdjustEyeTrack,3.1.5,60.08477674
99,Stimuli/Morph99.JPG,Stimuli/Morph99.png,Stimuli/BlurLevel5/BlurEditedMorph99,Stimuli/BlurLevel5/BlurEditedMorph99.png,Stimuli/BlurLevel5/NumberedMorphs/BlurEditedMorph99.png,Stimuli/BlurLevel5/OriginalBlur/BlurEditedMorph99.png,Stimuli/BlurMorphTrio/EditedMorph99.png,020299right.gif,Stimuli/normal_thumbnails/99right.gif,,,,,0,0,0,0,0,60,60,98,,,,,,,,,,,,,,,,,,,,,,,81,61,1,22,2.317959636,0.936516484,99,Experiment,,,,,,,,,66,102,-3,-3,,,,,,,,,,,,,,,705.533576,706.0315363,705.533576,706.0315363,95.91836735,1575493112,1575493116,4.291368008,1575493110,1575493112,,,s11,1,45,m,expert radiologist,2019_Dec_04_1448,AdjustEyeTrack,3.1.5,60.08477674
61,Stimuli/Morph61.JPG,Stimuli/Morph61.png,Stimuli/BlurLevel5/BlurEditedMorph61,Stimuli/BlurLevel5/BlurEditedMorph61.png,Stimuli/BlurLevel5/NumberedMorphs/BlurEditedMorph61.png,Stimuli/BlurLevel5/OriginalBlur/BlurEditedMorph61.png,Stimuli/BlurMorphTrio/EditedMorph61.png,020201right.gif,Stimuli/normal_thumbnails/61right.gif,,,,,0,0,0,0,0,61,61,60,,,,,,,,,,,,,,,,,,,,,,,60,62,1,163,-2.39076189,0.730929262,61,Experiment,,,,,,,,,137,50,11,11,,,,,,,,,,,,,,,713.1493583,713.6500863,713.1493583,713.6500863,85.03401361,1575493119,1575493124,4.566998959,1575493116,1575493119,,,s11,1,45,m,expert radiologist,2019_Dec_04_1448,AdjustEyeTrack,3.1.5,60.08477674
47,Stimuli/Morph47.JPG,Stimuli/Morph47.png,Stimuli/BlurLevel5/BlurEditedMorph47,Stimuli/BlurLevel5/BlurEditedMorph47.png,Stimuli/BlurLevel5/NumberedMorphs/BlurEditedMorph47.png,Stimuli/BlurLevel5/OriginalBlur/BlurEditedMorph47.png,Stimuli/BlurMorphTrio/EditedMorph47.png,010130right.gif,Stimuli/normal_thumbnails/47right.gif,,,,,0,0,0,0,0,62,62,46,,,,,,,,,,,,,,,,,,,,,,,65,63,1,77,0.562377636,2.435925162,47,Experiment,,,,,,,,,12,51,-4,-4,,,,,,,,,,,,,,,720.314674,720.8306091,720.314674,720.8306091,94.55782313,1575493127,1575493131,4.13369894,1575493124,1575493127,,,s11,1,45,m,expert radiologist,2019_Dec_04_1448,AdjustEyeTrack,3.1.5,60.08477674
10,Stimuli/Morph10.JPG,Stimuli/Morph10.png,Stimuli/BlurLevel5/BlurEditedMorph10,Stimuli/BlurLevel5/BlurEditedMorph10.png,Stimuli/BlurLevel5/NumberedMorphs/BlurEditedMorph10.png,Stimuli/BlurLevel5/OriginalBlur/BlurEditedMorph10.png,Stimuli/BlurMorphTrio/EditedMorph10.png,010016right.gif,Stimuli/normal_thumbnails/10right.gif,,,,,0,0,0,0,0,63,63,9,,,,,,,,,,,,,,,,,,,,,,,26,64,1,290,0.855050358,-2.349231552,10,Experiment,,,,,,,,,124,146,-136,11,,,,,,,,,,,,,,,726.9059808,727.41402,726.9059808,727.41402,85.03401361,1575493133,1575493136,3.049723148,1575493131,1575493133,,,s11,1,45,m,expert radiologist,2019_Dec_04_1448,AdjustEyeTrack,3.1.5,60.08477674
118,Stimuli/Morph118.JPG,Stimuli/Morph118.png,Stimuli/BlurLevel5/BlurEditedMorph118,Stimuli/BlurLevel5/BlurEditedMorph118.png,Stimuli/BlurLevel5/NumberedMorphs/BlurEditedMorph118.png,Stimuli/BlurLevel5/OriginalBlur/BlurEditedMorph118.png,Stimuli/BlurMorphTrio/EditedMorph118.png,None,None,,,,,0,0,0,0,0,64,64,117,,,,,,,,,,,,,,,,,,,,,,,57,65,1,230,-1.606969024,-1.915111108,118,Experiment,,,,,,,,,84,101,17,17,,,,,,,,,,,,,,,732.8331833,733.3310059,732.8331833,733.3310059,76.8707483,1575493139,1575493141,2.367795944,1575493136,1575493139,,,s11,1,45,m,expert radiologist,2019_Dec_04_1448,AdjustEyeTrack,3.1.5,60.08477674
116,Stimuli/Morph116.JPG,Stimuli/Morph116.png,Stimuli/BlurLevel5/BlurEditedMorph116,Stimuli/BlurLevel5/BlurEditedMorph116.png,Stimuli/BlurLevel5/NumberedMorphs/BlurEditedMorph116.png,Stimuli/BlurLevel5/OriginalBlur/BlurEditedMorph116.png,Stimuli/BlurMorphTrio/EditedMorph116.png,None,None,,,,,0,0,0,0,0,65,65,115,,,,,,,,,,,,,,,,,,,,,,,35,66,1,130,-1.606969024,1.915111108,116,Experiment,,,,,,,,,72,104,12,12,,,,,,,,,,,,,,,737.938856,738.4649033,737.938856,738.4649033,83.67346939,1575493144,1575493147,2.486706734,1575493142,1575493144,,,s11,1,45,m,expert radiologist,2019_Dec_04_1448,AdjustEyeTrack,3.1.5,60.08477674
101,Stimuli/Morph101.JPG,Stimuli/Morph101.png,Stimuli/BlurLevel5/BlurEditedMorph101,Stimuli/BlurLevel5/BlurEditedMorph101.png,Stimuli/BlurLevel5/NumberedMorphs/BlurEditedMorph101.png,Stimuli/BlurLevel5/OriginalBlur/BlurEditedMorph101.png,Stimuli/BlurMorphTrio/EditedMorph101.png,None,None,,,,,0,0,0,0,0,66,66,100,,,,,,,,,,,,,,,,,,,,,,,65,67,1,59,1.287595187,2.142918252,101,Experiment,,,,,,,,,96,97,4,4,,,,,,,,,,,,,,,742.9794665,743.4807289,742.9794665,743.4807289,94.55782313,1575493149,1575493152,2.73319006,1575493147,1575493149,,,s11,1,45,m,expert radiologist,2019_Dec_04_1448,AdjustEyeTrack,3.1.5,60.08477674
19,Stimuli/Morph19.JPG,Stimuli/Morph19.png,Stimuli/BlurLevel5/BlurEditedMorph19,Stimuli/BlurLevel5/BlurEditedMorph19.png,Stimuli/BlurLevel5/NumberedMorphs/BlurEditedMorph19.png,Stimuli/BlurLevel5/OriginalBlur/BlurEditedMorph19.png,Stimuli/BlurMorphTrio/EditedMorph19.png,010045right.gif,Stimuli/normal_thumbnails/19right.gif,,,,,0,0,0,0,0,67,67,18,,,,,,,,,,,,,,,,,,,,,,,62,68,1,142,-1.970026884,1.539153688,19,Experiment,,,,,,,,,28,19,0,0,,,,,,,,,,,,,,,748.6352295,749.1312419,748.6352295,749.1312419,100,1575493155,1575493161,6.016507149,1575493152,1575493155,,,s11,1,45,m,expert radiologist,2019_Dec_04_1448,AdjustEyeTrack,3.1.5,60.08477674
41,Stimuli/Morph41.JPG,Stimuli/Morph41.png,Stimuli/BlurLevel5/BlurEditedMorph41,Stimuli/BlurLevel5/BlurEditedMorph41.png,Stimuli/BlurLevel5/NumberedMorphs/BlurEditedMorph41.png,Stimuli/BlurLevel5/OriginalBlur/BlurEditedMorph41.png,Stimuli/BlurMorphTrio/EditedMorph41.png,010112right.gif,Stimuli/normal_thumbnails/41right.gif,,,,,0,0,0,0,0,68,68,40,,,,,,,,,,,,,,,,,,,,,,,82,69,1,317,1.828384254,-1.7049959,41,Experiment,,,,,,,,,54,39,2,2,,,,,,,,,,,,,,,757.2975815,757.7968352,757.2975815,757.7968352,97.27891156,1575493164,1575493167,3.234327078,1575493161,1575493164,,,s11,1,45,m,expert radiologist,2019_Dec_04_1448,AdjustEyeTrack,3.1.5,60.08477674
125,Stimuli/Morph125.JPG,Stimuli/Morph125.png,Stimuli/BlurLevel5/BlurEditedMorph125,Stimuli/BlurLevel5/BlurEditedMorph125.png,Stimuli/BlurLevel5/NumberedMorphs/BlurEditedMorph125.png,Stimuli/BlurLevel5/OriginalBlur/BlurEditedMorph125.png,Stimuli/BlurMorphTrio/EditedMorph125.png,None,None,,,,,0,0,0,0,0,69,69,124,,,,,,,,,,,,,,,,,,,,,,,60,70,1,187,-2.481365379,-0.304673359,125,Experiment,,,,,,,,,89,114,11,11,,,,,,,,,,,,,,,763.3515663,763.8636093,763.3515663,763.8636093,85.03401361,1575493170,1575493174,4.349849224,1575493167,1575493170,,,s11,1,45,m,expert radiologist,2019_Dec_04_1448,AdjustEyeTrack,3.1.5,60.08477674
93,Stimuli/Morph93.JPG,Stimuli/Morph93.png,Stimuli/BlurLevel5/BlurEditedMorph93,Stimuli/BlurLevel5/BlurEditedMorph93.png,Stimuli/BlurLevel5/NumberedMorphs/BlurEditedMorph93.png,Stimuli/BlurLevel5/OriginalBlur/BlurEditedMorph93.png,Stimuli/BlurMorphTrio/EditedMorph93.png,020280right.gif,Stimuli/normal_thumbnails/93right.gif,,,,,0,0,0,0,0,70,70,92,,,,,,,,,,,,,,,,,,,,,,,13,71,1,188,-2.475670172,-0.347932752,93,Experiment,,,,,,,,,3,116,-23,-23,,,,,,,,,,,,,,,771.1717833,771.6833994,771.1717833,771.6833994,68.70748299,1575493177,1575493180,2.867756128,1575493174,1575493177,,,s11,1,45,m,expert radiologist,2019_Dec_04_1448,AdjustEyeTrack,3.1.5,60.08477674
27,Stimuli/Morph27.JPG,Stimuli/Morph27.png,Stimuli/BlurLevel5/BlurEditedMorph27,Stimuli/BlurLevel5/BlurEditedMorph27.png,Stimuli/BlurLevel5/NumberedMorphs/BlurEditedMorph27.png,Stimuli/BlurLevel5/OriginalBlur/BlurEditedMorph27.png,Stimuli/BlurMorphTrio/EditedMorph27.png,010072right.gif,Stimuli/normal_thumbnails/27right.gif,,,,,0,0,0,0,0,71,71,26,,,,,,,,,,,,,,,,,,,,,,,65,72,1,320,1.915111108,-1.606969024,27,Experiment,,,,,,,,,47,37,-10,-10,,,,,,,,,,,,,,,776.8082159,777.3132495,776.8082159,777.3132495,86.39455782,1575493183,1575493185,2.316663027,1575493181,1575493183,,,s11,1,45,m,expert radiologist,2019_Dec_04_1448,AdjustEyeTrack,3.1.5,60.08477674
130,Stimuli/Morph130.JPG,Stimuli/Morph130.png,Stimuli/BlurLevel5/BlurEditedMorph130,Stimuli/BlurLevel5/BlurEditedMorph130.png,Stimuli/BlurLevel5/NumberedMorphs/BlurEditedMorph130.png,Stimuli/BlurLevel5/OriginalBlur/BlurEditedMorph130.png,Stimuli/BlurMorphTrio/EditedMorph130.png,None,None,,,,,0,0,0,0,0,72,72,129,,,,,,,,,,,,,,,,,,,,,,,85,73,1,207,-2.22751631,-1.134976249,130,Experiment,,,,,,,,,134,127,3,3,,,,,,,,,,,,,,,781.5186751,782.0298719,781.5186751,782.0298719,95.91836735,1575493188,1575493190,2.249658108,1575493186,1575493188,,,s11,1,45,m,expert radiologist,2019_Dec_04_1448,AdjustEyeTrack,3.1.5,60.08477674
115,Stimuli/Morph115.JPG,Stimuli/Morph115.png,Stimuli/BlurLevel5/BlurEditedMorph115,Stimuli/BlurLevel5/BlurEditedMorph115.png,Stimuli/BlurLevel5/NumberedMorphs/BlurEditedMorph115.png,Stimuli/BlurLevel5/OriginalBlur/BlurEditedMorph115.png,Stimuli/BlurMorphTrio/EditedMorph115.png,None,None,,,,,0,0,0,0,0,73,73,114,,,,,,,,,,,,,,,,,,,,,,,55,74,1,214,-2.072593931,-1.397982259,115,Experiment,,,,,,,,,124,125,-10,-10,,,,,,,,,,,,,,,786.2209878,786.7482014,786.2209878,786.7482014,86.39455782,1575493192,1575493194,1.684166193,1575493190,1575493192,,,s11,1,45,m,expert radiologist,2019_Dec_04_1448,AdjustEyeTrack,3.1.5,60.08477674
69,Stimuli/Morph69.JPG,Stimuli/Morph69.png,Stimuli/BlurLevel5/BlurEditedMorph69,Stimuli/BlurLevel5/BlurEditedMorph69.png,Stimuli/BlurLevel5/NumberedMorphs/BlurEditedMorph69.png,Stimuli/BlurLevel5/OriginalBlur/BlurEditedMorph69.png,Stimuli/BlurMorphTrio/EditedMorph69.png,020220right.gif,Stimuli/normal_thumbnails/69right.gif,,,,,0,0,0,0,0,74,74,68,,,,,,,,,,,,,,,,,,,,,,,40,75,1,336,2.283863644,-1.016841608,69,Experiment,,,,,,,,,35,125,-56,-56,,,,,,,,,,,,,,,790.800117,791.2977079,790.800117,791.2977079,23.80952381,1575493197,1575493209,11.85033917,1575493194,1575493197,,,s11,1,45,m,expert radiologist,2019_Dec_04_1448,AdjustEyeTrack,3.1.5,60.08477674
88,Stimuli/Morph88.JPG,Stimuli/Morph88.png,Stimuli/BlurLevel5/BlurEditedMorph88,Stimuli/BlurLevel5/BlurEditedMorph88.png,Stimuli/BlurLevel5/NumberedMorphs/BlurEditedMorph88.png,Stimuli/BlurLevel5/OriginalBlur/BlurEditedMorph88.png,Stimuli/BlurMorphTrio/EditedMorph88.png,020271right.gif,Stimuli/normal_thumbnails/88right.gif,,,,,0,0,0,0,0,75,75,87,,,,,,,,,,,,,,,,,,,,,,,76,76,1,14,2.425739316,0.604804739,88,Experiment,,,,,,,,,129,111,-23,-23,,,,,,,,,,,,,,,805.0548342,805.5650796,805.0548342,805.5650796,68.70748299,1575493211,1575493213,1.343238831,1575493209,1575493211,,,s11,1,45,m,expert radiologist,2019_Dec_04_1448,AdjustEyeTrack,3.1.5,60.08477674
23,Stimuli/Morph23.JPG,Stimuli/Morph23.png,Stimuli/BlurLevel5/BlurEditedMorph23,Stimuli/BlurLevel5/BlurEditedMorph23.png,Stimuli/BlurLevel5/NumberedMorphs/BlurEditedMorph23.png,Stimuli/BlurLevel5/OriginalBlur/BlurEditedMorph23.png,Stimuli/BlurMorphTrio/EditedMorph23.png,010063right.gif,Stimuli/normal_thumbnails/23right.gif,,,,,0,0,0,0,0,76,76,22,,,,,,,,,,,,,,,,,,,,,,,61,77,1,132,-1.672826516,1.857862064,23,Experiment,,,,,,,,,22,22,1,1,,,,,,,,,,,,,,,809.4859396,809.9803231,809.4859396,809.9803231,98.63945578,1575493216,1575493217,1.14926815,1575493213,1575493216,,,s11,1,45,m,expert radiologist,2019_Dec_04_1448,AdjustEyeTrack,3.1.5,60.08477674
126,Stimuli/Morph126.JPG,Stimuli/Morph126.png,Stimuli/BlurLevel5/BlurEditedMorph126,Stimuli/BlurLevel5/BlurEditedMorph126.png,Stimuli/BlurLevel5/NumberedMorphs/BlurEditedMorph126.png,Stimuli/BlurLevel5/OriginalBlur/BlurEditedMorph126.png,Stimuli/BlurMorphTrio/EditedMorph126.png,None,None,,,,,0,0,0,0,0,77,77,125,,,,,,,,,,,,,,,,,,,,,,,90,78,1,189,-2.469220851,-0.391086163,126,Experiment,,,,,,,,,35,111,15,15,,,,,,,,,,,,,,,813.3133151,813.8139825,813.3133151,813.8139825,79.59183673,1575493220,1575493225,5.42005825,1575493217,1575493220,,,s11,1,45,m,expert radiologist,2019_Dec_04_1448,AdjustEyeTrack,3.1.5,60.08477674
57,Stimuli/Morph57.JPG,Stimuli/Morph57.png,Stimuli/BlurLevel5/BlurEditedMorph57,Stimuli/BlurLevel5/BlurEditedMorph57.png,Stimuli/BlurLevel5/NumberedMorphs/BlurEditedMorph57.png,Stimuli/BlurLevel5/OriginalBlur/BlurEditedMorph57.png,Stimuli/BlurMorphTrio/EditedMorph57.png,010158right.gif,Stimuli/normal_thumbnails/57right.gif,,,,,0,0,0,0,0,78,78,56,,,,,,,,,,,,,,,,,,,,,,,18,79,1,32,2.12012024,1.324798161,57,Experiment,,,,,,,,,114,49,8,8,,,,,,,,,,,,,,,820.9965126,821.4963982,820.9965126,821.4963982,89.11564626,1575493227,1575493231,3.350661039,1575493225,1575493227,,,s11,1,45,m,expert radiologist,2019_Dec_04_1448,AdjustEyeTrack,3.1.5,60.08477674
5,Stimuli/Morph5.JPG,Stimuli/Morph5.png,Stimuli/BlurLevel5/BlurEditedMorph5,Stimuli/BlurLevel5/BlurEditedMorph5.png,Stimuli/BlurLevel5/NumberedMorphs/BlurEditedMorph5.png,Stimuli/BlurLevel5/OriginalBlur/BlurEditedMorph5.png,Stimuli/BlurMorphTrio/EditedMorph5.png,010011right.gif,Stimuli/normal_thumbnails/5right.gif,,,,,0,0,0,0,0,79,79,4,,,,,,,,,,,,,,,,,,,,,,,42,80,1,139,-1.886773951,1.640147572,5,Experiment,,,,,,,,,43,17,-12,-12,,,,,,,,,,,,,,,827.7052586,828.2130845,827.7052586,828.2130845,83.67346939,1575493234,1575493236,2.250398159,1575493231,1575493234,,,s11,1,45,m,expert radiologist,2019_Dec_04_1448,AdjustEyeTrack,3.1.5,60.08477674
92,Stimuli/Morph92.JPG,Stimuli/Morph92.png,Stimuli/BlurLevel5/BlurEditedMorph92,Stimuli/BlurLevel5/BlurEditedMorph92.png,Stimuli/BlurLevel5/NumberedMorphs/BlurEditedMorph92.png,Stimuli/BlurLevel5/OriginalBlur/BlurEditedMorph92.png,Stimuli/BlurMorphTrio/EditedMorph92.png,020277right.gif,Stimuli/normal_thumbnails/92right.gif,,,,,0,0,0,0,0,80,80,91,,,,,,,,,,,,,,,,,,,,,,,53,81,1,180,-2.5,3.06E-16,92,Experiment,,,,,,,,,86,95,-3,-3,,,,,,,,,,,,,,,833.0685249,833.5646384,833.0685249,833.5646384,95.91836735,1575493239,1575493242,2.395615101,1575493236,1575493239,,,s11,1,45,m,expert radiologist,2019_Dec_04_1448,AdjustEyeTrack,3.1.5,60.08477674
147,Stimuli/Morph147.JPG,Stimuli/Morph147.png,Stimuli/BlurLevel5/BlurEditedMorph147,Stimuli/BlurLevel5/BlurEditedMorph147.png,Stimuli/BlurLevel5/NumberedMorphs/BlurEditedMorph147.png,Stimuli/BlurLevel5/OriginalBlur/BlurEditedMorph147.png,Stimuli/BlurMorphTrio/EditedMorph147.png,None,None,,,,,0,0,0,0,0,81,81,146,,,,,,,,,,,,,,,,,,,,,,,25,82,1,51,1.573300978,1.942864904,147,Experiment,,,,,,,,,62,138,9,9,,,,,,,,,,,,,,,837.8137959,838.3122164,837.8137959,838.3122164,87.75510204,1575493244,1575493246,2.45085907,1575493242,1575493244,,,s11,1,45,m,expert radiologist,2019_Dec_04_1448,AdjustEyeTrack,3.1.5,60.08477674
121,Stimuli/Morph121.JPG,Stimuli/Morph121.png,Stimuli/BlurLevel5/BlurEditedMorph121,Stimuli/BlurLevel5/BlurEditedMorph121.png,Stimuli/BlurLevel5/NumberedMorphs/BlurEditedMorph121.png,Stimuli/BlurLevel5/OriginalBlur/BlurEditedMorph121.png,Stimuli/BlurMorphTrio/EditedMorph121.png,None,None,,,,,0,0,0,0,0,82,82,120,,,,,,,,,,,,,,,,,,,,,,,50,83,1,49,1.640147572,1.886773951,121,Experiment,,,,,,,,,61,115,6,6,,,,,,,,,,,,,,,842.7460513,843.2467144,842.7460513,843.2467144,91.83673469,1575493249,1575493251,2.500236988,1575493247,1575493249,,,s11,1,45,m,expert radiologist,2019_Dec_04_1448,AdjustEyeTrack,3.1.5,60.08477674
55,Stimuli/Morph55.JPG,Stimuli/Morph55.png,Stimuli/BlurLevel5/BlurEditedMorph55,Stimuli/BlurLevel5/BlurEditedMorph55.png,Stimuli/BlurLevel5/NumberedMorphs/BlurEditedMorph55.png,Stimuli/BlurLevel5/OriginalBlur/BlurEditedMorph55.png,Stimuli/BlurMorphTrio/EditedMorph55.png,010151right.gif,Stimuli/normal_thumbnails/55right.gif,,,,,0,0,0,0,0,83,83,54,,,,,,,,,,,,,,,,,,,,,,,50,84,1,7,2.481365379,0.304673359,55,Experiment,,,,,,,,,129,48,7,7,,,,,,,,,,,,,,,847.634137,848.1463807,847.634137,848.1463807,90.47619048,1575493254,1575493257,3.399659157,1575493252,1575493254,,,s11,1,45,m,expert radiologist,2019_Dec_04_1448,AdjustEyeTrack,3.1.5,60.08477674
60,Stimuli/Morph60.JPG,Stimuli/Morph60.png,Stimuli/BlurLevel5/BlurEditedMorph60,Stimuli/BlurLevel5/BlurEditedMorph60.png,Stimuli/BlurLevel5/NumberedMorphs/BlurEditedMorph60.png,Stimuli/BlurLevel5/OriginalBlur/BlurEditedMorph60.png,Stimuli/BlurMorphTrio/EditedMorph60.png,020200right.gif,Stimuli/normal_thumbnails/60right.gif,,,,,0,0,0,0,0,84,84,59,,,,,,,,,,,,,,,,,,,,,,,64,85,1,269,-0.043631016,-2.499619238,60,Experiment,,,,,,,,,121,50,10,10,,,,,,,,,,,,,,,853.8166391,854.3474035,853.8166391,854.3474035,86.39455782,1575493260,1575493264,3.949599981,1575493258,1575493260,,,s11,1,45,m,expert radiologist,2019_Dec_04_1448,AdjustEyeTrack,3.1.5,60.08477674
53,Stimuli/Morph53.JPG,Stimuli/Morph53.png,Stimuli/BlurLevel5/BlurEditedMorph53,Stimuli/BlurLevel5/BlurEditedMorph53.png,Stimuli/BlurLevel5/NumberedMorphs/BlurEditedMorph53.png,Stimuli/BlurLevel5/OriginalBlur/BlurEditedMorph53.png,Stimuli/BlurMorphTrio/EditedMorph53.png,010149right.gif,Stimuli/normal_thumbnails/53right.gif,,,,,1,0,1,0,0,0,0,52,,,,,,,,,,,,,,,,,,,,,,,39,1,2,250,-0.855050358,-2.349231552,53,Experiment,,,,,,,,,111,46,7,7,,,,,,,,,,,,,,,890.2119674,890.7284883,890.2119674,890.7284883,90.47619048,1575493296,1575493301,4.233448982,1575493294,1575493296,space,29.13400939,s11,1,45,m,expert radiologist,2019_Dec_04_1448,AdjustEyeTrack,3.1.5,60.08477674
10,Stimuli/Morph10.JPG,Stimuli/Morph10.png,Stimuli/BlurLevel5/BlurEditedMorph10,Stimuli/BlurLevel5/BlurEditedMorph10.png,Stimuli/BlurLevel5/NumberedMorphs/BlurEditedMorph10.png,Stimuli/BlurLevel5/OriginalBlur/BlurEditedMorph10.png,Stimuli/BlurMorphTrio/EditedMorph10.png,010016right.gif,Stimuli/normal_thumbnails/10right.gif,,,,,1,0,1,0,0,1,1,9,,,,,,,,,,,,,,,,,,,,,,,93,2,2,82,0.347932752,2.475670172,10,Experiment,,,,,,,,,43,145,-135,12,,,,,,,,,,,,,,,897.6314233,898.1279614,897.6314233,898.1279614,83.67346939,1575493304,1575493312,7.700077772,1575493301,1575493304,,,s11,1,45,m,expert radiologist,2019_Dec_04_1448,AdjustEyeTrack,3.1.5,60.08477674
103,Stimuli/Morph103.JPG,Stimuli/Morph103.png,Stimuli/BlurLevel5/BlurEditedMorph103,Stimuli/BlurLevel5/BlurEditedMorph103.png,Stimuli/BlurLevel5/NumberedMorphs/BlurEditedMorph103.png,Stimuli/BlurLevel5/OriginalBlur/BlurEditedMorph103.png,Stimuli/BlurMorphTrio/EditedMorph103.png,None,None,,,,,1,0,1,0,0,2,2,102,,,,,,,,,,,,,,,,,,,,,,,99,3,2,313,1.7049959,-1.828384254,103,Experiment,,,,,,,,,147,3,100,-47,,,,,,,,,,,,,,,907.8783889,908.3952496,907.8783889,908.3952496,36.05442177,1575493314,1575493351,37.20379806,1575493312,1575493314,,,s11,1,45,m,expert radiologist,2019_Dec_04_1448,AdjustEyeTrack,3.1.5,60.08477674
116,Stimuli/Morph116.JPG,Stimuli/Morph116.png,Stimuli/BlurLevel5/BlurEditedMorph116,Stimuli/BlurLevel5/BlurEditedMorph116.png,Stimuli/BlurLevel5/NumberedMorphs/BlurEditedMorph116.png,Stimuli/BlurLevel5/OriginalBlur/BlurEditedMorph116.png,Stimuli/BlurMorphTrio/EditedMorph116.png,None,None,,,,,1,0,1,0,0,3,3,115,,,,,,,,,,,,,,,,,,,,,,,26,4,2,198,-2.377641291,-0.772542486,116,Experiment,,,,,,,,,147,113,3,3,,,,,,,,,,,,,,,947.8285441,948.3282054,947.8285441,948.3282054,95.91836735,1575493354,1575493356,1.76692009,1575493352,1575493354,,,s11,1,45,m,expert radiologist,2019_Dec_04_1448,AdjustEyeTrack,3.1.5,60.08477674
54,Stimuli/Morph54.JPG,Stimuli/Morph54.png,Stimuli/BlurLevel5/BlurEditedMorph54,Stimuli/BlurLevel5/BlurEditedMorph54.png,Stimuli/BlurLevel5/NumberedMorphs/BlurEditedMorph54.png,Stimuli/BlurLevel5/OriginalBlur/BlurEditedMorph54.png,Stimuli/BlurMorphTrio/EditedMorph54.png,010150right.gif,Stimuli/normal_thumbnails/54right.gif,,,,,1,0,1,0,0,4,4,53,,,,,,,,,,,,,,,,,,,,,,,19,5,2,73,0.730929262,2.39076189,54,Experiment,,,,,,,,,81,43,11,11,,,,,,,,,,,,,,,952.7854022,953.295729,952.7854022,953.295729,85.03401361,1575493359,1575493361,1.952877045,1575493356,1575493359,,,s11,1,45,m,expert radiologist,2019_Dec_04_1448,AdjustEyeTrack,3.1.5,60.08477674
134,Stimuli/Morph134.JPG,Stimuli/Morph134.png,Stimuli/BlurLevel5/BlurEditedMorph134,Stimuli/BlurLevel5/BlurEditedMorph134.png,Stimuli/BlurLevel5/NumberedMorphs/BlurEditedMorph134.png,Stimuli/BlurLevel5/OriginalBlur/BlurEditedMorph134.png,Stimuli/BlurMorphTrio/EditedMorph134.png,None,None,,,,,1,0,1,0,0,5,5,133,,,,,,,,,,,,,,,,,,,,,,,74,6,2,176,-2.493910126,0.174391184,134,Experiment,,,,,,,,,20,135,-1,-1,,,,,,,,,,,,,,,957.3315325,957.847075,957.3315325,957.847075,98.63945578,1575493364,1575493365,1.898320913,1575493361,1575493364,,,s11,1,45,m,expert radiologist,2019_Dec_04_1448,AdjustEyeTrack,3.1.5,60.08477674
126,Stimuli/Morph126.JPG,Stimuli/Morph126.png,Stimuli/BlurLevel5/BlurEditedMorph126,Stimuli/BlurLevel5/BlurEditedMorph126.png,Stimuli/BlurLevel5/NumberedMorphs/BlurEditedMorph126.png,Stimuli/BlurLevel5/OriginalBlur/BlurEditedMorph126.png,Stimuli/BlurMorphTrio/EditedMorph126.png,None,None,,,,,1,0,1,0,0,6,6,125,,,,,,,,,,,,,,,,,,,,,,,17,7,2,276,0.261321158,-2.486304738,126,Experiment,,,,,,,,,89,118,8,8,,,,,,,,,,,,,,,961.8958863,962.4113062,961.8958863,962.4113062,89.11564626,1575493368,1575493371,3.049158096,1575493366,1575493368,,,s11,1,45,m,expert radiologist,2019_Dec_04_1448,AdjustEyeTrack,3.1.5,60.08477674
47,Stimuli/Morph47.JPG,Stimuli/Morph47.png,Stimuli/BlurLevel5/BlurEditedMorph47,Stimuli/BlurLevel5/BlurEditedMorph47.png,Stimuli/BlurLevel5/NumberedMorphs/BlurEditedMorph47.png,Stimuli/BlurLevel5/OriginalBlur/BlurEditedMorph47.png,Stimuli/BlurMorphTrio/EditedMorph47.png,010130right.gif,Stimuli/normal_thumbnails/47right.gif,,,,,1,0,1,0,0,7,7,46,,,,,,,,,,,,,,,,,,,,,,,72,8,2,187,-2.481365379,-0.304673359,47,Experiment,,,,,,,,,36,46,1,1,,,,,,,,,,,,,,,967.8363817,968.3492178,967.8363817,968.3492178,98.63945578,1575493374,1575493377,2.616961002,1575493371,1575493374,,,s11,1,45,m,expert radiologist,2019_Dec_04_1448,AdjustEyeTrack,3.1.5,60.08477674
79,Stimuli/Morph79.JPG,Stimuli/Morph79.png,Stimuli/BlurLevel5/BlurEditedMorph79,Stimuli/BlurLevel5/BlurEditedMorph79.png,Stimuli/BlurLevel5/NumberedMorphs/BlurEditedMorph79.png,Stimuli/BlurLevel5/OriginalBlur/BlurEditedMorph79.png,Stimuli/BlurMorphTrio/EditedMorph79.png,020239right.gif,Stimuli/normal_thumbnails/79right.gif,,,,,1,0,1,0,0,8,8,78,,,,,,,,,,,,,,,,,,,,,,,72,9,2,76,0.604804739,2.425739316,79,Experiment,,,,,,,,,134,96,-17,-17,,,,,,,,,,,,,,,972.811576,973.3114636,972.811576,973.3114636,76.8707483,1575493379,1575493381,1.815927029,1575493377,1575493379,,,s11,1,45,m,expert radiologist,2019_Dec_04_1448,AdjustEyeTrack,3.1.5,60.08477674
52,Stimuli/Morph52.JPG,Stimuli/Morph52.png,Stimuli/BlurLevel5/BlurEditedMorph52,Stimuli/BlurLevel5/BlurEditedMorph52.png,Stimuli/BlurLevel5/NumberedMorphs/BlurEditedMorph52.png,Stimuli/BlurLevel5/OriginalBlur/BlurEditedMorph52.png,Stimuli/BlurMorphTrio/EditedMorph52.png,010148right.gif,Stimuli/normal_thumbnails/52right.gif,,,,,1,0,1,0,0,9,9,51,,,,,,,,,,,,,,,,,,,,,,,49,10,2,234,-1.469463131,-2.022542486,52,Experiment,,,,,,,,,109,53,-1,-1,,,,,,,,,,,,,,,977.5210001,978.0276392,977.5210001,978.0276392,98.63945578,1575493384,1575493387,3.316903114,1575493381,1575493384,,,s11,1,45,m,expert radiologist,2019_Dec_04_1448,AdjustEyeTrack,3.1.5,60.08477674
100,Stimuli/Morph100.JPG,Stimuli/Morph100.png,Stimuli/BlurLevel5/BlurEditedMorph100,Stimuli/BlurLevel5/BlurEditedMorph100.png,Stimuli/BlurLevel5/NumberedMorphs/BlurEditedMorph100.png,Stimuli/BlurLevel5/OriginalBlur/BlurEditedMorph100.png,Stimuli/BlurMorphTrio/EditedMorph100.png,020297right.gif,Stimuli/normal_thumbnails/100right.gif,,,,,1,0,1,0,0,10,10,99,,,,,,,,,,,,,,,,,,,,,,,96,11,2,4,2.493910126,0.174391184,100,Experiment,,,,,,,,,86,94,6,6,,,,,,,,,,,,,,,984.4496476,984.9790424,984.4496476,984.9790424,91.83673469,1575493391,1575493393,1.951134205,1575493387,1575493391,,,s11,1,45,m,expert radiologist,2019_Dec_04_1448,AdjustEyeTrack,3.1.5,60.08477674
104,Stimuli/Morph104.JPG,Stimuli/Morph104.png,Stimuli/BlurLevel5/BlurEditedMorph104,Stimuli/BlurLevel5/BlurEditedMorph104.png,Stimuli/BlurLevel5/NumberedMorphs/BlurEditedMorph104.png,Stimuli/BlurLevel5/OriginalBlur/BlurEditedMorph104.png,Stimuli/BlurMorphTrio/EditedMorph104.png,None,None,,,,,1,0,1,0,0,11,11,103,,,,,,,,,,,,,,,,,,,,,,,18,12,2,80,0.434120444,2.462019383,104,Experiment,,,,,,,,,109,101,3,3,,,,,,,,,,,,,,,988.8308928,989.3277388,988.8308928,989.3277388,95.91836735,1575493395,1575493397,1.70024991,1575493393,1575493395,,,s11,1,45,m,expert radiologist,2019_Dec_04_1448,AdjustEyeTrack,3.1.5,60.08477674
127,Stimuli/Morph127.JPG,Stimuli/Morph127.png,Stimuli/BlurLevel5/BlurEditedMorph127,Stimuli/BlurLevel5/BlurEditedMorph127.png,Stimuli/BlurLevel5/NumberedMorphs/BlurEditedMorph127.png,Stimuli/BlurLevel5/OriginalBlur/BlurEditedMorph127.png,Stimuli/BlurMorphTrio/EditedMorph127.png,None,None,,,,,1,0,1,0,0,12,12,126,,,,,,,,,,,,,,,,,,,,,,,48,13,2,90,1.53E-16,2.5,127,Experiment,,,,,,,,,36,115,12,12,,,,,,,,,,,,,,,993.3123532,993.8099349,993.3123532,993.8099349,83.67346939,1575493400,1575493402,2.197439909,1575493397,1575493400,,,s11,1,45,m,expert radiologist,2019_Dec_04_1448,AdjustEyeTrack,3.1.5,60.08477674
24,Stimuli/Morph24.JPG,Stimuli/Morph24.png,Stimuli/BlurLevel5/BlurEditedMorph24,Stimuli/BlurLevel5/BlurEditedMorph24.png,Stimuli/BlurLevel5/NumberedMorphs/BlurEditedMorph24.png,Stimuli/BlurLevel5/OriginalBlur/BlurEditedMorph24.png,Stimuli/BlurMorphTrio/EditedMorph24.png,010068right.gif,Stimuli/normal_thumbnails/24right.gif,,,,,1,0,1,0,0,13,13,23,,,,,,,,,,,,,,,,,,,,,,,52,14,2,11,2.454067959,0.477022488,24,Experiment,,,,,,,,,58,26,-2,-2,,,,,,,,,,,,,,,998.1307052,998.6599727,998.1307052,998.6599727,97.27891156,1575493404,1575493408,3.28405714,1575493402,1575493404,,,s11,1,45,m,expert radiologist,2019_Dec_04_1448,AdjustEyeTrack,3.1.5,60.08477674
51,Stimuli/Morph51.JPG,Stimuli/Morph51.png,Stimuli/BlurLevel5/BlurEditedMorph51,Stimuli/BlurLevel5/BlurEditedMorph51.png,Stimuli/BlurLevel5/NumberedMorphs/BlurEditedMorph51.png,Stimuli/BlurLevel5/OriginalBlur/BlurEditedMorph51.png,Stimuli/BlurMorphTrio/EditedMorph51.png,010146right.gif,Stimuli/normal_thumbnails/51right.gif,,,,,1,0,1,0,0,14,14,50,,,,,,,,,,,,,,,,,,,,,,,99,15,2,56,1.397982259,2.072593931,51,Experiment,,,,,,,,,40,48,3,3,,,,,,,,,,,,,,,1004.234603,1004.745857,1004.234603,1004.745857,95.91836735,1575493410,1575493413,2.249411106,1575493408,1575493410,,,s11,1,45,m,expert radiologist,2019_Dec_04_1448,AdjustEyeTrack,3.1.5,60.08477674
133,Stimuli/Morph133.JPG,Stimuli/Morph133.png,Stimuli/BlurLevel5/BlurEditedMorph133,Stimuli/BlurLevel5/BlurEditedMorph133.png,Stimuli/BlurLevel5/NumberedMorphs/BlurEditedMorph133.png,Stimuli/BlurLevel5/OriginalBlur/BlurEditedMorph133.png,Stimuli/BlurMorphTrio/EditedMorph133.png,None,None,,,,,1,0,1,0,0,15,15,132,,,,,,,,,,,,,,,,,,,,,,,19,16,2,271,0.043631016,-2.499619238,133,Experiment,,,,,,,,,109,133,0,0,,,,,,,,,,,,,,,1009.645235,1010.143286,1009.645235,1010.143286,100,1575493416,1575493421,4.850975037,1575493413,1575493416,,,s11,1,45,m,expert radiologist,2019_Dec_04_1448,AdjustEyeTrack,3.1.5,60.08477674
49,Stimuli/Morph49.JPG,Stimuli/Morph49.png,Stimuli/BlurLevel5/BlurEditedMorph49,Stimuli/BlurLevel5/BlurEditedMorph49.png,Stimuli/BlurLevel5/NumberedMorphs/BlurEditedMorph49.png,Stimuli/BlurLevel5/OriginalBlur/BlurEditedMorph49.png,Stimuli/BlurMorphTrio/EditedMorph49.png,010135right.gif,Stimuli/normal_thumbnails/49right.gif,,,,,1,0,1,0,0,16,16,48,,,,,,,,,,,,,,,,,,,,,,,57,17,2,229,-1.640147572,-1.886773951,49,Experiment,,,,,,,,,105,48,1,1,,,,,,,,,,,,,,,1017.504285,1018.029676,1017.504285,1018.029676,98.63945578,1575493424,1575493426,2.733014822,1575493421,1575493424,,,s11,1,45,m,expert radiologist,2019_Dec_04_1448,AdjustEyeTrack,3.1.5,60.08477674
9,Stimuli/Morph9.JPG,Stimuli/Morph9.png,Stimuli/BlurLevel5/BlurEditedMorph9,Stimuli/BlurLevel5/BlurEditedMorph9.png,Stimuli/BlurLevel5/NumberedMorphs/BlurEditedMorph9.png,Stimuli/BlurLevel5/OriginalBlur/BlurEditedMorph9.png,Stimuli/BlurMorphTrio/EditedMorph9.png,010015right.gif,Stimuli/normal_thumbnails/9right.gif,,,,,1,0,1,0,0,17,17,8,,,,,,,,,,,,,,,,,,,,,,,25,18,2,114,-1.016841608,2.283863644,9,Experiment,,,,,,,,,113,20,-11,-11,,,,,,,,,,,,,,,1022.651269,1023.177241,1022.651269,1023.177241,85.03401361,1575493429,1575493433,3.83328104,1575493427,1575493429,,,s11,1,45,m,expert radiologist,2019_Dec_04_1448,AdjustEyeTrack,3.1.5,60.08477674
140,Stimuli/Morph140.JPG,Stimuli/Morph140.png,Stimuli/BlurLevel5/BlurEditedMorph140,Stimuli/BlurLevel5/BlurEditedMorph140.png,Stimuli/BlurLevel5/NumberedMorphs/BlurEditedMorph140.png,Stimuli/BlurLevel5/OriginalBlur/BlurEditedMorph140.png,Stimuli/BlurMorphTrio/EditedMorph140.png,None,None,,,,,1,0,1,0,0,18,18,139,,,,,,,,,,,,,,,,,,,,,,,68,19,2,143,-1.996588775,1.504537558,140,Experiment,,,,,,,,,40,145,-5,-5,,,,,,,,,,,,,,,1029.111448,1029.609613,1029.111448,1029.609613,93.19727891,1575493435,1575493437,1.702256203,1575493433,1575493435,,,s11,1,45,m,expert radiologist,2019_Dec_04_1448,AdjustEyeTrack,3.1.5,60.08477674
128,Stimuli/Morph128.JPG,Stimuli/Morph128.png,Stimuli/BlurLevel5/BlurEditedMorph128,Stimuli/BlurLevel5/BlurEditedMorph128.png,Stimuli/BlurLevel5/NumberedMorphs/BlurEditedMorph128.png,Stimuli/BlurLevel5/OriginalBlur/BlurEditedMorph128.png,Stimuli/BlurMorphTrio/EditedMorph128.png,None,None,,,,,1,0,1,0,0,19,19,127,,,,,,,,,,,,,,,,,,,,,,,80,20,2,56,1.397982259,2.072593931,128,Experiment,,,,,,,,,11,127,1,1,,,,,,,,,,,,,,,1033.544139,1034.061069,1033.544139,1034.061069,98.63945578,1575493440,1575493442,2.416818857,1575493437,1575493440,,,s11,1,45,m,expert radiologist,2019_Dec_04_1448,AdjustEyeTrack,3.1.5,60.08477674
74,Stimuli/Morph74.JPG,Stimuli/Morph74.png,Stimuli/BlurLevel5/BlurEditedMorph74,Stimuli/BlurLevel5/BlurEditedMorph74.png,Stimuli/BlurLevel5/NumberedMorphs/BlurEditedMorph74.png,Stimuli/BlurLevel5/OriginalBlur/BlurEditedMorph74.png,Stimuli/BlurMorphTrio/EditedMorph74.png,020232right.gif,Stimuli/normal_thumbnails/74right.gif,,,,,1,0,1,0,0,20,20,73,,,,,,,,,,,,,,,,,,,,,,,56,21,2,39,1.942864904,1.573300978,74,Experiment,,,,,,,,,21,73,1,1,,,,,,,,,,,,,,,1039.039428,1039.561828,1039.039428,1039.561828,98.63945578,1575493445,1575493450,4.920517206,1575493442,1575493445,,,s11,1,45,m,expert radiologist,2019_Dec_04_1448,AdjustEyeTrack,3.1.5,60.08477674
90,Stimuli/Morph90.JPG,Stimuli/Morph90.png,Stimuli/BlurLevel5/BlurEditedMorph90,Stimuli/BlurLevel5/BlurEditedMorph90.png,Stimuli/BlurLevel5/NumberedMorphs/BlurEditedMorph90.png,Stimuli/BlurLevel5/OriginalBlur/BlurEditedMorph90.png,Stimuli/BlurMorphTrio/EditedMorph90.png,020275right.gif,Stimuli/normal_thumbnails/90right.gif,,,,,1,0,1,0,0,21,21,89,,,,,,,,,,,,,,,,,,,,,,,38,22,2,244,-1.095927867,-2.246985116,90,Experiment,,,,,,,,,78,92,-2,-2,,,,,,,,,,,,,,,1046.677054,1047.178249,1046.677054,1047.178249,97.27891156,1575493453,1575493456,3.283998013,1575493450,1575493453,,,s11,1,45,m,expert radiologist,2019_Dec_04_1448,AdjustEyeTrack,3.1.5,60.08477674
62,Stimuli/Morph62.JPG,Stimuli/Morph62.png,Stimuli/BlurLevel5/BlurEditedMorph62,Stimuli/BlurLevel5/BlurEditedMorph62.png,Stimuli/BlurLevel5/NumberedMorphs/BlurEditedMorph62.png,Stimuli/BlurLevel5/OriginalBlur/BlurEditedMorph62.png,Stimuli/BlurMorphTrio/EditedMorph62.png,020205right.gif,Stimuli/normal_thumbnails/62right.gif,,,,,1,0,1,0,0,22,22,61,,,,,,,,,,,,,,,,,,,,,,,61,23,2,66,1.016841608,2.283863644,62,Experiment,,,,,,,,,36,54,8,8,,,,,,,,,,,,,,,1053.163883,1053.676565,1053.163883,1053.676565,89.11564626,1575493459,1575493465,5.418608904,1575493456,1575493459,,,s11,1,45,m,expert radiologist,2019_Dec_04_1448,AdjustEyeTrack,3.1.5,60.08477674
56,Stimuli/Morph56.JPG,Stimuli/Morph56.png,Stimuli/BlurLevel5/BlurEditedMorph56,Stimuli/BlurLevel5/BlurEditedMorph56.png,Stimuli/BlurLevel5/NumberedMorphs/BlurEditedMorph56.png,Stimuli/BlurLevel5/OriginalBlur/BlurEditedMorph56.png,Stimuli/BlurMorphTrio/EditedMorph56.png,010157right.gif,Stimuli/normal_thumbnails/56right.gif,,,,,1,0,1,0,0,23,23,55,,,,,,,,,,,,,,,,,,,,,,,82,24,2,47,1.7049959,1.828384254,56,Experiment,,,,,,,,,129,49,7,7,,,,,,,,,,,,,,,1061.263233,1061.762404,1061.263233,1061.762404,90.47619048,1575493467,1575493470,2.932729721,1575493465,1575493467,,,s11,1,45,m,expert radiologist,2019_Dec_04_1448,AdjustEyeTrack,3.1.5,60.08477674
98,Stimuli/Morph98.JPG,Stimuli/Morph98.png,Stimuli/BlurLevel5/BlurEditedMorph98,Stimuli/BlurLevel5/BlurEditedMorph98.png,Stimuli/BlurLevel5/NumberedMorphs/BlurEditedMorph98.png,Stimuli/BlurLevel5/OriginalBlur/BlurEditedMorph98.png,Stimuli/BlurMorphTrio/EditedMorph98.png,020298right.gif,Stimuli/normal_thumbnails/98right.gif,,,,,1,0,1,0,0,24,24,97,,,,,,,,,,,,,,,,,,,,,,,32,25,2,123,-1.361597588,2.09667642,98,Experiment,,,,,,,,,72,110,-12,-12,,,,,,,,,,,,,,,1067.17903,1067.677288,1067.17903,1067.677288,83.67346939,1575493473,1575493476,2.717713833,1575493471,1575493473,,,s11,1,45,m,expert radiologist,2019_Dec_04_1448,AdjustEyeTrack,3.1.5,60.08477674
20,Stimuli/Morph20.JPG,Stimuli/Morph20.png,Stimuli/BlurLevel5/BlurEditedMorph20,Stimuli/BlurLevel5/BlurEditedMorph20.png,Stimuli/BlurLevel5/NumberedMorphs/BlurEditedMorph20.png,Stimuli/BlurLevel5/OriginalBlur/BlurEditedMorph20.png,Stimuli/BlurMorphTrio/EditedMorph20.png,010046right.gif,Stimuli/normal_thumbnails/20right.gif,,,,,1,0,1,0,0,25,25,19,,,,,,,,,,,,,,,,,,,,,,,98,26,2,353,2.481365379,-0.304673359,20,Experiment,,,,,,,,,43,20,0,0,,,,,,,,,,,,,,,1072.87631,1073.377563,1072.87631,1073.377563,100,1575493479,1575493480,1.333368063,1575493476,1575493479,,,s11,1,45,m,expert radiologist,2019_Dec_04_1448,AdjustEyeTrack,3.1.5,60.08477674
21,Stimuli/Morph21.JPG,Stimuli/Morph21.png,Stimuli/BlurLevel5/BlurEditedMorph21,Stimuli/BlurLevel5/BlurEditedMorph21.png,Stimuli/BlurLevel5/NumberedMorphs/BlurEditedMorph21.png,Stimuli/BlurLevel5/OriginalBlur/BlurEditedMorph21.png,Stimuli/BlurMorphTrio/EditedMorph21.png,010049right.gif,Stimuli/normal_thumbnails/21right.gif,,,,,1,0,1,0,0,26,26,20,,,,,,,,,,,,,,,,,,,,,,,50,27,2,240,-1.25,-2.165063509,21,Experiment,,,,,,,,,24,14,7,7,,,,,,,,,,,,,,,1077.06003,1077.775572,1077.06003,1077.775572,90.47619048,1575493484,1575493485,1.767040014,1575493481,1575493483,,,s11,1,45,m,expert radiologist,2019_Dec_04_1448,AdjustEyeTrack,3.1.5,60.08477674
108,Stimuli/Morph108.JPG,Stimuli/Morph108.png,Stimuli/BlurLevel5/BlurEditedMorph108,Stimuli/BlurLevel5/BlurEditedMorph108.png,Stimuli/BlurLevel5/NumberedMorphs/BlurEditedMorph108.png,Stimuli/BlurLevel5/OriginalBlur/BlurEditedMorph108.png,Stimuli/BlurMorphTrio/EditedMorph108.png,None,None,,,,,1,0,1,0,0,27,27,107,,,,,,,,,,,,,,,,,,,,,,,53,28,2,198,-2.377641291,-0.772542486,108,Experiment,,,,,,,,,125,112,-4,-4,,,,,,,,,,,,,,,1081.630879,1082.159255,1081.630879,1082.159255,94.55782313,1575493488,1575493489,0.998633862,1575493486,1575493488,,,s11,1,45,m,expert radiologist,2019_Dec_04_1448,AdjustEyeTrack,3.1.5,60.08477674
91,Stimuli/Morph91.JPG,Stimuli/Morph91.png,Stimuli/BlurLevel5/BlurEditedMorph91,Stimuli/BlurLevel5/BlurEditedMorph91.png,Stimuli/BlurLevel5/NumberedMorphs/BlurEditedMorph91.png,Stimuli/BlurLevel5/OriginalBlur/BlurEditedMorph91.png,Stimuli/BlurMorphTrio/EditedMorph91.png,020276right.gif,Stimuli/normal_thumbnails/91right.gif,,,,,1,0,1,0,0,28,28,90,,,,,,,,,,,,,,,,,,,,,,,69,29,2,209,-2.186549268,-1.212024051,91,Experiment,,,,,,,,,90,96,-5,-5,,,,,,,,,,,,,,,1085.394518,1085.893373,1085.394518,1085.893373,93.19727891,1575493492,1575493494,2.119273901,1575493489,1575493492,,,s11,1,45,m,expert radiologist,2019_Dec_04_1448,AdjustEyeTrack,3.1.5,60.08477674
117,Stimuli/Morph117.JPG,Stimuli/Morph117.png,Stimuli/BlurLevel5/BlurEditedMorph117,Stimuli/BlurLevel5/BlurEditedMorph117.png,Stimuli/BlurLevel5/NumberedMorphs/BlurEditedMorph117.png,Stimuli/BlurLevel5/OriginalBlur/BlurEditedMorph117.png,Stimuli/BlurMorphTrio/EditedMorph117.png,None,None,,,,,1,0,1,0,0,29,29,116,,,,,,,,,,,,,,,,,,,,,,,16,30,2,291,0.895919874,-2.333951066,117,Experiment,,,,,,,,,106,123,-6,-6,,,,,,,,,,,,,,,1090.477344,1090.975877,1090.477344,1090.975877,91.83673469,1575493497,1575493500,2.932924032,1575493494,1575493497,,,s11,1,45,m,expert radiologist,2019_Dec_04_1448,AdjustEyeTrack,3.1.5,60.08477674
61,Stimuli/Morph61.JPG,Stimuli/Morph61.png,Stimuli/BlurLevel5/BlurEditedMorph61,Stimuli/BlurLevel5/BlurEditedMorph61.png,Stimuli/BlurLevel5/NumberedMorphs/BlurEditedMorph61.png,Stimuli/BlurLevel5/OriginalBlur/BlurEditedMorph61.png,Stimuli/BlurMorphTrio/EditedMorph61.png,020201right.gif,Stimuli/normal_thumbnails/61right.gif,,,,,1,0,1,0,0,30,30,60,,,,,,,,,,,,,,,,,,,,,,,4,31,2,259,-0.477022488,-2.454067959,61,Experiment,,,,,,,,,15,44,17,17,,,,,,,,,,,,,,,1096.56071,1097.060461,1096.56071,1097.060461,76.8707483,1575493503,1575493506,3.050257206,1575493500,1575493503,,,s11,1,45,m,expert radiologist,2019_Dec_04_1448,AdjustEyeTrack,3.1.5,60.08477674
65,Stimuli/Morph65.JPG,Stimuli/Morph65.png,Stimuli/BlurLevel5/BlurEditedMorph65,Stimuli/BlurLevel5/BlurEditedMorph65.png,Stimuli/BlurLevel5/NumberedMorphs/BlurEditedMorph65.png,Stimuli/BlurLevel5/OriginalBlur/BlurEditedMorph65.png,Stimuli/BlurMorphTrio/EditedMorph65.png,020209right.gif,Stimuli/normal_thumbnails/65right.gif,,,,,1,0,1,0,0,31,31,64,,,,,,,,,,,,,,,,,,,,,,,88,32,2,335,2.265769468,-1.056545654,65,Experiment,,,,,,,,,65,65,0,0,,,,,,,,,,,,,,,1102.60075,1103.111317,1102.60075,1103.111317,100,1575493509,1575493510,1.033566952,1575493506,1575493509,,,s11,1,45,m,expert radiologist,2019_Dec_04_1448,AdjustEyeTrack,3.1.5,60.08477674
146,Stimuli/Morph146.JPG,Stimuli/Morph146.png,Stimuli/BlurLevel5/BlurEditedMorph146,Stimuli/BlurLevel5/BlurEditedMorph146.png,Stimuli/BlurLevel5/NumberedMorphs/BlurEditedMorph146.png,Stimuli/BlurLevel5/OriginalBlur/BlurEditedMorph146.png,Stimuli/BlurMorphTrio/EditedMorph146.png,None,None,,,,,1,0,1,0,0,32,32,145,,,,,,,,,,,,,,,,,,,,,,,86,33,2,98,-0.347932752,2.475670172,146,Experiment,,,,,,,,,92,124,22,22,,,,,,,,,,,,,,,1106.535448,1107.043319,1106.535448,1107.043319,70.06802721,1575493513,1575493516,2.76761508,1575493510,1575493513,,,s11,1,45,m,expert radiologist,2019_Dec_04_1448,AdjustEyeTrack,3.1.5,60.08477674
106,Stimuli/Morph106.JPG,Stimuli/Morph106.png,Stimuli/BlurLevel5/BlurEditedMorph106,Stimuli/BlurLevel5/BlurEditedMorph106.png,Stimuli/BlurLevel5/NumberedMorphs/BlurEditedMorph106.png,Stimuli/BlurLevel5/OriginalBlur/BlurEditedMorph106.png,Stimuli/BlurMorphTrio/EditedMorph106.png,None,None,,,,,1,0,1,0,0,33,33,105,,,,,,,,,,,,,,,,,,,,,,,71,34,2,41,1.886773951,1.640147572,106,Experiment,,,,,,,,,71,122,-16,-16,,,,,,,,,,,,,,,1111.727338,1112.225511,1111.727338,1112.225511,78.23129252,1575493518,1575493520,2.42053771,1575493516,1575493518,,,s11,1,45,m,expert radiologist,2019_Dec_04_1448,AdjustEyeTrack,3.1.5,60.08477674
23,Stimuli/Morph23.JPG,Stimuli/Morph23.png,Stimuli/BlurLevel5/BlurEditedMorph23,Stimuli/BlurLevel5/BlurEditedMorph23.png,Stimuli/BlurLevel5/NumberedMorphs/BlurEditedMorph23.png,Stimuli/BlurLevel5/OriginalBlur/BlurEditedMorph23.png,Stimuli/BlurMorphTrio/EditedMorph23.png,010063right.gif,Stimuli/normal_thumbnails/23right.gif,,,,,1,0,1,0,0,34,34,22,,,,,,,,,,,,,,,,,,,,,,,37,35,2,129,-1.573300978,1.942864904,23,Experiment,,,,,,,,,51,24,-1,-1,,,,,,,,,,,,,,,1117.115096,1117.625487,1117.115096,1117.625487,98.63945578,1575493523,1575493528,4.217447281,1575493521,1575493523,,,s11,1,45,m,expert radiologist,2019_Dec_04_1448,AdjustEyeTrack,3.1.5,60.08477674
115,Stimuli/Morph115.JPG,Stimuli/Morph115.png,Stimuli/BlurLevel5/BlurEditedMorph115,Stimuli/BlurLevel5/BlurEditedMorph115.png,Stimuli/BlurLevel5/NumberedMorphs/BlurEditedMorph115.png,Stimuli/BlurLevel5/OriginalBlur/BlurEditedMorph115.png,Stimuli/BlurMorphTrio/EditedMorph115.png,None,None,,,,,1,0,1,0,0,35,35,114,,,,,,,,,,,,,,,,,,,,,,,73,36,2,227,-1.7049959,-1.828384254,115,Experiment,,,,,,,,,54,111,4,4,,,,,,,,,,,,,,,1124.06522,1124.576629,1124.06522,1124.576629,94.55782313,1575493530,1575493533,2.250364065,1575493528,1575493530,,,s11,1,45,m,expert radiologist,2019_Dec_04_1448,AdjustEyeTrack,3.1.5,60.08477674
77,Stimuli/Morph77.JPG,Stimuli/Morph77.png,Stimuli/BlurLevel5/BlurEditedMorph77,Stimuli/BlurLevel5/BlurEditedMorph77.png,Stimuli/BlurLevel5/NumberedMorphs/BlurEditedMorph77.png,Stimuli/BlurLevel5/OriginalBlur/BlurEditedMorph77.png,Stimuli/BlurMorphTrio/EditedMorph77.png,020235right.gif,Stimuli/normal_thumbnails/77right.gif,,,,,1,0,1,0,0,36,36,76,,,,,,,,,,,,,,,,,,,,,,,2,37,2,118,-1.173678907,2.207368982,77,Experiment,,,,,,,,,62,65,12,12,,,,,,,,,,,,,,,1129.010545,1129.508815,1129.010545,1129.508815,83.67346939,1575493535,1575493537,1.898468018,1575493533,1575493535,,,s11,1,45,m,expert radiologist,2019_Dec_04_1448,AdjustEyeTrack,3.1.5,60.08477674
41,Stimuli/Morph41.JPG,Stimuli/Morph41.png,Stimuli/BlurLevel5/BlurEditedMorph41,Stimuli/BlurLevel5/BlurEditedMorph41.png,Stimuli/BlurLevel5/NumberedMorphs/BlurEditedMorph41.png,Stimuli/BlurLevel5/OriginalBlur/BlurEditedMorph41.png,Stimuli/BlurMorphTrio/EditedMorph41.png,010112right.gif,Stimuli/normal_thumbnails/41right.gif,,,,,1,0,1,0,0,37,37,40,,,,,,,,,,,,,,,,,,,,,,,92,38,2,158,-2.317959636,0.936516484,41,Experiment,,,,,,,,,118,43,-2,-2,,,,,,,,,,,,,,,1134.472228,1135.041948,1134.472228,1135.041948,97.27891156,1575493541,1575493544,2.765785933,1575493537,1575493541,,,s11,1,45,m,expert radiologist,2019_Dec_04_1448,AdjustEyeTrack,3.1.5,60.08477674
96,Stimuli/Morph96.JPG,Stimuli/Morph96.png,Stimuli/BlurLevel5/BlurEditedMorph96,Stimuli/BlurLevel5/BlurEditedMorph96.png,Stimuli/BlurLevel5/NumberedMorphs/BlurEditedMorph96.png,Stimuli/BlurLevel5/OriginalBlur/BlurEditedMorph96.png,Stimuli/BlurMorphTrio/EditedMorph96.png,020292right.gif,Stimuli/normal_thumbnails/96right.gif,,,,,1,0,1,0,0,38,38,95,,,,,,,,,,,,,,,,,,,,,,,13,39,2,357,2.496573837,-0.130839891,96,Experiment,,,,,,,,,127,111,-15,-15,,,,,,,,,,,,,,,1139.975562,1140.493392,1139.975562,1140.493392,79.59183673,1575493546,1575493548,1.698601007,1575493544,1575493546,,,s11,1,45,m,expert radiologist,2019_Dec_04_1448,AdjustEyeTrack,3.1.5,60.08477674
80,Stimuli/Morph80.JPG,Stimuli/Morph80.png,Stimuli/BlurLevel5/BlurEditedMorph80,Stimuli/BlurLevel5/BlurEditedMorph80.png,Stimuli/BlurLevel5/NumberedMorphs/BlurEditedMorph80.png,Stimuli/BlurLevel5/OriginalBlur/BlurEditedMorph80.png,Stimuli/BlurMorphTrio/EditedMorph80.png,020240right.gif,Stimuli/normal_thumbnails/80right.gif,,,,,1,0,1,0,0,39,39,79,,,,,,,,,,,,,,,,,,,,,,,65,40,2,350,2.462019383,-0.434120444,80,Experiment,,,,,,,,,65,79,1,1,,,,,,,,,,,,,,,1144.249286,1144.778034,1144.249286,1144.778034,98.63945578,1575493551,1575493554,3.432803869,1575493548,1575493550,,,s11,1,45,m,expert radiologist,2019_Dec_04_1448,AdjustEyeTrack,3.1.5,60.08477674
110,Stimuli/Morph110.JPG,Stimuli/Morph110.png,Stimuli/BlurLevel5/BlurEditedMorph110,Stimuli/BlurLevel5/BlurEditedMorph110.png,Stimuli/BlurLevel5/NumberedMorphs/BlurEditedMorph110.png,Stimuli/BlurLevel5/OriginalBlur/BlurEditedMorph110.png,Stimuli/BlurMorphTrio/EditedMorph110.png,None,None,,,,,1,0,1,0,0,40,40,109,,,,,,,,,,,,,,,,,,,,,,,80,41,2,288,0.772542486,-2.377641291,110,Experiment,,,,,,,,,69,97,13,13,,,,,,,,,,,,,,,1150.26117,1150.757948,1150.26117,1150.757948,82.31292517,1575493556,1575493559,2.466054916,1575493554,1575493556,,,s11,1,45,m,expert radiologist,2019_Dec_04_1448,AdjustEyeTrack,3.1.5,60.08477674
19,Stimuli/Morph19.JPG,Stimuli/Morph19.png,Stimuli/BlurLevel5/BlurEditedMorph19,Stimuli/BlurLevel5/BlurEditedMorph19.png,Stimuli/BlurLevel5/NumberedMorphs/BlurEditedMorph19.png,Stimuli/BlurLevel5/OriginalBlur/BlurEditedMorph19.png,Stimuli/BlurMorphTrio/EditedMorph19.png,010045right.gif,Stimuli/normal_thumbnails/19right.gif,,,,,1,0,1,0,0,41,41,18,,,,,,,,,,,,,,,,,,,,,,,27,42,2,119,-1.212024051,2.186549268,19,Experiment,,,,,,,,,87,22,-3,-3,,,,,,,,,,,,,,,1155.405631,1155.908355,1155.405631,1155.908355,95.91836735,1575493562,1575493566,4.21747303,1575493559,1575493562,,,s11,1,45,m,expert radiologist,2019_Dec_04_1448,AdjustEyeTrack,3.1.5,60.08477674
38,Stimuli/Morph38.JPG,Stimuli/Morph38.png,Stimuli/BlurLevel5/BlurEditedMorph38,Stimuli/BlurLevel5/BlurEditedMorph38.png,Stimuli/BlurLevel5/NumberedMorphs/BlurEditedMorph38.png,Stimuli/BlurLevel5/OriginalBlur/BlurEditedMorph38.png,Stimuli/BlurMorphTrio/EditedMorph38.png,010108right.gif,Stimuli/normal_thumbnails/38right.gif,,,,,1,0,1,0,0,42,42,37,,,,,,,,,,,,,,,,,,,,,,,32,43,2,74,0.68909339,2.40315424,38,Experiment,,,,,,,,,34,34,4,4,,,,,,,,,,,,,,,1162.552644,1163.058354,1162.552644,1163.058354,94.55782313,1575493569,1575493570,1.031449795,1575493566,1575493569,,,s11,1,45,m,expert radiologist,2019_Dec_04_1448,AdjustEyeTrack,3.1.5,60.08477674
36,Stimuli/Morph36.JPG,Stimuli/Morph36.png,Stimuli/BlurLevel5/BlurEditedMorph36,Stimuli/BlurLevel5/BlurEditedMorph36.png,Stimuli/BlurLevel5/NumberedMorphs/BlurEditedMorph36.png,Stimuli/BlurLevel5/OriginalBlur/BlurEditedMorph36.png,Stimuli/BlurMorphTrio/EditedMorph36.png,010095right.gif,Stimuli/normal_thumbnails/36right.gif,,,,,1,0,1,0,0,43,43,35,,,,,,,,,,,,,,,,,,,,,,,10,44,2,36,2.022542486,1.469463131,36,Experiment,,,,,,,,,18,29,7,7,,,,,,,,,,,,,,,1166.36269,1166.858515,1166.36269,1166.858515,90.47619048,1575493573,1575493576,2.984371901,1575493570,1575493573,,,s11,1,45,m,expert radiologist,2019_Dec_04_1448,AdjustEyeTrack,3.1.5,60.08477674
48,Stimuli/Morph48.JPG,Stimuli/Morph48.png,Stimuli/BlurLevel5/BlurEditedMorph48,Stimuli/BlurLevel5/BlurEditedMorph48.png,Stimuli/BlurLevel5/NumberedMorphs/BlurEditedMorph48.png,Stimuli/BlurLevel5/OriginalBlur/BlurEditedMorph48.png,Stimuli/BlurMorphTrio/EditedMorph48.png,010131right.gif,Stimuli/normal_thumbnails/48right.gif,,,,,1,0,1,0,0,44,44,47,,,,,,,,,,,,,,,,,,,,,,,68,45,2,346,2.425739316,-0.604804739,48,Experiment,,,,,,,,,17,56,-8,-8,,,,,,,,,,,,,,,1171.845105,1172.358761,1171.845105,1172.358761,89.11564626,1575493578,1575493582,3.46835804,1575493576,1575493578,,,s11,1,45,m,expert radiologist,2019_Dec_04_1448,AdjustEyeTrack,3.1.5,60.08477674
37,Stimuli/Morph37.JPG,Stimuli/Morph37.png,Stimuli/BlurLevel5/BlurEditedMorph37,Stimuli/BlurLevel5/BlurEditedMorph37.png,Stimuli/BlurLevel5/NumberedMorphs/BlurEditedMorph37.png,Stimuli/BlurLevel5/OriginalBlur/BlurEditedMorph37.png,Stimuli/BlurMorphTrio/EditedMorph37.png,010097right.gif,Stimuli/normal_thumbnails/37right.gif,,,,,1,0,1,0,0,45,45,36,,,,,,,,,,,,,,,,,,,,,,,16,46,2,226,-1.736645926,-1.798349501,37,Experiment,,,,,,,,,90,56,-19,-19,,,,,,,,,,,,,,,1178.077822,1178.576263,1178.077822,1178.576263,74.14965986,1575493584,1575493586,1.500013113,1575493582,1575493584,,,s11,1,45,m,expert radiologist,2019_Dec_04_1448,AdjustEyeTrack,3.1.5,60.08477674
102,Stimuli/Morph102.JPG,Stimuli/Morph102.png,Stimuli/BlurLevel5/BlurEditedMorph102,Stimuli/BlurLevel5/BlurEditedMorph102.png,Stimuli/BlurLevel5/NumberedMorphs/BlurEditedMorph102.png,Stimuli/BlurLevel5/OriginalBlur/BlurEditedMorph102.png,Stimuli/BlurMorphTrio/EditedMorph102.png,None,None,,,,,1,0,1,0,0,46,46,101,,,,,,,,,,,,,,,,,,,,,,,28,47,2,30,2.165063509,1.25,102,Experiment,,,,,,,,,65,113,-11,-11,,,,,,,,,,,,,,,1182.57474,1183.075216,1182.57474,1183.075216,85.03401361,1575493589,1575493591,2.43190217,1575493586,1575493589,,,s11,1,45,m,expert radiologist,2019_Dec_04_1448,AdjustEyeTrack,3.1.5,60.08477674
33,Stimuli/Morph33.JPG,Stimuli/Morph33.png,Stimuli/BlurLevel5/BlurEditedMorph33,Stimuli/BlurLevel5/BlurEditedMorph33.png,Stimuli/BlurLevel5/NumberedMorphs/BlurEditedMorph33.png,Stimuli/BlurLevel5/OriginalBlur/BlurEditedMorph33.png,Stimuli/BlurMorphTrio/EditedMorph33.png,010089right.gif,Stimuli/normal_thumbnails/33right.gif,,,,,1,0,1,0,0,47,47,32,,,,,,,,,,,,,,,,,,,,,,,82,48,2,115,-1.056545654,2.265769468,33,Experiment,,,,,,,,,19,51,-18,-18,,,,,,,,,,,,,,,1187.909224,1188.40744,1187.909224,1188.40744,75.51020408,1575493594,1575493597,2.817954063,1575493592,1575493594,,,s11,1,45,m,expert radiologist,2019_Dec_04_1448,AdjustEyeTrack,3.1.5,60.08477674
145,Stimuli/Morph145.JPG,Stimuli/Morph145.png,Stimuli/BlurLevel5/BlurEditedMorph145,Stimuli/BlurLevel5/BlurEditedMorph145.png,Stimuli/BlurLevel5/NumberedMorphs/BlurEditedMorph145.png,Stimuli/BlurLevel5/OriginalBlur/BlurEditedMorph145.png,Stimuli/BlurMorphTrio/EditedMorph145.png,None,None,,,,,1,0,1,0,0,48,48,144,,,,,,,,,,,,,,,,,,,,,,,50,49,2,298,1.173678907,-2.207368982,145,Experiment,,,,,,,,,147,140,5,5,,,,,,,,,,,,,,,1193.42651,1193.961238,1193.42651,1193.961238,93.19727891,1575493600,1575493602,2.147295952,1575493597,1575493600,,,s11,1,45,m,expert radiologist,2019_Dec_04_1448,AdjustEyeTrack,3.1.5,60.08477674
97,Stimuli/Morph97.JPG,Stimuli/Morph97.png,Stimuli/BlurLevel5/BlurEditedMorph97,Stimuli/BlurLevel5/BlurEditedMorph97.png,Stimuli/BlurLevel5/NumberedMorphs/BlurEditedMorph97.png,Stimuli/BlurLevel5/OriginalBlur/BlurEditedMorph97.png,Stimuli/BlurMorphTrio/EditedMorph97.png,020294right.gif,Stimuli/normal_thumbnails/97right.gif,,,,,1,0,1,0,0,49,49,96,,,,,,,,,,,,,,,,,,,,,,,9,50,2,111,-0.895919874,2.333951066,97,Experiment,,,,,,,,,129,101,-4,-4,,,,,,,,,,,,,,,1198.152061,1198.658454,1198.152061,1198.658454,94.55782313,1575493604,1575493606,1.432850838,1575493602,1575493604,,,s11,1,45,m,expert radiologist,2019_Dec_04_1448,AdjustEyeTrack,3.1.5,60.08477674
83,Stimuli/Morph83.JPG,Stimuli/Morph83.png,Stimuli/BlurLevel5/BlurEditedMorph83,Stimuli/BlurLevel5/BlurEditedMorph83.png,Stimuli/BlurLevel5/NumberedMorphs/BlurEditedMorph83.png,Stimuli/BlurLevel5/OriginalBlur/BlurEditedMorph83.png,Stimuli/BlurMorphTrio/EditedMorph83.png,020259right.gif,Stimuli/normal_thumbnails/83right.gif,,,,,1,0,1,0,0,50,50,82,,,,,,,,,,,,,,,,,,,,,,,19,51,2,35,2.047880111,1.433941091,83,Experiment,,,,,,,,,73,112,-29,-29,,,,,,,,,,,,,,,1202.220317,1202.742644,1202.220317,1202.742644,60.54421769,1575493608,1575493611,2.631869793,1575493606,1575493608,,,s11,1,45,m,expert radiologist,2019_Dec_04_1448,AdjustEyeTrack,3.1.5,60.08477674
68,Stimuli/Morph68.JPG,Stimuli/Morph68.png,Stimuli/BlurLevel5/BlurEditedMorph68,Stimuli/BlurLevel5/BlurEditedMorph68.png,Stimuli/BlurLevel5/NumberedMorphs/BlurEditedMorph68.png,Stimuli/BlurLevel5/OriginalBlur/BlurEditedMorph68.png,Stimuli/BlurMorphTrio/EditedMorph68.png,020218right.gif,Stimuli/normal_thumbnails/68right.gif,,,,,1,0,1,0,0,51,51,67,,,,,,,,,,,,,,,,,,,,,,,21,52,2,27,2.22751631,1.134976249,68,Experiment,,,,,,,,,131,65,3,3,,,,,,,,,,,,,,,1207.311527,1207.824521,1207.311527,1207.824521,95.91836735,1575493614,1575493616,2.865516901,1575493611,1575493614,,,s11,1,45,m,expert radiologist,2019_Dec_04_1448,AdjustEyeTrack,3.1.5,60.08477674
109,Stimuli/Morph109.JPG,Stimuli/Morph109.png,Stimuli/BlurLevel5/BlurEditedMorph109,Stimuli/BlurLevel5/BlurEditedMorph109.png,Stimuli/BlurLevel5/NumberedMorphs/BlurEditedMorph109.png,Stimuli/BlurLevel5/OriginalBlur/BlurEditedMorph109.png,Stimuli/BlurMorphTrio/EditedMorph109.png,None,None,,,,,1,0,1,0,0,52,52,108,,,,,,,,,,,,,,,,,,,,,,,12,53,2,261,-0.391086163,-2.469220851,109,Experiment,,,,,,,,,27,111,-2,-2,,,,,,,,,,,,,,,1213.450598,1213.975041,1213.450598,1213.975041,97.27891156,1575493620,1575493622,1.848090887,1575493617,1575493620,,,s11,1,45,m,expert radiologist,2019_Dec_04_1448,AdjustEyeTrack,3.1.5,60.08477674
144,Stimuli/Morph144.JPG,Stimuli/Morph144.png,Stimuli/BlurLevel5/BlurEditedMorph144,Stimuli/BlurLevel5/BlurEditedMorph144.png,Stimuli/BlurLevel5/NumberedMorphs/BlurEditedMorph144.png,Stimuli/BlurLevel5/OriginalBlur/BlurEditedMorph144.png,Stimuli/BlurMorphTrio/EditedMorph144.png,None,None,,,,,1,0,1,0,0,53,53,143,,,,,,,,,,,,,,,,,,,,,,,35,54,2,271,0.043631016,-2.499619238,144,Experiment,,,,,,,,,132,138,6,6,,,,,,,,,,,,,,,1217.891294,1218.392396,1217.891294,1218.392396,91.83673469,1575493624,1575493626,1.899787903,1575493622,1575493624,,,s11,1,45,m,expert radiologist,2019_Dec_04_1448,AdjustEyeTrack,3.1.5,60.08477674
5,Stimuli/Morph5.JPG,Stimuli/Morph5.png,Stimuli/BlurLevel5/BlurEditedMorph5,Stimuli/BlurLevel5/BlurEditedMorph5.png,Stimuli/BlurLevel5/NumberedMorphs/BlurEditedMorph5.png,Stimuli/BlurLevel5/OriginalBlur/BlurEditedMorph5.png,Stimuli/BlurMorphTrio/EditedMorph5.png,010011right.gif,Stimuli/normal_thumbnails/5right.gif,,,,,1,0,1,0,0,54,54,4,,,,,,,,,,,,,,,,,,,,,,,96,55,2,131,-1.640147572,1.886773951,5,Experiment,,,,,,,,,33,137,-132,15,,,,,,,,,,,,,,,1223.530387,1224.042311,1223.530387,1224.042311,79.59183673,1575493630,1575493633,2.733311892,1575493626,1575493630,,,s11,1,45,m,expert radiologist,2019_Dec_04_1448,AdjustEyeTrack,3.1.5,60.08477674
55,Stimuli/Morph55.JPG,Stimuli/Morph55.png,Stimuli/BlurLevel5/BlurEditedMorph55,Stimuli/BlurLevel5/BlurEditedMorph55.png,Stimuli/BlurLevel5/NumberedMorphs/BlurEditedMorph55.png,Stimuli/BlurLevel5/OriginalBlur/BlurEditedMorph55.png,Stimuli/BlurMorphTrio/EditedMorph55.png,010151right.gif,Stimuli/normal_thumbnails/55right.gif,,,,,1,0,1,0,0,55,55,54,,,,,,,,,,,,,,,,,,,,,,,98,56,2,147,-2.09667642,1.361597588,55,Experiment,,,,,,,,,112,51,4,4,,,,,,,,,,,,,,,1229.346196,1229.859724,1229.346196,1229.859724,94.55782313,1575493636,1575493638,2.367073059,1575493633,1575493636,,,s11,1,45,m,expert radiologist,2019_Dec_04_1448,AdjustEyeTrack,3.1.5,60.08477674
59,Stimuli/Morph59.JPG,Stimuli/Morph59.png,Stimuli/BlurLevel5/BlurEditedMorph59,Stimuli/BlurLevel5/BlurEditedMorph59.png,Stimuli/BlurLevel5/NumberedMorphs/BlurEditedMorph59.png,Stimuli/BlurLevel5/OriginalBlur/BlurEditedMorph59.png,Stimuli/BlurMorphTrio/EditedMorph59.png,010160right.gif,Stimuli/normal_thumbnails/59right.gif,,,,,1,0,1,0,0,56,56,58,,,,,,,,,,,,,,,,,,,,,,,39,57,2,337,2.301262134,-0.976827821,59,Experiment,,,,,,,,,32,65,-6,-6,,,,,,,,,,,,,,,1234.27852,1234.79287,1234.27852,1234.79287,91.83673469,1575493641,1575493645,4.082954884,1575493638,1575493640,,,s11,1,45,m,expert radiologist,2019_Dec_04_1448,AdjustEyeTrack,3.1.5,60.08477674
