stimulusID,stimulus_JPG,stimulusPath,stimulusPath2,stimulusPath3,stimulusPath4,stimulusPath5,stimulusPath6,xRayOriginal,xRayPath,Blocks.thisRepN,Blocks.thisTrialN,Blocks.thisN,Blocks.thisIndex,Trials.thisRepN,Trials.thisTrialN,Trials.thisN,Trials.thisIndex,text_2.started,text_2.stopped,xrayID,blockNumber,trialNumber,stimLocationDeg,stimXCoord,stimYCoord,stimulusID,xray1.started,xray1.stopped,tumors.started,tumors.stopped,trialCorrect%,startRespTime,endRespTime,RT,morphTrack,morphID,errorRaw,errorCorrected,startStimTime,endStimTime,key_resp.keys,key_resp.rt,participant,session,age,gender,status,date,expName,psychopyVersion,frameRate,blockType
62,Stimuli/Morph62.JPG,Stimuli/Morph62.png,Stimuli/BlurLevel5/BlurEditedMorph62,Stimuli/BlurLevel5/BlurEditedMorph62.png,Stimuli/BlurLevel5/NumberedMorphs/BlurEditedMorph62.png,Stimuli/BlurLevel5/OriginalBlur/BlurEditedMorph62.png,Stimuli/BlurMorphTrio/EditedMorph62.png,020205right.gif,Stimuli/normal_thumbnails/62right.gif,0,0,0,0,0,0,0,61,33.9707594,None,29,1,1,299,1.212024051,-2.186549268,62,56.75081505,57.24482949,56.75081505,57.24482949,94.55782313,1574378456,1574378460,3.95025301,99,66,-4,-4,1574378454,1574378456,,,SK,1,20,F,Undergrad,2019_Nov_21_1520,AdjustExp1,3.1.5,60.4825834,Experiment
65,Stimuli/Morph65.JPG,Stimuli/Morph65.png,Stimuli/BlurLevel5/BlurEditedMorph65,Stimuli/BlurLevel5/BlurEditedMorph65.png,Stimuli/BlurLevel5/NumberedMorphs/BlurEditedMorph65.png,Stimuli/BlurLevel5/OriginalBlur/BlurEditedMorph65.png,Stimuli/BlurMorphTrio/EditedMorph65.png,020209right.gif,Stimuli/normal_thumbnails/65right.gif,0,0,0,0,0,1,1,64,,,97,1,2,312,1.672826516,-1.857862064,65,63.12853368,63.62813863,63.12853368,63.62813863,97.27891156,1574378462,1574378464,1.499927998,67,67,-2,-2,1574378460,1574378462,,,SK,1,20,F,Undergrad,2019_Nov_21_1520,AdjustExp1,3.1.5,60.4825834,Experiment
105,Stimuli/Morph105.JPG,Stimuli/Morph105.png,Stimuli/BlurLevel5/BlurEditedMorph105,Stimuli/BlurLevel5/BlurEditedMorph105.png,Stimuli/BlurLevel5/NumberedMorphs/BlurEditedMorph105.png,Stimuli/BlurLevel5/OriginalBlur/BlurEditedMorph105.png,Stimuli/BlurMorphTrio/EditedMorph105.png,None,None,0,0,0,0,0,2,2,104,,,68,1,3,135,-1.767766953,1.767766953,105,66.94453602,67.44454555,66.94453602,67.44454555,71.42857143,1574378466,1574378471,5.316936016,138,84,21,21,1574378464,1574378466,,,SK,1,20,F,Undergrad,2019_Nov_21_1520,AdjustExp1,3.1.5,60.4825834,Experiment
86,Stimuli/Morph86.JPG,Stimuli/Morph86.png,Stimuli/BlurLevel5/BlurEditedMorph86,Stimuli/BlurLevel5/BlurEditedMorph86.png,Stimuli/BlurLevel5/NumberedMorphs/BlurEditedMorph86.png,Stimuli/BlurLevel5/OriginalBlur/BlurEditedMorph86.png,Stimuli/BlurMorphTrio/EditedMorph86.png,020266right.gif,Stimuli/normal_thumbnails/86right.gif,0,0,0,0,0,3,3,85,,,9,1,4,42,1.857862064,1.672826516,86,74.42817618,74.92829399,74.42817618,74.92829399,51.02040816,1574378473,1574378478,4.566799879,23,122,-36,-36,1574378472,1574378473,,,SK,1,20,F,Undergrad,2019_Nov_21_1520,AdjustExp1,3.1.5,60.4825834,Experiment
58,Stimuli/Morph58.JPG,Stimuli/Morph58.png,Stimuli/BlurLevel5/BlurEditedMorph58,Stimuli/BlurLevel5/BlurEditedMorph58.png,Stimuli/BlurLevel5/NumberedMorphs/BlurEditedMorph58.png,Stimuli/BlurLevel5/OriginalBlur/BlurEditedMorph58.png,Stimuli/BlurMorphTrio/EditedMorph58.png,010159right.gif,Stimuli/normal_thumbnails/58right.gif,0,0,0,0,0,4,4,57,,,46,1,5,227,-1.7049959,-1.828384254,58,81.21362937,81.71151183,81.21362937,81.71151183,74.14965986,1574378480,1574378485,4.516900063,49,39,19,19,1574378478,1574378480,,,SK,1,20,F,Undergrad,2019_Nov_21_1520,AdjustExp1,3.1.5,60.4825834,Experiment
45,Stimuli/Morph45.JPG,Stimuli/Morph45.png,Stimuli/BlurLevel5/BlurEditedMorph45,Stimuli/BlurLevel5/BlurEditedMorph45.png,Stimuli/BlurLevel5/NumberedMorphs/BlurEditedMorph45.png,Stimuli/BlurLevel5/OriginalBlur/BlurEditedMorph45.png,Stimuli/BlurMorphTrio/EditedMorph45.png,010127right.gif,Stimuli/normal_thumbnails/45right.gif,0,0,0,0,0,5,5,44,,,86,1,6,250,-0.855050358,-2.349231552,45,88.08185053,88.57753045,88.08185053,88.57753045,97.27891156,1574378487,1574378490,2.566730976,139,43,2,2,1574378485,1574378487,,,SK,1,20,F,Undergrad,2019_Nov_21_1520,AdjustExp1,3.1.5,60.4825834,Experiment
36,Stimuli/Morph36.JPG,Stimuli/Morph36.png,Stimuli/BlurLevel5/BlurEditedMorph36,Stimuli/BlurLevel5/BlurEditedMorph36.png,Stimuli/BlurLevel5/NumberedMorphs/BlurEditedMorph36.png,Stimuli/BlurLevel5/OriginalBlur/BlurEditedMorph36.png,Stimuli/BlurMorphTrio/EditedMorph36.png,010095right.gif,Stimuli/normal_thumbnails/36right.gif,0,0,0,0,0,6,6,35,,,91,1,7,332,2.207368982,-1.173678907,36,93.11860522,93.61055372,93.11860522,93.61055372,87.75510204,1574378492,1574378495,2.98395896,119,45,-9,-9,1574378490,1574378492,,,SK,1,20,F,Undergrad,2019_Nov_21_1520,AdjustExp1,3.1.5,60.4825834,Experiment
17,Stimuli/Morph17.JPG,Stimuli/Morph17.png,Stimuli/BlurLevel5/BlurEditedMorph17,Stimuli/BlurLevel5/BlurEditedMorph17.png,Stimuli/BlurLevel5/NumberedMorphs/BlurEditedMorph17.png,Stimuli/BlurLevel5/OriginalBlur/BlurEditedMorph17.png,Stimuli/BlurMorphTrio/EditedMorph17.png,010036right.gif,Stimuli/normal_thumbnails/17right.gif,0,0,0,0,0,7,7,16,,,12,1,8,180,-2.5,3.06E-16,17,99.02846999,99.52788578,99.02846999,99.52788578,87.75510204,1574378498,1574378499,1.166131973,8,8,9,9,1574378495,1574378498,,,SK,1,20,F,Undergrad,2019_Nov_21_1520,AdjustExp1,3.1.5,60.4825834,Experiment
100,Stimuli/Morph100.JPG,Stimuli/Morph100.png,Stimuli/BlurLevel5/BlurEditedMorph100,Stimuli/BlurLevel5/BlurEditedMorph100.png,Stimuli/BlurLevel5/NumberedMorphs/BlurEditedMorph100.png,Stimuli/BlurLevel5/OriginalBlur/BlurEditedMorph100.png,Stimuli/BlurMorphTrio/EditedMorph100.png,020297right.gif,Stimuli/normal_thumbnails/100right.gif,0,0,0,0,0,8,8,99,,,55,1,9,212,-2.12012024,-1.324798161,100,102.7267597,103.2280467,102.7267597,103.2280467,79.59183673,1574378502,1574378504,2.367174149,52,115,-15,-15,1574378499,1574378502,,,SK,1,20,F,Undergrad,2019_Nov_21_1520,AdjustExp1,3.1.5,60.4825834,Experiment
78,Stimuli/Morph78.JPG,Stimuli/Morph78.png,Stimuli/BlurLevel5/BlurEditedMorph78,Stimuli/BlurLevel5/BlurEditedMorph78.png,Stimuli/BlurLevel5/NumberedMorphs/BlurEditedMorph78.png,Stimuli/BlurLevel5/OriginalBlur/BlurEditedMorph78.png,Stimuli/BlurMorphTrio/EditedMorph78.png,020238right.gif,Stimuli/normal_thumbnails/78right.gif,0,0,0,0,0,9,9,77,,,57,1,10,84,0.261321158,2.486304738,78,107.4799443,107.978023,107.4799443,107.978023,79.59183673,1574378506,1574378515,8.151458979,45,93,-15,-15,1574378504,1574378506,,,SK,1,20,F,Undergrad,2019_Nov_21_1520,AdjustExp1,3.1.5,60.4825834,Experiment
31,Stimuli/Morph31.JPG,Stimuli/Morph31.png,Stimuli/BlurLevel5/BlurEditedMorph31,Stimuli/BlurLevel5/BlurEditedMorph31.png,Stimuli/BlurLevel5/NumberedMorphs/BlurEditedMorph31.png,Stimuli/BlurLevel5/OriginalBlur/BlurEditedMorph31.png,Stimuli/BlurMorphTrio/EditedMorph31.png,010079right.gif,Stimuli/normal_thumbnails/31right.gif,0,0,0,0,0,10,10,30,,,81,1,11,31,2.142918252,1.287595187,31,117.8464781,118.3444791,117.8464781,118.3444791,85.03401361,1574378517,1574378519,2.617252111,147,20,11,11,1574378515,1574378517,,,SK,1,20,F,Undergrad,2019_Nov_21_1520,AdjustExp1,3.1.5,60.4825834,Experiment
59,Stimuli/Morph59.JPG,Stimuli/Morph59.png,Stimuli/BlurLevel5/BlurEditedMorph59,Stimuli/BlurLevel5/BlurEditedMorph59.png,Stimuli/BlurLevel5/NumberedMorphs/BlurEditedMorph59.png,Stimuli/BlurLevel5/OriginalBlur/BlurEditedMorph59.png,Stimuli/BlurMorphTrio/EditedMorph59.png,010160right.gif,Stimuli/normal_thumbnails/59right.gif,0,0,0,0,0,11,11,58,,,21,1,12,97,-0.304673359,2.481365379,59,123.0000185,123.4944805,123.0000185,123.4944805,79.59183673,1574378522,1574378525,2.700441122,8,44,15,15,1574378520,1574378522,,,SK,1,20,F,Undergrad,2019_Nov_21_1520,AdjustExp1,3.1.5,60.4825834,Experiment
146,Stimuli/Morph146.JPG,Stimuli/Morph146.png,Stimuli/BlurLevel5/BlurEditedMorph146,Stimuli/BlurLevel5/BlurEditedMorph146.png,Stimuli/BlurLevel5/NumberedMorphs/BlurEditedMorph146.png,Stimuli/BlurLevel5/OriginalBlur/BlurEditedMorph146.png,Stimuli/BlurMorphTrio/EditedMorph146.png,None,None,0,0,0,0,0,12,12,145,,,24,1,13,47,1.7049959,1.828384254,146,128.294321,128.7943939,128.294321,128.7943939,98.63945578,1574378527,1574378528,1.150131941,147,147,-1,-1,1574378525,1574378527,,,SK,1,20,F,Undergrad,2019_Nov_21_1520,AdjustExp1,3.1.5,60.4825834,Experiment
55,Stimuli/Morph55.JPG,Stimuli/Morph55.png,Stimuli/BlurLevel5/BlurEditedMorph55,Stimuli/BlurLevel5/BlurEditedMorph55.png,Stimuli/BlurLevel5/NumberedMorphs/BlurEditedMorph55.png,Stimuli/BlurLevel5/OriginalBlur/BlurEditedMorph55.png,Stimuli/BlurMorphTrio/EditedMorph55.png,010151right.gif,Stimuli/normal_thumbnails/55right.gif,0,0,0,0,0,13,13,54,,,40,1,14,109,-0.813920386,2.363796439,55,132.0610692,132.5609649,132.0610692,132.5609649,21.08843537,1574378531,1574378538,7.350335121,116,113,-58,-58,1574378529,1574378531,,,SK,1,20,F,Undergrad,2019_Nov_21_1520,AdjustExp1,3.1.5,60.4825834,Experiment
141,Stimuli/Morph141.JPG,Stimuli/Morph141.png,Stimuli/BlurLevel5/BlurEditedMorph141,Stimuli/BlurLevel5/BlurEditedMorph141.png,Stimuli/BlurLevel5/NumberedMorphs/BlurEditedMorph141.png,Stimuli/BlurLevel5/OriginalBlur/BlurEditedMorph141.png,Stimuli/BlurMorphTrio/EditedMorph141.png,None,None,0,0,0,0,0,14,14,140,,,92,1,15,355,2.490486745,-0.217889357,141,142.2933715,142.7940047,142.2933715,142.7940047,91.83673469,1574378541,1574378544,3.166614056,19,147,-6,-6,1574378539,1574378541,,,SK,1,20,F,Undergrad,2019_Nov_21_1520,AdjustExp1,3.1.5,60.4825834,Experiment
43,Stimuli/Morph43.JPG,Stimuli/Morph43.png,Stimuli/BlurLevel5/BlurEditedMorph43,Stimuli/BlurLevel5/BlurEditedMorph43.png,Stimuli/BlurLevel5/NumberedMorphs/BlurEditedMorph43.png,Stimuli/BlurLevel5/OriginalBlur/BlurEditedMorph43.png,Stimuli/BlurMorphTrio/EditedMorph43.png,010124right.gif,Stimuli/normal_thumbnails/43right.gif,0,0,0,0,0,15,15,42,,,73,1,16,180,-2.5,3.06E-16,43,147.9663492,148.4596748,147.9663492,148.4596748,97.27891156,1574378547,1574378550,3.383265018,144,45,-2,-2,1574378545,1574378547,,,SK,1,20,F,Undergrad,2019_Nov_21_1520,AdjustExp1,3.1.5,60.4825834,Experiment
37,Stimuli/Morph37.JPG,Stimuli/Morph37.png,Stimuli/BlurLevel5/BlurEditedMorph37,Stimuli/BlurLevel5/BlurEditedMorph37.png,Stimuli/BlurLevel5/NumberedMorphs/BlurEditedMorph37.png,Stimuli/BlurLevel5/OriginalBlur/BlurEditedMorph37.png,Stimuli/BlurMorphTrio/EditedMorph37.png,010097right.gif,Stimuli/normal_thumbnails/37right.gif,0,0,0,0,0,16,16,36,,,10,1,17,196,-2.40315424,-0.68909339,37,153.8607029,154.3604074,153.8607029,154.3604074,49.65986395,1574378553,1574378556,3.317373037,113,147,-110,37,1574378551,1574378553,,,SK,1,20,F,Undergrad,2019_Nov_21_1520,AdjustExp1,3.1.5,60.4825834,Experiment
97,Stimuli/Morph97.JPG,Stimuli/Morph97.png,Stimuli/BlurLevel5/BlurEditedMorph97,Stimuli/BlurLevel5/BlurEditedMorph97.png,Stimuli/BlurLevel5/NumberedMorphs/BlurEditedMorph97.png,Stimuli/BlurLevel5/OriginalBlur/BlurEditedMorph97.png,Stimuli/BlurMorphTrio/EditedMorph97.png,020294right.gif,Stimuli/normal_thumbnails/97right.gif,0,0,0,0,0,17,17,96,,,74,1,18,22,2.317959636,0.936516484,97,159.8494964,160.3436887,159.8494964,160.3436887,93.19727891,1574378559,1574378562,2.817061186,28,102,-5,-5,1574378556,1574378559,,,SK,1,20,F,Undergrad,2019_Nov_21_1520,AdjustExp1,3.1.5,60.4825834,Experiment
109,Stimuli/Morph109.JPG,Stimuli/Morph109.png,Stimuli/BlurLevel5/BlurEditedMorph109,Stimuli/BlurLevel5/BlurEditedMorph109.png,Stimuli/BlurLevel5/NumberedMorphs/BlurEditedMorph109.png,Stimuli/BlurLevel5/OriginalBlur/BlurEditedMorph109.png,Stimuli/BlurMorphTrio/EditedMorph109.png,None,None,0,0,0,0,0,18,18,108,,,2,1,19,332,2.207368982,-1.173678907,109,165.1777925,165.6772291,165.1777925,165.6772291,83.67346939,1574378564,1574378566,1.383744001,68,97,12,12,1574378562,1574378564,,,SK,1,20,F,Undergrad,2019_Nov_21_1520,AdjustExp1,3.1.5,60.4825834,Experiment
94,Stimuli/Morph94.JPG,Stimuli/Morph94.png,Stimuli/BlurLevel5/BlurEditedMorph94,Stimuli/BlurLevel5/BlurEditedMorph94.png,Stimuli/BlurLevel5/NumberedMorphs/BlurEditedMorph94.png,Stimuli/BlurLevel5/OriginalBlur/BlurEditedMorph94.png,Stimuli/BlurMorphTrio/EditedMorph94.png,020286right.gif,Stimuli/normal_thumbnails/94right.gif,0,0,0,0,0,19,19,93,,,21,1,20,263,-0.304673359,-2.481365379,94,169.0265156,169.52752,169.0265156,169.52752,72.78911565,1574378568,1574378572,4.333076,132,114,-20,-20,1574378566,1574378568,,,SK,1,20,F,Undergrad,2019_Nov_21_1520,AdjustExp1,3.1.5,60.4825834,Experiment
25,Stimuli/Morph25.JPG,Stimuli/Morph25.png,Stimuli/BlurLevel5/BlurEditedMorph25,Stimuli/BlurLevel5/BlurEditedMorph25.png,Stimuli/BlurLevel5/NumberedMorphs/BlurEditedMorph25.png,Stimuli/BlurLevel5/OriginalBlur/BlurEditedMorph25.png,Stimuli/BlurMorphTrio/EditedMorph25.png,010069right.gif,Stimuli/normal_thumbnails/25right.gif,0,0,0,0,0,20,20,24,,,39,1,21,99,-0.391086163,2.469220851,25,175.760036,176.2601226,175.760036,176.2601226,82.31292517,1574378575,1574378579,4.633505106,36,12,13,13,1574378573,1574378575,,,SK,1,20,F,Undergrad,2019_Nov_21_1520,AdjustExp1,3.1.5,60.4825834,Experiment
83,Stimuli/Morph83.JPG,Stimuli/Morph83.png,Stimuli/BlurLevel5/BlurEditedMorph83,Stimuli/BlurLevel5/BlurEditedMorph83.png,Stimuli/BlurLevel5/NumberedMorphs/BlurEditedMorph83.png,Stimuli/BlurLevel5/OriginalBlur/BlurEditedMorph83.png,Stimuli/BlurMorphTrio/EditedMorph83.png,020259right.gif,Stimuli/normal_thumbnails/83right.gif,0,0,0,0,0,21,21,82,,,87,1,22,143,-1.996588775,1.504537558,83,182.9983302,183.4931149,182.9983302,183.4931149,64.62585034,1574378582,1574378585,2.899363995,115,109,-26,-26,1574378580,1574378582,,,SK,1,20,F,Undergrad,2019_Nov_21_1520,AdjustExp1,3.1.5,60.4825834,Experiment
19,Stimuli/Morph19.JPG,Stimuli/Morph19.png,Stimuli/BlurLevel5/BlurEditedMorph19,Stimuli/BlurLevel5/BlurEditedMorph19.png,Stimuli/BlurLevel5/NumberedMorphs/BlurEditedMorph19.png,Stimuli/BlurLevel5/OriginalBlur/BlurEditedMorph19.png,Stimuli/BlurMorphTrio/EditedMorph19.png,010045right.gif,Stimuli/normal_thumbnails/19right.gif,0,0,0,0,0,22,22,18,,,63,1,23,344,2.40315424,-0.68909339,19,188.5326569,189.0268135,188.5326569,189.0268135,89.11564626,1574378588,1574378591,3.783168077,63,11,8,8,1574378585,1574378588,,,SK,1,20,F,Undergrad,2019_Nov_21_1520,AdjustExp1,3.1.5,60.4825834,Experiment
6,Stimuli/Morph6.JPG,Stimuli/Morph6.png,Stimuli/BlurLevel5/BlurEditedMorph6,Stimuli/BlurLevel5/BlurEditedMorph6.png,Stimuli/BlurLevel5/NumberedMorphs/BlurEditedMorph6.png,Stimuli/BlurLevel5/OriginalBlur/BlurEditedMorph6.png,Stimuli/BlurMorphTrio/EditedMorph6.png,010012right.gif,Stimuli/normal_thumbnails/6right.gif,0,0,0,0,0,23,23,5,,,45,1,24,353,2.481365379,-0.304673359,6,194.7591802,195.2592612,194.7591802,195.2592612,82.31292517,1574378594,1574378595,1.083224058,140,140,-134,13,1574378592,1574378594,,,SK,1,20,F,Undergrad,2019_Nov_21_1520,AdjustExp1,3.1.5,60.4825834,Experiment
79,Stimuli/Morph79.JPG,Stimuli/Morph79.png,Stimuli/BlurLevel5/BlurEditedMorph79,Stimuli/BlurLevel5/BlurEditedMorph79.png,Stimuli/BlurLevel5/NumberedMorphs/BlurEditedMorph79.png,Stimuli/BlurLevel5/OriginalBlur/BlurEditedMorph79.png,Stimuli/BlurMorphTrio/EditedMorph79.png,020239right.gif,Stimuli/normal_thumbnails/79right.gif,0,0,0,0,0,24,24,78,,,60,1,25,207,-2.22751631,-1.134976249,79,198.7922662,199.2934537,198.7922662,199.2934537,72.78911565,1574378598,1574378604,6.66676116,17,99,-20,-20,1574378595,1574378598,,,SK,1,20,F,Undergrad,2019_Nov_21_1520,AdjustExp1,3.1.5,60.4825834,Experiment
140,Stimuli/Morph140.JPG,Stimuli/Morph140.png,Stimuli/BlurLevel5/BlurEditedMorph140,Stimuli/BlurLevel5/BlurEditedMorph140.png,Stimuli/BlurLevel5/NumberedMorphs/BlurEditedMorph140.png,Stimuli/BlurLevel5/OriginalBlur/BlurEditedMorph140.png,Stimuli/BlurMorphTrio/EditedMorph140.png,None,None,0,0,0,0,0,25,25,139,,,76,1,26,297,1.134976249,-2.22751631,140,207.5766289,208.0766238,207.5766289,208.0766238,26.53061224,1574378607,1574378613,6.716310024,31,47,93,-54,1574378605,1574378607,,,SK,1,20,F,Undergrad,2019_Nov_21_1520,AdjustExp1,3.1.5,60.4825834,Experiment
108,Stimuli/Morph108.JPG,Stimuli/Morph108.png,Stimuli/BlurLevel5/BlurEditedMorph108,Stimuli/BlurLevel5/BlurEditedMorph108.png,Stimuli/BlurLevel5/NumberedMorphs/BlurEditedMorph108.png,Stimuli/BlurLevel5/OriginalBlur/BlurEditedMorph108.png,Stimuli/BlurMorphTrio/EditedMorph108.png,None,None,0,0,0,0,0,26,26,107,,,16,1,27,328,2.12012024,-1.324798161,108,216.8436616,217.3426925,216.8436616,217.3426925,94.55782313,1574378616,1574378619,2.683504105,63,112,-4,-4,1574378614,1574378616,,,SK,1,20,F,Undergrad,2019_Nov_21_1520,AdjustExp1,3.1.5,60.4825834,Experiment
38,Stimuli/Morph38.JPG,Stimuli/Morph38.png,Stimuli/BlurLevel5/BlurEditedMorph38,Stimuli/BlurLevel5/BlurEditedMorph38.png,Stimuli/BlurLevel5/NumberedMorphs/BlurEditedMorph38.png,Stimuli/BlurLevel5/OriginalBlur/BlurEditedMorph38.png,Stimuli/BlurMorphTrio/EditedMorph38.png,010108right.gif,Stimuli/normal_thumbnails/38right.gif,0,0,0,0,0,27,27,37,,,39,1,28,137,-1.828384254,1.7049959,38,222.3278289,222.8263828,222.3278289,222.8263828,80.95238095,1574378621,1574378625,4.083645821,75,52,-14,-14,1574378619,1574378621,,,SK,1,20,F,Undergrad,2019_Nov_21_1520,AdjustExp1,3.1.5,60.4825834,Experiment
110,Stimuli/Morph110.JPG,Stimuli/Morph110.png,Stimuli/BlurLevel5/BlurEditedMorph110,Stimuli/BlurLevel5/BlurEditedMorph110.png,Stimuli/BlurLevel5/NumberedMorphs/BlurEditedMorph110.png,Stimuli/BlurLevel5/OriginalBlur/BlurEditedMorph110.png,Stimuli/BlurMorphTrio/EditedMorph110.png,None,None,0,0,0,0,0,28,28,109,,,44,1,29,350,2.462019383,-0.434120444,110,228.7920335,229.2920875,228.7920335,229.2920875,98.63945578,1574378628,1574378631,3.066201925,120,109,1,1,1574378626,1574378628,,,SK,1,20,F,Undergrad,2019_Nov_21_1520,AdjustExp1,3.1.5,60.4825834,Experiment
64,Stimuli/Morph64.JPG,Stimuli/Morph64.png,Stimuli/BlurLevel5/BlurEditedMorph64,Stimuli/BlurLevel5/BlurEditedMorph64.png,Stimuli/BlurLevel5/NumberedMorphs/BlurEditedMorph64.png,Stimuli/BlurLevel5/OriginalBlur/BlurEditedMorph64.png,Stimuli/BlurMorphTrio/EditedMorph64.png,020208right.gif,Stimuli/normal_thumbnails/64right.gif,0,0,0,0,0,29,29,63,,,75,1,30,6,2.486304738,0.261321158,64,234.0778426,234.576127,234.0778426,234.576127,91.83673469,1574378633,1574378639,5.799787998,91,58,6,6,1574378631,1574378633,,,SK,1,20,F,Undergrad,2019_Nov_21_1520,AdjustExp1,3.1.5,60.4825834,Experiment
87,Stimuli/Morph87.JPG,Stimuli/Morph87.png,Stimuli/BlurLevel5/BlurEditedMorph87,Stimuli/BlurLevel5/BlurEditedMorph87.png,Stimuli/BlurLevel5/NumberedMorphs/BlurEditedMorph87.png,Stimuli/BlurLevel5/OriginalBlur/BlurEditedMorph87.png,Stimuli/BlurMorphTrio/EditedMorph87.png,020270right.gif,Stimuli/normal_thumbnails/87right.gif,0,0,0,0,0,30,30,86,,,3,1,31,148,-2.12012024,1.324798161,87,242.4603739,242.9596041,242.4603739,242.9596041,76.8707483,1574378641,1574378645,3.766653299,16,104,-17,-17,1574378639,1574378641,,,SK,1,20,F,Undergrad,2019_Nov_21_1520,AdjustExp1,3.1.5,60.4825834,Experiment
14,Stimuli/Morph14.JPG,Stimuli/Morph14.png,Stimuli/BlurLevel5/BlurEditedMorph14,Stimuli/BlurLevel5/BlurEditedMorph14.png,Stimuli/BlurLevel5/NumberedMorphs/BlurEditedMorph14.png,Stimuli/BlurLevel5/OriginalBlur/BlurEditedMorph14.png,Stimuli/BlurMorphTrio/EditedMorph14.png,010030right.gif,Stimuli/normal_thumbnails/14right.gif,0,0,0,0,0,31,31,13,,,67,1,32,41,1.886773951,1.640147572,14,248.9090995,249.4090753,248.9090995,249.4090753,78.23129252,1574378648,1574378652,4.18407774,138,145,-131,16,1574378645,1574378648,,,SK,1,20,F,Undergrad,2019_Nov_21_1520,AdjustExp1,3.1.5,60.4825834,Experiment
77,Stimuli/Morph77.JPG,Stimuli/Morph77.png,Stimuli/BlurLevel5/BlurEditedMorph77,Stimuli/BlurLevel5/BlurEditedMorph77.png,Stimuli/BlurLevel5/NumberedMorphs/BlurEditedMorph77.png,Stimuli/BlurLevel5/OriginalBlur/BlurEditedMorph77.png,Stimuli/BlurMorphTrio/EditedMorph77.png,020235right.gif,Stimuli/normal_thumbnails/77right.gif,0,0,0,0,0,32,32,76,,,5,1,33,134,-1.736645926,1.798349501,77,255.6918959,256.1925749,255.6918959,256.1925749,25.17006803,1574378655,1574378660,5.533403158,103,132,-55,-55,1574378652,1574378655,,,SK,1,20,F,Undergrad,2019_Nov_21_1520,AdjustExp1,3.1.5,60.4825834,Experiment
130,Stimuli/Morph130.JPG,Stimuli/Morph130.png,Stimuli/BlurLevel5/BlurEditedMorph130,Stimuli/BlurLevel5/BlurEditedMorph130.png,Stimuli/BlurLevel5/NumberedMorphs/BlurEditedMorph130.png,Stimuli/BlurLevel5/OriginalBlur/BlurEditedMorph130.png,Stimuli/BlurMorphTrio/EditedMorph130.png,None,None,0,0,0,0,0,33,33,129,,,10,1,34,203,-2.301262134,-0.976827821,130,263.7625521,264.2588311,263.7625521,264.2588311,74.14965986,1574378663,1574378667,4.516708851,78,2,128,-19,1574378660,1574378663,,,SK,1,20,F,Undergrad,2019_Nov_21_1520,AdjustExp1,3.1.5,60.4825834,Experiment
76,Stimuli/Morph76.JPG,Stimuli/Morph76.png,Stimuli/BlurLevel5/BlurEditedMorph76,Stimuli/BlurLevel5/BlurEditedMorph76.png,Stimuli/BlurLevel5/NumberedMorphs/BlurEditedMorph76.png,Stimuli/BlurLevel5/OriginalBlur/BlurEditedMorph76.png,Stimuli/BlurMorphTrio/EditedMorph76.png,020234right.gif,Stimuli/normal_thumbnails/76right.gif,0,0,0,0,0,34,34,75,,,83,1,35,271,0.043631016,-2.499619238,76,271.041187,271.5420346,271.041187,271.5420346,75.51020408,1574378670,1574378677,7.366485119,22,94,-18,-18,1574378668,1574378670,,,SK,1,20,F,Undergrad,2019_Nov_21_1520,AdjustExp1,3.1.5,60.4825834,Experiment
134,Stimuli/Morph134.JPG,Stimuli/Morph134.png,Stimuli/BlurLevel5/BlurEditedMorph134,Stimuli/BlurLevel5/BlurEditedMorph134.png,Stimuli/BlurLevel5/NumberedMorphs/BlurEditedMorph134.png,Stimuli/BlurLevel5/OriginalBlur/BlurEditedMorph134.png,Stimuli/BlurMorphTrio/EditedMorph134.png,None,None,0,0,0,0,0,35,35,133,,,88,1,36,258,-0.519779227,-2.445369002,134,281.1415636,281.6422359,281.1415636,281.6422359,76.8707483,1574378680,1574378682,2.266624928,87,4,130,-17,1574378678,1574378680,,,SK,1,20,F,Undergrad,2019_Nov_21_1520,AdjustExp1,3.1.5,60.4825834,Experiment
115,Stimuli/Morph115.JPG,Stimuli/Morph115.png,Stimuli/BlurLevel5/BlurEditedMorph115,Stimuli/BlurLevel5/BlurEditedMorph115.png,Stimuli/BlurLevel5/NumberedMorphs/BlurEditedMorph115.png,Stimuli/BlurLevel5/OriginalBlur/BlurEditedMorph115.png,Stimuli/BlurMorphTrio/EditedMorph115.png,None,None,0,0,0,0,0,36,36,114,,,69,1,37,185,-2.490486745,-0.217889357,115,286.2580139,286.9909584,286.2580139,286.9909584,78.23129252,1574378685,1574378690,4.217652798,11,99,16,16,1574378683,1574378685,,,SK,1,20,F,Undergrad,2019_Nov_21_1520,AdjustExp1,3.1.5,60.4825834,Experiment
123,Stimuli/Morph123.JPG,Stimuli/Morph123.png,Stimuli/BlurLevel5/BlurEditedMorph123,Stimuli/BlurLevel5/BlurEditedMorph123.png,Stimuli/BlurLevel5/NumberedMorphs/BlurEditedMorph123.png,Stimuli/BlurLevel5/OriginalBlur/BlurEditedMorph123.png,Stimuli/BlurMorphTrio/EditedMorph123.png,None,None,0,0,0,0,0,37,37,122,,,47,1,38,345,2.414814566,-0.647047613,123,293.227818,293.7250792,293.227818,293.7250792,33.33333333,1574378692,1574378697,4.616849899,47,25,98,-49,1574378690,1574378692,,,SK,1,20,F,Undergrad,2019_Nov_21_1520,AdjustExp1,3.1.5,60.4825834,Experiment
107,Stimuli/Morph107.JPG,Stimuli/Morph107.png,Stimuli/BlurLevel5/BlurEditedMorph107,Stimuli/BlurLevel5/BlurEditedMorph107.png,Stimuli/BlurLevel5/NumberedMorphs/BlurEditedMorph107.png,Stimuli/BlurLevel5/OriginalBlur/BlurEditedMorph107.png,Stimuli/BlurMorphTrio/EditedMorph107.png,None,None,0,0,0,0,0,38,38,106,,,52,1,39,127,-1.504537558,1.996588775,107,300.2250145,300.7254843,300.2250145,300.7254843,82.31292517,1574378699,1574378704,4.566206932,34,94,13,13,1574378697,1574378699,,,SK,1,20,F,Undergrad,2019_Nov_21_1520,AdjustExp1,3.1.5,60.4825834,Experiment
96,Stimuli/Morph96.JPG,Stimuli/Morph96.png,Stimuli/BlurLevel5/BlurEditedMorph96,Stimuli/BlurLevel5/BlurEditedMorph96.png,Stimuli/BlurLevel5/NumberedMorphs/BlurEditedMorph96.png,Stimuli/BlurLevel5/OriginalBlur/BlurEditedMorph96.png,Stimuli/BlurMorphTrio/EditedMorph96.png,020292right.gif,Stimuli/normal_thumbnails/96right.gif,0,0,0,0,0,39,39,95,,,14,1,40,167,-2.435925162,0.562377636,96,307.6419928,308.1413169,307.6419928,308.1413169,98.63945578,1574378707,1574378710,3.050149202,59,97,-1,-1,1574378704,1574378707,,,SK,1,20,F,Undergrad,2019_Nov_21_1520,AdjustExp1,3.1.5,60.4825834,Experiment
16,Stimuli/Morph16.JPG,Stimuli/Morph16.png,Stimuli/BlurLevel5/BlurEditedMorph16,Stimuli/BlurLevel5/BlurEditedMorph16.png,Stimuli/BlurLevel5/NumberedMorphs/BlurEditedMorph16.png,Stimuli/BlurLevel5/OriginalBlur/BlurEditedMorph16.png,Stimuli/BlurMorphTrio/EditedMorph16.png,010034right.gif,Stimuli/normal_thumbnails/16right.gif,0,0,0,0,0,40,40,15,,,60,1,41,27,2.22751631,1.134976249,16,313.2149503,313.7082896,313.2149503,313.7082896,98.63945578,1574378712,1574378718,5.850255013,48,17,-1,-1,1574378710,1574378712,,,SK,1,20,F,Undergrad,2019_Nov_21_1520,AdjustExp1,3.1.5,60.4825834,Experiment
92,Stimuli/Morph92.JPG,Stimuli/Morph92.png,Stimuli/BlurLevel5/BlurEditedMorph92,Stimuli/BlurLevel5/BlurEditedMorph92.png,Stimuli/BlurLevel5/NumberedMorphs/BlurEditedMorph92.png,Stimuli/BlurLevel5/OriginalBlur/BlurEditedMorph92.png,Stimuli/BlurMorphTrio/EditedMorph92.png,020277right.gif,Stimuli/normal_thumbnails/92right.gif,0,0,0,0,0,41,41,91,,,28,1,42,199,-2.363796439,-0.813920386,92,321.8081795,322.3083861,321.8081795,322.3083861,95.91836735,1574378721,1574378724,3.500823259,19,95,-3,-3,1574378718,1574378721,,,SK,1,20,F,Undergrad,2019_Nov_21_1520,AdjustExp1,3.1.5,60.4825834,Experiment
132,Stimuli/Morph132.JPG,Stimuli/Morph132.png,Stimuli/BlurLevel5/BlurEditedMorph132,Stimuli/BlurLevel5/BlurEditedMorph132.png,Stimuli/BlurLevel5/NumberedMorphs/BlurEditedMorph132.png,Stimuli/BlurLevel5/OriginalBlur/BlurEditedMorph132.png,Stimuli/BlurMorphTrio/EditedMorph132.png,None,None,0,0,0,0,0,42,42,131,,,66,1,43,292,0.936516484,-2.317959636,132,327.7412346,328.2412362,327.7412346,328.2412362,71.42857143,1574378727,1574378730,3.51658988,43,6,126,-21,1574378725,1574378727,,,SK,1,20,F,Undergrad,2019_Nov_21_1520,AdjustExp1,3.1.5,60.4825834,Experiment
116,Stimuli/Morph116.JPG,Stimuli/Morph116.png,Stimuli/BlurLevel5/BlurEditedMorph116,Stimuli/BlurLevel5/BlurEditedMorph116.png,Stimuli/BlurLevel5/NumberedMorphs/BlurEditedMorph116.png,Stimuli/BlurLevel5/OriginalBlur/BlurEditedMorph116.png,Stimuli/BlurMorphTrio/EditedMorph116.png,None,None,0,0,0,0,0,43,43,115,,,91,1,44,280,0.434120444,-2.462019383,116,333.6969749,334.1912906,333.6969749,334.1912906,85.03401361,1574378733,1574378736,3.184093952,121,105,11,11,1574378731,1574378733,,,SK,1,20,F,Undergrad,2019_Nov_21_1520,AdjustExp1,3.1.5,60.4825834,Experiment
139,Stimuli/Morph139.JPG,Stimuli/Morph139.png,Stimuli/BlurLevel5/BlurEditedMorph139,Stimuli/BlurLevel5/BlurEditedMorph139.png,Stimuli/BlurLevel5/NumberedMorphs/BlurEditedMorph139.png,Stimuli/BlurLevel5/OriginalBlur/BlurEditedMorph139.png,Stimuli/BlurMorphTrio/EditedMorph139.png,None,None,0,0,0,0,0,44,44,138,,,31,1,45,104,-0.604804739,2.425739316,139,339.4926623,339.9914472,339.4926623,339.9914472,98.63945578,1574378738,1574378744,5.666853905,57,138,1,1,1574378736,1574378738,,,SK,1,20,F,Undergrad,2019_Nov_21_1520,AdjustExp1,3.1.5,60.4825834,Experiment
90,Stimuli/Morph90.JPG,Stimuli/Morph90.png,Stimuli/BlurLevel5/BlurEditedMorph90,Stimuli/BlurLevel5/BlurEditedMorph90.png,Stimuli/BlurLevel5/NumberedMorphs/BlurEditedMorph90.png,Stimuli/BlurLevel5/OriginalBlur/BlurEditedMorph90.png,Stimuli/BlurMorphTrio/EditedMorph90.png,020275right.gif,Stimuli/normal_thumbnails/90right.gif,0,0,0,0,0,45,45,89,,,88,1,46,80,0.434120444,2.462019383,90,347.5259298,348.0243533,347.5259298,348.0243533,95.91836735,1574378747,1574378749,2.550000191,146,93,-3,-3,1574378744,1574378747,,,SK,1,20,F,Undergrad,2019_Nov_21_1520,AdjustExp1,3.1.5,60.4825834,Experiment
125,Stimuli/Morph125.JPG,Stimuli/Morph125.png,Stimuli/BlurLevel5/BlurEditedMorph125,Stimuli/BlurLevel5/BlurEditedMorph125.png,Stimuli/BlurLevel5/NumberedMorphs/BlurEditedMorph125.png,Stimuli/BlurLevel5/OriginalBlur/BlurEditedMorph125.png,Stimuli/BlurMorphTrio/EditedMorph125.png,None,None,0,0,0,0,0,46,46,124,,,61,1,47,119,-1.212024051,2.186549268,125,352.6306864,353.1245494,352.6306864,353.1245494,83.67346939,1574378752,1574378756,4.183628082,59,113,12,12,1574378749,1574378752,,,SK,1,20,F,Undergrad,2019_Nov_21_1520,AdjustExp1,3.1.5,60.4825834,Experiment
24,Stimuli/Morph24.JPG,Stimuli/Morph24.png,Stimuli/BlurLevel5/BlurEditedMorph24,Stimuli/BlurLevel5/BlurEditedMorph24.png,Stimuli/BlurLevel5/NumberedMorphs/BlurEditedMorph24.png,Stimuli/BlurLevel5/OriginalBlur/BlurEditedMorph24.png,Stimuli/BlurMorphTrio/EditedMorph24.png,010068right.gif,Stimuli/normal_thumbnails/24right.gif,0,0,0,0,0,47,47,23,,,69,1,48,32,2.12012024,1.324798161,24,359.6630618,360.1579038,359.6630618,360.1579038,85.03401361,1574378759,1574378766,7.150188923,72,13,11,11,1574378756,1574378759,,,SK,1,20,F,Undergrad,2019_Nov_21_1520,AdjustExp1,3.1.5,60.4825834,Experiment
8,Stimuli/Morph8.JPG,Stimuli/Morph8.png,Stimuli/BlurLevel5/BlurEditedMorph8,Stimuli/BlurLevel5/BlurEditedMorph8.png,Stimuli/BlurLevel5/NumberedMorphs/BlurEditedMorph8.png,Stimuli/BlurLevel5/OriginalBlur/BlurEditedMorph8.png,Stimuli/BlurMorphTrio/EditedMorph8.png,010014right.gif,Stimuli/normal_thumbnails/8right.gif,0,0,0,0,0,48,48,7,,,63,1,49,2,2.498477068,0.087248742,8,369.2904261,369.7904214,369.2904261,369.7904214,87.75510204,1574378768,1574378771,2.299366951,93,146,-138,9,1574378766,1574378768,,,SK,1,20,F,Undergrad,2019_Nov_21_1520,AdjustExp1,3.1.5,60.4825834,Experiment
50,Stimuli/Morph50.JPG,Stimuli/Morph50.png,Stimuli/BlurLevel5/BlurEditedMorph50,Stimuli/BlurLevel5/BlurEditedMorph50.png,Stimuli/BlurLevel5/NumberedMorphs/BlurEditedMorph50.png,Stimuli/BlurLevel5/OriginalBlur/BlurEditedMorph50.png,Stimuli/BlurMorphTrio/EditedMorph50.png,010142right.gif,Stimuli/normal_thumbnails/50right.gif,0,0,0,0,0,49,49,49,,,56,1,50,288,0.772542486,-2.377641291,50,374.4083132,374.906631,374.4083132,374.906631,91.83673469,1574378773,1574378779,5.683777094,35,56,-6,-6,1574378771,1574378773,,,SK,1,20,F,Undergrad,2019_Nov_21_1520,AdjustExp1,3.1.5,60.4825834,Experiment
136,Stimuli/Morph136.JPG,Stimuli/Morph136.png,Stimuli/BlurLevel5/BlurEditedMorph136,Stimuli/BlurLevel5/BlurEditedMorph136.png,Stimuli/BlurLevel5/NumberedMorphs/BlurEditedMorph136.png,Stimuli/BlurLevel5/OriginalBlur/BlurEditedMorph136.png,Stimuli/BlurMorphTrio/EditedMorph136.png,None,None,0,0,0,0,0,50,50,135,,,65,1,51,266,-0.174391184,-2.493910126,136,382.7737692,383.2738509,382.7737692,383.2738509,90.47619048,1574378782,1574378786,3.900228024,102,143,-7,-7,1574378779,1574378782,,,SK,1,20,F,Undergrad,2019_Nov_21_1520,AdjustExp1,3.1.5,60.4825834,Experiment
42,Stimuli/Morph42.JPG,Stimuli/Morph42.png,Stimuli/BlurLevel5/BlurEditedMorph42,Stimuli/BlurLevel5/BlurEditedMorph42.png,Stimuli/BlurLevel5/NumberedMorphs/BlurEditedMorph42.png,Stimuli/BlurLevel5/OriginalBlur/BlurEditedMorph42.png,Stimuli/BlurMorphTrio/EditedMorph42.png,010121right.gif,Stimuli/normal_thumbnails/42right.gif,0,0,0,0,0,51,51,41,,,68,1,52,178,-2.498477068,0.087248742,42,389.0405427,389.5405731,389.0405427,389.5405731,98.63945578,1574378788,1574378791,3.116776943,139,41,1,1,1574378786,1574378788,,,SK,1,20,F,Undergrad,2019_Nov_21_1520,AdjustExp1,3.1.5,60.4825834,Experiment
117,Stimuli/Morph117.JPG,Stimuli/Morph117.png,Stimuli/BlurLevel5/BlurEditedMorph117,Stimuli/BlurLevel5/BlurEditedMorph117.png,Stimuli/BlurLevel5/NumberedMorphs/BlurEditedMorph117.png,Stimuli/BlurLevel5/OriginalBlur/BlurEditedMorph117.png,Stimuli/BlurMorphTrio/EditedMorph117.png,None,None,0,0,0,0,0,52,52,116,,,20,1,53,0,2.5,0,117,394.757403,395.2567829,394.757403,395.2567829,59.18367347,1574378794,1574378796,2.066842794,119,147,-30,-30,1574378791,1574378794,,,SK,1,20,F,Undergrad,2019_Nov_21_1520,AdjustExp1,3.1.5,60.4825834,Experiment
13,Stimuli/Morph13.JPG,Stimuli/Morph13.png,Stimuli/BlurLevel5/BlurEditedMorph13,Stimuli/BlurLevel5/BlurEditedMorph13.png,Stimuli/BlurLevel5/NumberedMorphs/BlurEditedMorph13.png,Stimuli/BlurLevel5/OriginalBlur/BlurEditedMorph13.png,Stimuli/BlurMorphTrio/EditedMorph13.png,010027right.gif,Stimuli/normal_thumbnails/13right.gif,0,0,0,0,0,53,53,12,,,25,1,54,278,0.347932752,-2.475670172,13,399.3130845,399.8071801,399.3130845,399.8071801,98.63945578,1574378798,1574378806,7.233991861,42,12,1,1,1574378796,1574378798,,,SK,1,20,F,Undergrad,2019_Nov_21_1520,AdjustExp1,3.1.5,60.4825834,Experiment
72,Stimuli/Morph72.JPG,Stimuli/Morph72.png,Stimuli/BlurLevel5/BlurEditedMorph72,Stimuli/BlurLevel5/BlurEditedMorph72.png,Stimuli/BlurLevel5/NumberedMorphs/BlurEditedMorph72.png,Stimuli/BlurLevel5/OriginalBlur/BlurEditedMorph72.png,Stimuli/BlurMorphTrio/EditedMorph72.png,020227right.gif,Stimuli/normal_thumbnails/72right.gif,0,0,0,0,0,54,54,71,,,26,1,55,123,-1.361597588,2.09667642,72,408.8085445,409.3067064,408.8085445,409.3067064,26.53061224,1574378808,1574378819,11.59961295,111,126,-54,-54,1574378806,1574378808,,,SK,1,20,F,Undergrad,2019_Nov_21_1520,AdjustExp1,3.1.5,60.4825834,Experiment
95,Stimuli/Morph95.JPG,Stimuli/Morph95.png,Stimuli/BlurLevel5/BlurEditedMorph95,Stimuli/BlurLevel5/BlurEditedMorph95.png,Stimuli/BlurLevel5/NumberedMorphs/BlurEditedMorph95.png,Stimuli/BlurLevel5/OriginalBlur/BlurEditedMorph95.png,Stimuli/BlurMorphTrio/EditedMorph95.png,020287right.gif,Stimuli/normal_thumbnails/95right.gif,0,0,0,0,0,55,55,94,,,12,1,56,23,2.301262134,0.976827821,95,422.8967704,423.3897588,422.8967704,423.3897588,63.26530612,1574378822,1574378826,4.05077219,53,122,-27,-27,1574378820,1574378822,,,SK,1,20,F,Undergrad,2019_Nov_21_1520,AdjustExp1,3.1.5,60.4825834,Experiment
113,Stimuli/Morph113.JPG,Stimuli/Morph113.png,Stimuli/BlurLevel5/BlurEditedMorph113,Stimuli/BlurLevel5/BlurEditedMorph113.png,Stimuli/BlurLevel5/NumberedMorphs/BlurEditedMorph113.png,Stimuli/BlurLevel5/OriginalBlur/BlurEditedMorph113.png,Stimuli/BlurMorphTrio/EditedMorph113.png,None,None,0,0,0,0,0,56,56,112,,,73,1,57,200,-2.349231552,-0.855050358,113,429.3070497,429.8068426,429.3070497,429.8068426,83.67346939,1574378828,1574378830,1.699219942,114,101,12,12,1574378826,1574378828,,,SK,1,20,F,Undergrad,2019_Nov_21_1520,AdjustExp1,3.1.5,60.4825834,Experiment
68,Stimuli/Morph68.JPG,Stimuli/Morph68.png,Stimuli/BlurLevel5/BlurEditedMorph68,Stimuli/BlurLevel5/BlurEditedMorph68.png,Stimuli/BlurLevel5/NumberedMorphs/BlurEditedMorph68.png,Stimuli/BlurLevel5/OriginalBlur/BlurEditedMorph68.png,Stimuli/BlurMorphTrio/EditedMorph68.png,020218right.gif,Stimuli/normal_thumbnails/68right.gif,0,0,0,0,0,57,57,67,,,47,1,58,85,0.217889357,2.490486745,68,434.0610145,434.5565902,434.0610145,434.5565902,36.05442177,1574378833,1574378840,6.467159986,56,115,-47,-47,1574378830,1574378833,,,SK,1,20,F,Undergrad,2019_Nov_21_1520,AdjustExp1,3.1.5,60.4825834,Experiment
73,Stimuli/Morph73.JPG,Stimuli/Morph73.png,Stimuli/BlurLevel5/BlurEditedMorph73,Stimuli/BlurLevel5/BlurEditedMorph73.png,Stimuli/BlurLevel5/NumberedMorphs/BlurEditedMorph73.png,Stimuli/BlurLevel5/OriginalBlur/BlurEditedMorph73.png,Stimuli/BlurMorphTrio/EditedMorph73.png,020230right.gif,Stimuli/normal_thumbnails/73right.gif,0,0,0,0,0,58,58,72,,,91,1,59,323,1.996588775,-1.504537558,73,443.140472,443.6401589,443.140472,443.6401589,65.98639456,1574378842,1574378850,8.281781912,24,48,25,25,1574378840,1574378842,,,SK,1,20,F,Undergrad,2019_Nov_21_1520,AdjustExp1,3.1.5,60.4825834,Experiment
135,Stimuli/Morph135.JPG,Stimuli/Morph135.png,Stimuli/BlurLevel5/BlurEditedMorph135,Stimuli/BlurLevel5/BlurEditedMorph135.png,Stimuli/BlurLevel5/NumberedMorphs/BlurEditedMorph135.png,Stimuli/BlurLevel5/OriginalBlur/BlurEditedMorph135.png,Stimuli/BlurMorphTrio/EditedMorph135.png,None,None,0,0,0,0,0,59,59,134,,,100,1,60,175,-2.490486745,0.217889357,135,453.7900793,454.2895773,453.7900793,454.2895773,80.95238095,1574378853,1574378856,3.366488934,136,121,14,14,1574378851,1574378853,,,SK,1,20,F,Undergrad,2019_Nov_21_1520,AdjustExp1,3.1.5,60.4825834,Experiment
44,Stimuli/Morph44.JPG,Stimuli/Morph44.png,Stimuli/BlurLevel5/BlurEditedMorph44,Stimuli/BlurLevel5/BlurEditedMorph44.png,Stimuli/BlurLevel5/NumberedMorphs/BlurEditedMorph44.png,Stimuli/BlurLevel5/OriginalBlur/BlurEditedMorph44.png,Stimuli/BlurMorphTrio/EditedMorph44.png,010126right.gif,Stimuli/normal_thumbnails/44right.gif,0,0,0,0,0,60,60,43,,,9,1,61,294,1.016841608,-2.283863644,44,459.4558127,459.9561568,459.4558127,459.9561568,91.83673469,1574378858,1574378861,2.566226959,146,50,-6,-6,1574378856,1574378858,,,SK,1,20,F,Undergrad,2019_Nov_21_1520,AdjustExp1,3.1.5,60.4825834,Experiment
39,Stimuli/Morph39.JPG,Stimuli/Morph39.png,Stimuli/BlurLevel5/BlurEditedMorph39,Stimuli/BlurLevel5/BlurEditedMorph39.png,Stimuli/BlurLevel5/NumberedMorphs/BlurEditedMorph39.png,Stimuli/BlurLevel5/OriginalBlur/BlurEditedMorph39.png,Stimuli/BlurMorphTrio/EditedMorph39.png,010109right.gif,Stimuli/normal_thumbnails/39right.gif,0,0,0,0,0,61,61,38,,,82,1,62,131,-1.640147572,1.886773951,39,464.5897294,465.0896324,464.5897294,465.0896324,91.83673469,1574378864,1574378868,3.966595173,102,45,-6,-6,1574378861,1574378864,,,SK,1,20,F,Undergrad,2019_Nov_21_1520,AdjustExp1,3.1.5,60.4825834,Experiment
54,Stimuli/Morph54.JPG,Stimuli/Morph54.png,Stimuli/BlurLevel5/BlurEditedMorph54,Stimuli/BlurLevel5/BlurEditedMorph54.png,Stimuli/BlurLevel5/NumberedMorphs/BlurEditedMorph54.png,Stimuli/BlurLevel5/OriginalBlur/BlurEditedMorph54.png,Stimuli/BlurMorphTrio/EditedMorph54.png,010150right.gif,Stimuli/normal_thumbnails/54right.gif,0,0,0,0,0,62,62,53,,,9,1,63,186,-2.486304738,-0.261321158,54,470.6723355,471.1726041,470.6723355,471.1726041,90.47619048,1574378870,1574378874,4.633320808,70,47,7,7,1574378868,1574378870,,,SK,1,20,F,Undergrad,2019_Nov_21_1520,AdjustExp1,3.1.5,60.4825834,Experiment
46,Stimuli/Morph46.JPG,Stimuli/Morph46.png,Stimuli/BlurLevel5/BlurEditedMorph46,Stimuli/BlurLevel5/BlurEditedMorph46.png,Stimuli/BlurLevel5/NumberedMorphs/BlurEditedMorph46.png,Stimuli/BlurLevel5/OriginalBlur/BlurEditedMorph46.png,Stimuli/BlurMorphTrio/EditedMorph46.png,010128right.gif,Stimuli/normal_thumbnails/46right.gif,0,0,0,0,0,63,63,45,,,35,1,64,168,-2.445369002,0.519779227,46,477.6061383,478.1062351,477.6061383,478.1062351,38.7755102,1574378877,1574378881,4.232665062,94,1,45,45,1574378875,1574378877,,,SK,1,20,F,Undergrad,2019_Nov_21_1520,AdjustExp1,3.1.5,60.4825834,Experiment
18,Stimuli/Morph18.JPG,Stimuli/Morph18.png,Stimuli/BlurLevel5/BlurEditedMorph18,Stimuli/BlurLevel5/BlurEditedMorph18.png,Stimuli/BlurLevel5/NumberedMorphs/BlurEditedMorph18.png,Stimuli/BlurLevel5/OriginalBlur/BlurEditedMorph18.png,Stimuli/BlurMorphTrio/EditedMorph18.png,010039right.gif,Stimuli/normal_thumbnails/18right.gif,0,0,0,0,0,64,64,17,,,19,1,65,319,1.886773951,-1.640147572,18,484.3224398,484.8227412,484.3224398,484.8227412,71.42857143,1574378883,1574378885,1.283076763,133,144,-126,21,1574378881,1574378883,,,SK,1,20,F,Undergrad,2019_Nov_21_1520,AdjustExp1,3.1.5,60.4825834,Experiment
12,Stimuli/Morph12.JPG,Stimuli/Morph12.png,Stimuli/BlurLevel5/BlurEditedMorph12,Stimuli/BlurLevel5/BlurEditedMorph12.png,Stimuli/BlurLevel5/NumberedMorphs/BlurEditedMorph12.png,Stimuli/BlurLevel5/OriginalBlur/BlurEditedMorph12.png,Stimuli/BlurMorphTrio/EditedMorph12.png,010026right.gif,Stimuli/normal_thumbnails/12right.gif,0,0,0,0,0,65,65,11,,,13,1,66,109,-0.813920386,2.363796439,12,488.3059465,488.8058818,488.3059465,488.8058818,93.19727891,1574378887,1574378889,1.399995089,1,7,5,5,1574378885,1574378887,,,SK,1,20,F,Undergrad,2019_Nov_21_1520,AdjustExp1,3.1.5,60.4825834,Experiment
98,Stimuli/Morph98.JPG,Stimuli/Morph98.png,Stimuli/BlurLevel5/BlurEditedMorph98,Stimuli/BlurLevel5/BlurEditedMorph98.png,Stimuli/BlurLevel5/NumberedMorphs/BlurEditedMorph98.png,Stimuli/BlurLevel5/OriginalBlur/BlurEditedMorph98.png,Stimuli/BlurMorphTrio/EditedMorph98.png,020298right.gif,Stimuli/normal_thumbnails/98right.gif,0,0,0,0,0,66,66,97,,,42,1,67,173,-2.481365379,0.304673359,98,492.7111191,493.2061025,492.7111191,493.2061025,90.47619048,1574378892,1574378893,1.400079012,134,91,7,7,1574378889,1574378892,,,SK,1,20,F,Undergrad,2019_Nov_21_1520,AdjustExp1,3.1.5,60.4825834,Experiment
11,Stimuli/Morph11.JPG,Stimuli/Morph11.png,Stimuli/BlurLevel5/BlurEditedMorph11,Stimuli/BlurLevel5/BlurEditedMorph11.png,Stimuli/BlurLevel5/NumberedMorphs/BlurEditedMorph11.png,Stimuli/BlurLevel5/OriginalBlur/BlurEditedMorph11.png,Stimuli/BlurMorphTrio/EditedMorph11.png,010024right.gif,Stimuli/normal_thumbnails/11right.gif,0,0,0,0,0,67,67,10,,,26,1,68,357,2.496573837,-0.130839891,11,496.5275074,497.0228522,496.5275074,497.0228522,95.91836735,1574378896,1574378898,2.883885145,56,8,3,3,1574378893,1574378896,,,SK,1,20,F,Undergrad,2019_Nov_21_1520,AdjustExp1,3.1.5,60.4825834,Experiment
41,Stimuli/Morph41.JPG,Stimuli/Morph41.png,Stimuli/BlurLevel5/BlurEditedMorph41,Stimuli/BlurLevel5/BlurEditedMorph41.png,Stimuli/BlurLevel5/NumberedMorphs/BlurEditedMorph41.png,Stimuli/BlurLevel5/OriginalBlur/BlurEditedMorph41.png,Stimuli/BlurMorphTrio/EditedMorph41.png,010112right.gif,Stimuli/normal_thumbnails/41right.gif,0,0,0,0,0,68,68,40,,,69,1,69,208,-2.207368982,-1.173678907,41,502.1555192,502.6557848,502.1555192,502.6557848,44.21768707,1574378901,1574378904,2.783113956,111,147,-106,41,1574378899,1574378901,,,SK,1,20,F,Undergrad,2019_Nov_21_1520,AdjustExp1,3.1.5,60.4825834,Experiment
82,Stimuli/Morph82.JPG,Stimuli/Morph82.png,Stimuli/BlurLevel5/BlurEditedMorph82,Stimuli/BlurLevel5/BlurEditedMorph82.png,Stimuli/BlurLevel5/NumberedMorphs/BlurEditedMorph82.png,Stimuli/BlurLevel5/OriginalBlur/BlurEditedMorph82.png,Stimuli/BlurMorphTrio/EditedMorph82.png,020247right.gif,Stimuli/normal_thumbnails/82right.gif,0,0,0,0,0,69,69,81,,,54,1,70,355,2.490486745,-0.217889357,82,507.5391655,508.0384753,507.5391655,508.0384753,83.67346939,1574378907,1574378909,2.800338268,32,94,-12,-12,1574378904,1574378907,,,SK,1,20,F,Undergrad,2019_Nov_21_1520,AdjustExp1,3.1.5,60.4825834,Experiment
29,Stimuli/Morph29.JPG,Stimuli/Morph29.png,Stimuli/BlurLevel5/BlurEditedMorph29,Stimuli/BlurLevel5/BlurEditedMorph29.png,Stimuli/BlurLevel5/NumberedMorphs/BlurEditedMorph29.png,Stimuli/BlurLevel5/OriginalBlur/BlurEditedMorph29.png,Stimuli/BlurMorphTrio/EditedMorph29.png,010074right.gif,Stimuli/normal_thumbnails/29right.gif,0,0,0,0,0,70,70,28,,,77,1,71,227,-1.7049959,-1.828384254,29,512.9731879,513.4724033,512.9731879,513.4724033,65.98639456,1574378912,1574378915,3.433491945,61,4,25,25,1574378910,1574378912,,,SK,1,20,F,Undergrad,2019_Nov_21_1520,AdjustExp1,3.1.5,60.4825834,Experiment
119,Stimuli/Morph119.JPG,Stimuli/Morph119.png,Stimuli/BlurLevel5/BlurEditedMorph119,Stimuli/BlurLevel5/BlurEditedMorph119.png,Stimuli/BlurLevel5/NumberedMorphs/BlurEditedMorph119.png,Stimuli/BlurLevel5/OriginalBlur/BlurEditedMorph119.png,Stimuli/BlurMorphTrio/EditedMorph119.png,None,None,0,0,0,0,0,71,71,118,,,3,1,72,321,1.942864904,-1.573300978,119,519.1575638,519.6556775,519.1575638,519.6556775,64.62585034,1574378918,1574378922,3.583267927,111,145,-26,-26,1574378916,1574378918,,,SK,1,20,F,Undergrad,2019_Nov_21_1520,AdjustExp1,3.1.5,60.4825834,Experiment
103,Stimuli/Morph103.JPG,Stimuli/Morph103.png,Stimuli/BlurLevel5/BlurEditedMorph103,Stimuli/BlurLevel5/BlurEditedMorph103.png,Stimuli/BlurLevel5/NumberedMorphs/BlurEditedMorph103.png,Stimuli/BlurLevel5/OriginalBlur/BlurEditedMorph103.png,Stimuli/BlurMorphTrio/EditedMorph103.png,None,None,0,0,0,0,0,72,72,102,,,51,1,73,4,2.493910126,0.174391184,103,525.571895,526.0721839,525.571895,526.0721839,82.31292517,1574378925,1574378927,2.283992767,144,90,13,13,1574378922,1574378925,,,SK,1,20,F,Undergrad,2019_Nov_21_1520,AdjustExp1,3.1.5,60.4825834,Experiment
4,Stimuli/Morph4.JPG,Stimuli/Morph4.png,Stimuli/BlurLevel5/BlurEditedMorph4,Stimuli/BlurLevel5/BlurEditedMorph4.png,Stimuli/BlurLevel5/NumberedMorphs/BlurEditedMorph4.png,Stimuli/BlurLevel5/OriginalBlur/BlurEditedMorph4.png,Stimuli/BlurMorphTrio/EditedMorph4.png,010010right.gif,Stimuli/normal_thumbnails/4right.gif,0,0,0,0,0,73,73,3,,,62,1,74,46,1.736645926,1.798349501,4,530.4776752,530.9718384,530.4776752,530.9718384,90.47619048,1574378929,1574378933,3.966845036,67,144,-140,7,1574378927,1574378929,,,SK,1,20,F,Undergrad,2019_Nov_21_1520,AdjustExp1,3.1.5,60.4825834,Experiment
51,Stimuli/Morph51.JPG,Stimuli/Morph51.png,Stimuli/BlurLevel5/BlurEditedMorph51,Stimuli/BlurLevel5/BlurEditedMorph51.png,Stimuli/BlurLevel5/NumberedMorphs/BlurEditedMorph51.png,Stimuli/BlurLevel5/OriginalBlur/BlurEditedMorph51.png,Stimuli/BlurMorphTrio/EditedMorph51.png,010146right.gif,Stimuli/normal_thumbnails/51right.gif,0,0,0,0,0,74,74,50,,,76,1,75,67,0.976827821,2.301262134,51,536.5550504,537.05516,536.5550504,537.05516,95.91836735,1574378936,1574378938,2.150485039,54,54,-3,-3,1574378934,1574378936,,,SK,1,20,F,Undergrad,2019_Nov_21_1520,AdjustExp1,3.1.5,60.4825834,Experiment
70,Stimuli/Morph70.JPG,Stimuli/Morph70.png,Stimuli/BlurLevel5/BlurEditedMorph70,Stimuli/BlurLevel5/BlurEditedMorph70.png,Stimuli/BlurLevel5/NumberedMorphs/BlurEditedMorph70.png,Stimuli/BlurLevel5/OriginalBlur/BlurEditedMorph70.png,Stimuli/BlurMorphTrio/EditedMorph70.png,020221right.gif,Stimuli/normal_thumbnails/70right.gif,0,0,0,0,0,75,75,69,,,52,1,76,31,2.142918252,1.287595187,70,540.9738293,541.4718151,540.9738293,541.4718151,52.38095238,1574378940,1574378944,4.299968004,60,105,-35,-35,1574378938,1574378940,,,SK,1,20,F,Undergrad,2019_Nov_21_1520,AdjustExp1,3.1.5,60.4825834,Experiment
145,Stimuli/Morph145.JPG,Stimuli/Morph145.png,Stimuli/BlurLevel5/BlurEditedMorph145,Stimuli/BlurLevel5/BlurEditedMorph145.png,Stimuli/BlurLevel5/NumberedMorphs/BlurEditedMorph145.png,Stimuli/BlurLevel5/OriginalBlur/BlurEditedMorph145.png,Stimuli/BlurMorphTrio/EditedMorph145.png,None,None,0,0,0,0,0,76,76,144,,,22,1,77,42,1.857862064,1.672826516,145,547.8884179,548.3885327,547.8884179,548.3885327,98.63945578,1574378947,1574378950,3.183309078,83,146,-1,-1,1574378945,1574378947,,,SK,1,20,F,Undergrad,2019_Nov_21_1520,AdjustExp1,3.1.5,60.4825834,Experiment
89,Stimuli/Morph89.JPG,Stimuli/Morph89.png,Stimuli/BlurLevel5/BlurEditedMorph89,Stimuli/BlurLevel5/BlurEditedMorph89.png,Stimuli/BlurLevel5/NumberedMorphs/BlurEditedMorph89.png,Stimuli/BlurLevel5/OriginalBlur/BlurEditedMorph89.png,Stimuli/BlurMorphTrio/EditedMorph89.png,020273right.gif,Stimuli/normal_thumbnails/89right.gif,0,0,0,0,0,77,77,88,,,23,1,78,313,1.7049959,-1.828384254,89,553.7067664,554.205233,553.7067664,554.205233,87.75510204,1574378953,1574378954,1.232761145,105,98,-9,-9,1574378950,1574378953,,,SK,1,20,F,Undergrad,2019_Nov_21_1520,AdjustExp1,3.1.5,60.4825834,Experiment
101,Stimuli/Morph101.JPG,Stimuli/Morph101.png,Stimuli/BlurLevel5/BlurEditedMorph101,Stimuli/BlurLevel5/BlurEditedMorph101.png,Stimuli/BlurLevel5/NumberedMorphs/BlurEditedMorph101.png,Stimuli/BlurLevel5/OriginalBlur/BlurEditedMorph101.png,Stimuli/BlurMorphTrio/EditedMorph101.png,None,None,0,0,0,0,0,78,78,100,,,12,1,79,140,-1.915111108,1.606969024,101,557.9057057,558.4049306,557.9057057,558.4049306,94.55782313,1574378957,1574378959,1.799983025,91,97,4,4,1574378954,1574378957,,,SK,1,20,F,Undergrad,2019_Nov_21_1520,AdjustExp1,3.1.5,60.4825834,Experiment
52,Stimuli/Morph52.JPG,Stimuli/Morph52.png,Stimuli/BlurLevel5/BlurEditedMorph52,Stimuli/BlurLevel5/BlurEditedMorph52.png,Stimuli/BlurLevel5/NumberedMorphs/BlurEditedMorph52.png,Stimuli/BlurLevel5/OriginalBlur/BlurEditedMorph52.png,Stimuli/BlurMorphTrio/EditedMorph52.png,010148right.gif,Stimuli/normal_thumbnails/52right.gif,0,0,0,0,0,79,79,51,,,97,1,80,77,0.562377636,2.435925162,52,562.2376477,562.7383394,562.2376477,562.7383394,97.27891156,1574378961,1574378963,1.816635132,8,54,-2,-2,1574378959,1574378961,,,SK,1,20,F,Undergrad,2019_Nov_21_1520,AdjustExp1,3.1.5,60.4825834,Experiment
88,Stimuli/Morph88.JPG,Stimuli/Morph88.png,Stimuli/BlurLevel5/BlurEditedMorph88,Stimuli/BlurLevel5/BlurEditedMorph88.png,Stimuli/BlurLevel5/NumberedMorphs/BlurEditedMorph88.png,Stimuli/BlurLevel5/OriginalBlur/BlurEditedMorph88.png,Stimuli/BlurMorphTrio/EditedMorph88.png,020271right.gif,Stimuli/normal_thumbnails/88right.gif,0,0,0,0,0,80,80,87,,,92,1,81,42,1.857862064,1.672826516,88,567.3038752,567.8046624,567.3038752,567.8046624,80.95238095,1574378966,1574378967,0.766986132,102,102,-14,-14,1574378963,1574378966,,,SK,1,20,F,Undergrad,2019_Nov_21_1520,AdjustExp1,3.1.5,60.4825834,Experiment
124,Stimuli/Morph124.JPG,Stimuli/Morph124.png,Stimuli/BlurLevel5/BlurEditedMorph124,Stimuli/BlurLevel5/BlurEditedMorph124.png,Stimuli/BlurLevel5/NumberedMorphs/BlurEditedMorph124.png,Stimuli/BlurLevel5/OriginalBlur/BlurEditedMorph124.png,Stimuli/BlurMorphTrio/EditedMorph124.png,None,None,0,0,0,0,0,81,81,123,,,91,1,82,240,-1.25,-2.165063509,124,570.6907947,571.1879823,570.6907947,571.1879823,60.54421769,1574378970,1574378971,1.449707031,83,95,29,29,1574378967,1574378970,,,SK,1,20,F,Undergrad,2019_Nov_21_1520,AdjustExp1,3.1.5,60.4825834,Experiment
133,Stimuli/Morph133.JPG,Stimuli/Morph133.png,Stimuli/BlurLevel5/BlurEditedMorph133,Stimuli/BlurLevel5/BlurEditedMorph133.png,Stimuli/BlurLevel5/NumberedMorphs/BlurEditedMorph133.png,Stimuli/BlurLevel5/OriginalBlur/BlurEditedMorph133.png,Stimuli/BlurMorphTrio/EditedMorph133.png,None,None,0,0,0,0,0,82,82,132,,,69,1,83,15,2.414814566,0.647047613,133,574.7400617,575.2382909,574.7400617,575.2382909,45.57823129,1574378974,1574378975,1.599564075,79,93,40,40,1574378971,1574378974,,,SK,1,20,F,Undergrad,2019_Nov_21_1520,AdjustExp1,3.1.5,60.4825834,Experiment
63,Stimuli/Morph63.JPG,Stimuli/Morph63.png,Stimuli/BlurLevel5/BlurEditedMorph63,Stimuli/BlurLevel5/BlurEditedMorph63.png,Stimuli/BlurLevel5/NumberedMorphs/BlurEditedMorph63.png,Stimuli/BlurLevel5/OriginalBlur/BlurEditedMorph63.png,Stimuli/BlurMorphTrio/EditedMorph63.png,020206right.gif,Stimuli/normal_thumbnails/63right.gif,0,0,0,0,0,83,83,62,,,25,1,84,36,2.022542486,1.469463131,63,578.6042233,579.1048798,578.6042233,579.1048798,68.70748299,1574378978,1574378981,3.09847331,129,86,-23,-23,1574378976,1574378978,,,SK,1,20,F,Undergrad,2019_Nov_21_1520,AdjustExp1,3.1.5,60.4825834,Experiment
80,Stimuli/Morph80.JPG,Stimuli/Morph80.png,Stimuli/BlurLevel5/BlurEditedMorph80,Stimuli/BlurLevel5/BlurEditedMorph80.png,Stimuli/BlurLevel5/NumberedMorphs/BlurEditedMorph80.png,Stimuli/BlurLevel5/OriginalBlur/BlurEditedMorph80.png,Stimuli/BlurMorphTrio/EditedMorph80.png,020240right.gif,Stimuli/normal_thumbnails/80right.gif,0,0,0,0,0,84,84,79,,,85,1,85,162,-2.377641291,0.772542486,80,584.2541649,584.7545047,584.2541649,584.7545047,49.65986395,1574378983,1574378984,1.033455133,117,117,-37,-37,1574378981,1574378983,,,SK,1,20,F,Undergrad,2019_Nov_21_1520,AdjustExp1,3.1.5,60.4825834,Experiment
141,Stimuli/Morph141.JPG,Stimuli/Morph141.png,Stimuli/BlurLevel5/BlurEditedMorph141,Stimuli/BlurLevel5/BlurEditedMorph141.png,Stimuli/BlurLevel5/NumberedMorphs/BlurEditedMorph141.png,Stimuli/BlurLevel5/OriginalBlur/BlurEditedMorph141.png,Stimuli/BlurMorphTrio/EditedMorph141.png,None,None,1,0,1,0,0,0,0,140,,,73,2,1,123,-1.361597588,2.09667642,141,631.3040548,631.8034272,631.3040548,631.8034272,97.27891156,1574379030,1574379033,2.200380802,143,143,-2,-2,1574379028,1574379030,space,43.5157483,SK,1,20,F,Undergrad,2019_Nov_21_1520,AdjustExp1,3.1.5,60.4825834,Experiment
12,Stimuli/Morph12.JPG,Stimuli/Morph12.png,Stimuli/BlurLevel5/BlurEditedMorph12,Stimuli/BlurLevel5/BlurEditedMorph12.png,Stimuli/BlurLevel5/NumberedMorphs/BlurEditedMorph12.png,Stimuli/BlurLevel5/OriginalBlur/BlurEditedMorph12.png,Stimuli/BlurMorphTrio/EditedMorph12.png,010026right.gif,Stimuli/normal_thumbnails/12right.gif,1,0,1,0,0,1,1,11,,,39,2,2,110,-0.855050358,2.349231552,12,635.903919,636.4039544,635.903919,636.4039544,82.31292517,1574379035,1574379037,2.582617044,58,146,-134,13,1574379033,1574379035,,,SK,1,20,F,Undergrad,2019_Nov_21_1520,AdjustExp1,3.1.5,60.4825834,Experiment
66,Stimuli/Morph66.JPG,Stimuli/Morph66.png,Stimuli/BlurLevel5/BlurEditedMorph66,Stimuli/BlurLevel5/BlurEditedMorph66.png,Stimuli/BlurLevel5/NumberedMorphs/BlurEditedMorph66.png,Stimuli/BlurLevel5/OriginalBlur/BlurEditedMorph66.png,Stimuli/BlurMorphTrio/EditedMorph66.png,020212right.gif,Stimuli/normal_thumbnails/66right.gif,1,0,1,0,0,2,2,65,,,20,2,3,124,-1.397982259,2.072593931,66,640.8041725,641.3041642,640.8041725,641.3041642,89.11564626,1574379040,1574379048,8.283189058,60,58,8,8,1574379038,1574379040,,,SK,1,20,F,Undergrad,2019_Nov_21_1520,AdjustExp1,3.1.5,60.4825834,Experiment
47,Stimuli/Morph47.JPG,Stimuli/Morph47.png,Stimuli/BlurLevel5/BlurEditedMorph47,Stimuli/BlurLevel5/BlurEditedMorph47.png,Stimuli/BlurLevel5/NumberedMorphs/BlurEditedMorph47.png,Stimuli/BlurLevel5/OriginalBlur/BlurEditedMorph47.png,Stimuli/BlurMorphTrio/EditedMorph47.png,010130right.gif,Stimuli/normal_thumbnails/47right.gif,1,0,1,0,0,3,3,46,,,20,2,4,219,-1.942864904,-1.573300978,47,651.2700074,651.7700852,651.2700074,651.7700852,93.19727891,1574379050,1574379054,3.932037115,81,52,-5,-5,1574379048,1574379050,,,SK,1,20,F,Undergrad,2019_Nov_21_1520,AdjustExp1,3.1.5,60.4825834,Experiment
106,Stimuli/Morph106.JPG,Stimuli/Morph106.png,Stimuli/BlurLevel5/BlurEditedMorph106,Stimuli/BlurLevel5/BlurEditedMorph106.png,Stimuli/BlurLevel5/NumberedMorphs/BlurEditedMorph106.png,Stimuli/BlurLevel5/OriginalBlur/BlurEditedMorph106.png,Stimuli/BlurMorphTrio/EditedMorph106.png,None,None,1,0,1,0,0,4,4,105,,,2,2,5,179,-2.499619238,0.043631016,106,657.4725173,657.9702863,657.4725173,657.9702863,97.27891156,1574379056,1574379062,5.399507046,30,104,2,2,1574379054,1574379056,,,SK,1,20,F,Undergrad,2019_Nov_21_1520,AdjustExp1,3.1.5,60.4825834,Experiment
140,Stimuli/Morph140.JPG,Stimuli/Morph140.png,Stimuli/BlurLevel5/BlurEditedMorph140,Stimuli/BlurLevel5/BlurEditedMorph140.png,Stimuli/BlurLevel5/NumberedMorphs/BlurEditedMorph140.png,Stimuli/BlurLevel5/OriginalBlur/BlurEditedMorph140.png,Stimuli/BlurMorphTrio/EditedMorph140.png,None,None,1,0,1,0,0,5,5,139,,,68,2,6,357,2.496573837,-0.130839891,140,665.2025341,665.7028872,665.2025341,665.7028872,97.27891156,1574379064,1574379071,6.45010519,96,142,-2,-2,1574379062,1574379064,,,SK,1,20,F,Undergrad,2019_Nov_21_1520,AdjustExp1,3.1.5,60.4825834,Experiment
28,Stimuli/Morph28.JPG,Stimuli/Morph28.png,Stimuli/BlurLevel5/BlurEditedMorph28,Stimuli/BlurLevel5/BlurEditedMorph28.png,Stimuli/BlurLevel5/NumberedMorphs/BlurEditedMorph28.png,Stimuli/BlurLevel5/OriginalBlur/BlurEditedMorph28.png,Stimuli/BlurMorphTrio/EditedMorph28.png,010073right.gif,Stimuli/normal_thumbnails/28right.gif,1,0,1,0,0,6,6,27,,,30,2,7,220,-1.915111108,-1.606969024,28,674.1870717,674.6863128,674.1870717,674.6863128,83.67346939,1574379073,1574379078,4.333621025,124,16,12,12,1574379071,1574379073,,,SK,1,20,F,Undergrad,2019_Nov_21_1520,AdjustExp1,3.1.5,60.4825834,Experiment
20,Stimuli/Morph20.JPG,Stimuli/Morph20.png,Stimuli/BlurLevel5/BlurEditedMorph20,Stimuli/BlurLevel5/BlurEditedMorph20.png,Stimuli/BlurLevel5/NumberedMorphs/BlurEditedMorph20.png,Stimuli/BlurLevel5/OriginalBlur/BlurEditedMorph20.png,Stimuli/BlurMorphTrio/EditedMorph20.png,010046right.gif,Stimuli/normal_thumbnails/20right.gif,1,0,1,0,0,7,7,19,,,5,2,8,47,1.7049959,1.828384254,20,681.0367095,681.5367311,681.0367095,681.5367311,79.59183673,1574379080,1574379084,3.715066195,103,5,15,15,1574379078,1574379080,,,SK,1,20,F,Undergrad,2019_Nov_21_1520,AdjustExp1,3.1.5,60.4825834,Experiment
71,Stimuli/Morph71.JPG,Stimuli/Morph71.png,Stimuli/BlurLevel5/BlurEditedMorph71,Stimuli/BlurLevel5/BlurEditedMorph71.png,Stimuli/BlurLevel5/NumberedMorphs/BlurEditedMorph71.png,Stimuli/BlurLevel5/OriginalBlur/BlurEditedMorph71.png,Stimuli/BlurMorphTrio/EditedMorph71.png,020225right.gif,Stimuli/normal_thumbnails/71right.gif,1,0,1,0,0,8,8,70,,,42,2,9,29,2.186549268,1.212024051,71,687.75326,688.2532453,687.75326,688.2532453,98.63945578,1574379087,1574379094,7.565490961,114,70,1,1,1574379084,1574379087,,,SK,1,20,F,Undergrad,2019_Nov_21_1520,AdjustExp1,3.1.5,60.4825834,Experiment
79,Stimuli/Morph79.JPG,Stimuli/Morph79.png,Stimuli/BlurLevel5/BlurEditedMorph79,Stimuli/BlurLevel5/BlurEditedMorph79.png,Stimuli/BlurLevel5/NumberedMorphs/BlurEditedMorph79.png,Stimuli/BlurLevel5/OriginalBlur/BlurEditedMorph79.png,Stimuli/BlurMorphTrio/EditedMorph79.png,020239right.gif,Stimuli/normal_thumbnails/79right.gif,1,0,1,0,0,9,9,78,,,13,2,10,33,2.09667642,1.361597588,79,698.2863013,698.7862161,698.2863013,698.7862161,78.23129252,1574379097,1574379105,7.283617258,135,63,16,16,1574379095,1574379097,,,SK,1,20,F,Undergrad,2019_Nov_21_1520,AdjustExp1,3.1.5,60.4825834,Experiment
134,Stimuli/Morph134.JPG,Stimuli/Morph134.png,Stimuli/BlurLevel5/BlurEditedMorph134,Stimuli/BlurLevel5/BlurEditedMorph134.png,Stimuli/BlurLevel5/NumberedMorphs/BlurEditedMorph134.png,Stimuli/BlurLevel5/OriginalBlur/BlurEditedMorph134.png,Stimuli/BlurMorphTrio/EditedMorph134.png,None,None,1,0,1,0,0,10,10,133,,,25,2,11,61,1.212024051,2.186549268,134,707.8366012,708.3362661,707.8366012,708.3362661,98.63945578,1574379107,1574379117,9.932580709,36,135,-1,-1,1574379105,1574379107,,,SK,1,20,F,Undergrad,2019_Nov_21_1520,AdjustExp1,3.1.5,60.4825834,Experiment
78,Stimuli/Morph78.JPG,Stimuli/Morph78.png,Stimuli/BlurLevel5/BlurEditedMorph78,Stimuli/BlurLevel5/BlurEditedMorph78.png,Stimuli/BlurLevel5/NumberedMorphs/BlurEditedMorph78.png,Stimuli/BlurLevel5/OriginalBlur/BlurEditedMorph78.png,Stimuli/BlurMorphTrio/EditedMorph78.png,020238right.gif,Stimuli/normal_thumbnails/78right.gif,1,0,1,0,0,11,11,77,,,90,2,12,299,1.212024051,-2.186549268,78,720.0589646,720.5523166,720.0589646,720.5523166,53.7414966,1574379119,1574379124,4.999797821,52,112,-34,-34,1574379117,1574379119,,,SK,1,20,F,Undergrad,2019_Nov_21_1520,AdjustExp1,3.1.5,60.4825834,Experiment
5,Stimuli/Morph5.JPG,Stimuli/Morph5.png,Stimuli/BlurLevel5/BlurEditedMorph5,Stimuli/BlurLevel5/BlurEditedMorph5.png,Stimuli/BlurLevel5/NumberedMorphs/BlurEditedMorph5.png,Stimuli/BlurLevel5/OriginalBlur/BlurEditedMorph5.png,Stimuli/BlurMorphTrio/EditedMorph5.png,010011right.gif,Stimuli/normal_thumbnails/5right.gif,1,0,1,0,0,12,12,4,,,37,2,13,197,-2.39076189,-0.730929262,5,727.5189724,728.0191756,727.5189724,728.0191756,76.8707483,1574379127,1574379133,6.083189964,23,135,-130,17,1574379124,1574379127,,,SK,1,20,F,Undergrad,2019_Nov_21_1520,AdjustExp1,3.1.5,60.4825834,Experiment
100,Stimuli/Morph100.JPG,Stimuli/Morph100.png,Stimuli/BlurLevel5/BlurEditedMorph100,Stimuli/BlurLevel5/BlurEditedMorph100.png,Stimuli/BlurLevel5/NumberedMorphs/BlurEditedMorph100.png,Stimuli/BlurLevel5/OriginalBlur/BlurEditedMorph100.png,Stimuli/BlurMorphTrio/EditedMorph100.png,020297right.gif,Stimuli/normal_thumbnails/100right.gif,1,0,1,0,0,13,13,99,,,17,2,14,82,0.347932752,2.475670172,100,736.5023995,737.002708,736.5023995,737.002708,91.83673469,1574379136,1574379142,6.582571745,38,106,-6,-6,1574379133,1574379136,,,SK,1,20,F,Undergrad,2019_Nov_21_1520,AdjustExp1,3.1.5,60.4825834,Experiment
24,Stimuli/Morph24.JPG,Stimuli/Morph24.png,Stimuli/BlurLevel5/BlurEditedMorph24,Stimuli/BlurLevel5/BlurEditedMorph24.png,Stimuli/BlurLevel5/NumberedMorphs/BlurEditedMorph24.png,Stimuli/BlurLevel5/OriginalBlur/BlurEditedMorph24.png,Stimuli/BlurMorphTrio/EditedMorph24.png,010068right.gif,Stimuli/normal_thumbnails/24right.gif,1,0,1,0,0,14,14,23,,,14,2,15,341,2.363796439,-0.813920386,24,745.9048199,746.4025545,745.9048199,746.4025545,70.06802721,1574379145,1574379149,3.866903067,58,2,22,22,1574379142,1574379145,,,SK,1,20,F,Undergrad,2019_Nov_21_1520,AdjustExp1,3.1.5,60.4825834,Experiment
49,Stimuli/Morph49.JPG,Stimuli/Morph49.png,Stimuli/BlurLevel5/BlurEditedMorph49,Stimuli/BlurLevel5/BlurEditedMorph49.png,Stimuli/BlurLevel5/NumberedMorphs/BlurEditedMorph49.png,Stimuli/BlurLevel5/OriginalBlur/BlurEditedMorph49.png,Stimuli/BlurMorphTrio/EditedMorph49.png,010135right.gif,Stimuli/normal_thumbnails/49right.gif,1,0,1,0,0,15,15,48,,,80,2,16,303,1.361597588,-2.09667642,49,752.2037086,752.7023342,752.2037086,752.7023342,94.55782313,1574379151,1574379155,3.765745878,8,45,4,4,1574379149,1574379151,,,SK,1,20,F,Undergrad,2019_Nov_21_1520,AdjustExp1,3.1.5,60.4825834,Experiment
114,Stimuli/Morph114.JPG,Stimuli/Morph114.png,Stimuli/BlurLevel5/BlurEditedMorph114,Stimuli/BlurLevel5/BlurEditedMorph114.png,Stimuli/BlurLevel5/NumberedMorphs/BlurEditedMorph114.png,Stimuli/BlurLevel5/OriginalBlur/BlurEditedMorph114.png,Stimuli/BlurMorphTrio/EditedMorph114.png,None,None,1,0,1,0,0,16,16,113,,,52,2,17,249,-0.895919874,-2.333951066,114,758.5920572,759.0857756,758.5920572,759.0857756,93.19727891,1574379158,1574379159,1.832764864,17,109,5,5,1574379155,1574379158,,,SK,1,20,F,Undergrad,2019_Nov_21_1520,AdjustExp1,3.1.5,60.4825834,Experiment
14,Stimuli/Morph14.JPG,Stimuli/Morph14.png,Stimuli/BlurLevel5/BlurEditedMorph14,Stimuli/BlurLevel5/BlurEditedMorph14.png,Stimuli/BlurLevel5/NumberedMorphs/BlurEditedMorph14.png,Stimuli/BlurLevel5/OriginalBlur/BlurEditedMorph14.png,Stimuli/BlurMorphTrio/EditedMorph14.png,010030right.gif,Stimuli/normal_thumbnails/14right.gif,1,0,1,0,0,17,17,13,,,27,2,18,62,1.173678907,2.207368982,14,762.8739603,763.3682903,762.8739603,763.3682903,90.47619048,1574379162,1574379166,3.782976151,31,7,7,7,1574379160,1574379162,,,SK,1,20,F,Undergrad,2019_Nov_21_1520,AdjustExp1,3.1.5,60.4825834,Experiment
108,Stimuli/Morph108.JPG,Stimuli/Morph108.png,Stimuli/BlurLevel5/BlurEditedMorph108,Stimuli/BlurLevel5/BlurEditedMorph108.png,Stimuli/BlurLevel5/NumberedMorphs/BlurEditedMorph108.png,Stimuli/BlurLevel5/OriginalBlur/BlurEditedMorph108.png,Stimuli/BlurMorphTrio/EditedMorph108.png,None,None,1,0,1,0,0,18,18,107,,,79,2,19,348,2.445369002,-0.519779227,108,768.9703485,769.4689102,768.9703485,769.4689102,34.69387755,1574379168,1574379175,7.250708818,18,9,99,-48,1574379166,1574379168,,,SK,1,20,F,Undergrad,2019_Nov_21_1520,AdjustExp1,3.1.5,60.4825834,Experiment
40,Stimuli/Morph40.JPG,Stimuli/Morph40.png,Stimuli/BlurLevel5/BlurEditedMorph40,Stimuli/BlurLevel5/BlurEditedMorph40.png,Stimuli/BlurLevel5/NumberedMorphs/BlurEditedMorph40.png,Stimuli/BlurLevel5/OriginalBlur/BlurEditedMorph40.png,Stimuli/BlurMorphTrio/EditedMorph40.png,010110right.gif,Stimuli/normal_thumbnails/40right.gif,1,0,1,0,0,19,19,39,,,76,2,20,191,-2.454067959,-0.477022488,40,778.3350346,778.8356124,778.3350346,778.8356124,100,1574379177,1574379181,3.267726898,114,40,0,0,1574379175,1574379177,,,SK,1,20,F,Undergrad,2019_Nov_21_1520,AdjustExp1,3.1.5,60.4825834,Experiment
146,Stimuli/Morph146.JPG,Stimuli/Morph146.png,Stimuli/BlurLevel5/BlurEditedMorph146,Stimuli/BlurLevel5/BlurEditedMorph146.png,Stimuli/BlurLevel5/NumberedMorphs/BlurEditedMorph146.png,Stimuli/BlurLevel5/OriginalBlur/BlurEditedMorph146.png,Stimuli/BlurMorphTrio/EditedMorph146.png,None,None,1,0,1,0,0,20,20,145,,,51,2,21,285,0.647047613,-2.414814566,146,784.1252758,784.6188086,784.1252758,784.6188086,93.19727891,1574379183,1574379186,2.883605957,134,141,5,5,1574379181,1574379183,,,SK,1,20,F,Undergrad,2019_Nov_21_1520,AdjustExp1,3.1.5,60.4825834,Experiment
133,Stimuli/Morph133.JPG,Stimuli/Morph133.png,Stimuli/BlurLevel5/BlurEditedMorph133,Stimuli/BlurLevel5/BlurEditedMorph133.png,Stimuli/BlurLevel5/NumberedMorphs/BlurEditedMorph133.png,Stimuli/BlurLevel5/OriginalBlur/BlurEditedMorph133.png,Stimuli/BlurMorphTrio/EditedMorph133.png,None,None,1,0,1,0,0,21,21,132,,,91,2,22,330,2.165063509,-1.25,133,789.7350188,790.2349224,789.7350188,790.2349224,95.91836735,1574379189,1574379195,6.48359704,108,136,-3,-3,1574379186,1574379189,,,SK,1,20,F,Undergrad,2019_Nov_21_1520,AdjustExp1,3.1.5,60.4825834,Experiment
19,Stimuli/Morph19.JPG,Stimuli/Morph19.png,Stimuli/BlurLevel5/BlurEditedMorph19,Stimuli/BlurLevel5/BlurEditedMorph19.png,Stimuli/BlurLevel5/NumberedMorphs/BlurEditedMorph19.png,Stimuli/BlurLevel5/OriginalBlur/BlurEditedMorph19.png,Stimuli/BlurMorphTrio/EditedMorph19.png,010045right.gif,Stimuli/normal_thumbnails/19right.gif,1,0,1,0,0,22,22,18,,,10,2,23,310,1.606969024,-1.915111108,19,798.8514612,799.3519677,798.8514612,799.3519677,87.75510204,1574379198,1574379200,2.599527359,116,10,9,9,1574379196,1574379198,,,SK,1,20,F,Undergrad,2019_Nov_21_1520,AdjustExp1,3.1.5,60.4825834,Experiment
57,Stimuli/Morph57.JPG,Stimuli/Morph57.png,Stimuli/BlurLevel5/BlurEditedMorph57,Stimuli/BlurLevel5/BlurEditedMorph57.png,Stimuli/BlurLevel5/NumberedMorphs/BlurEditedMorph57.png,Stimuli/BlurLevel5/OriginalBlur/BlurEditedMorph57.png,Stimuli/BlurMorphTrio/EditedMorph57.png,010158right.gif,Stimuli/normal_thumbnails/57right.gif,1,0,1,0,0,23,23,56,,,99,2,24,131,-1.640147572,1.886773951,57,803.9377339,804.4346523,803.9377339,804.4346523,97.27891156,1574379203,1574379206,2.700719833,19,55,2,2,1574379201,1574379203,,,SK,1,20,F,Undergrad,2019_Nov_21_1520,AdjustExp1,3.1.5,60.4825834,Experiment
11,Stimuli/Morph11.JPG,Stimuli/Morph11.png,Stimuli/BlurLevel5/BlurEditedMorph11,Stimuli/BlurLevel5/BlurEditedMorph11.png,Stimuli/BlurLevel5/NumberedMorphs/BlurEditedMorph11.png,Stimuli/BlurLevel5/OriginalBlur/BlurEditedMorph11.png,Stimuli/BlurMorphTrio/EditedMorph11.png,010024right.gif,Stimuli/normal_thumbnails/11right.gif,1,0,1,0,0,24,24,10,,,64,2,25,42,1.857862064,1.672826516,11,809.2232852,809.7174574,809.2232852,809.7174574,89.11564626,1574379208,1574379211,2.333694935,93,3,8,8,1574379206,1574379208,,,SK,1,20,F,Undergrad,2019_Nov_21_1520,AdjustExp1,3.1.5,60.4825834,Experiment
32,Stimuli/Morph32.JPG,Stimuli/Morph32.png,Stimuli/BlurLevel5/BlurEditedMorph32,Stimuli/BlurLevel5/BlurEditedMorph32.png,Stimuli/BlurLevel5/NumberedMorphs/BlurEditedMorph32.png,Stimuli/BlurLevel5/OriginalBlur/BlurEditedMorph32.png,Stimuli/BlurMorphTrio/EditedMorph32.png,010080right.gif,Stimuli/normal_thumbnails/32right.gif,1,0,1,0,0,25,25,31,,,44,2,26,281,0.477022488,-2.454067959,32,814.2896768,814.7847209,814.2896768,814.7847209,95.91836735,1574379213,1574379217,3.884041071,145,35,-3,-3,1574379211,1574379213,,,SK,1,20,F,Undergrad,2019_Nov_21_1520,AdjustExp1,3.1.5,60.4825834,Experiment
68,Stimuli/Morph68.JPG,Stimuli/Morph68.png,Stimuli/BlurLevel5/BlurEditedMorph68,Stimuli/BlurLevel5/BlurEditedMorph68.png,Stimuli/BlurLevel5/NumberedMorphs/BlurEditedMorph68.png,Stimuli/BlurLevel5/OriginalBlur/BlurEditedMorph68.png,Stimuli/BlurMorphTrio/EditedMorph68.png,020218right.gif,Stimuli/normal_thumbnails/68right.gif,1,0,1,0,0,26,26,67,,,58,2,27,88,0.087248742,2.498477068,68,820.7340007,821.2346554,820.7340007,821.2346554,63.26530612,1574379220,1574379224,4.117943048,99,41,27,27,1574379217,1574379220,,,SK,1,20,F,Undergrad,2019_Nov_21_1520,AdjustExp1,3.1.5,60.4825834,Experiment
116,Stimuli/Morph116.JPG,Stimuli/Morph116.png,Stimuli/BlurLevel5/BlurEditedMorph116,Stimuli/BlurLevel5/BlurEditedMorph116.png,Stimuli/BlurLevel5/NumberedMorphs/BlurEditedMorph116.png,Stimuli/BlurLevel5/OriginalBlur/BlurEditedMorph116.png,Stimuli/BlurMorphTrio/EditedMorph116.png,None,None,1,0,1,0,0,27,27,115,,,25,2,28,290,0.855050358,-2.349231552,116,827.3227756,828.0512663,827.3227756,828.0512663,97.27891156,1574379227,1574379233,6.799449921,102,114,2,2,1574379224,1574379227,,,SK,1,20,F,Undergrad,2019_Nov_21_1520,AdjustExp1,3.1.5,60.4825834,Experiment
88,Stimuli/Morph88.JPG,Stimuli/Morph88.png,Stimuli/BlurLevel5/BlurEditedMorph88,Stimuli/BlurLevel5/BlurEditedMorph88.png,Stimuli/BlurLevel5/NumberedMorphs/BlurEditedMorph88.png,Stimuli/BlurLevel5/OriginalBlur/BlurEditedMorph88.png,Stimuli/BlurMorphTrio/EditedMorph88.png,020271right.gif,Stimuli/normal_thumbnails/88right.gif,1,0,1,0,0,28,28,87,,,45,2,29,270,-4.59E-16,-2.5,88,836.5838086,837.0840783,836.5838086,837.0840783,71.42857143,1574379236,1574379237,1.833204985,126,109,-21,-21,1574379234,1574379236,,,SK,1,20,F,Undergrad,2019_Nov_21_1520,AdjustExp1,3.1.5,60.4825834,Experiment
65,Stimuli/Morph65.JPG,Stimuli/Morph65.png,Stimuli/BlurLevel5/BlurEditedMorph65,Stimuli/BlurLevel5/BlurEditedMorph65.png,Stimuli/BlurLevel5/NumberedMorphs/BlurEditedMorph65.png,Stimuli/BlurLevel5/OriginalBlur/BlurEditedMorph65.png,Stimuli/BlurMorphTrio/EditedMorph65.png,020209right.gif,Stimuli/normal_thumbnails/65right.gif,1,0,1,0,0,29,29,64,,,11,2,30,240,-1.25,-2.165063509,65,841.0850261,841.5841569,841.0850261,841.5841569,94.55782313,1574379240,1574379244,3.50050211,96,61,4,4,1574379238,1574379240,,,SK,1,20,F,Undergrad,2019_Nov_21_1520,AdjustExp1,3.1.5,60.4825834,Experiment
122,Stimuli/Morph122.JPG,Stimuli/Morph122.png,Stimuli/BlurLevel5/BlurEditedMorph122,Stimuli/BlurLevel5/BlurEditedMorph122.png,Stimuli/BlurLevel5/NumberedMorphs/BlurEditedMorph122.png,Stimuli/BlurLevel5/OriginalBlur/BlurEditedMorph122.png,Stimuli/BlurMorphTrio/EditedMorph122.png,None,None,1,0,1,0,0,30,30,121,,,56,2,31,73,0.730929262,2.39076189,122,847.3668271,847.8677672,847.3668271,847.8677672,48.29931973,1574379246,1574379250,3.383255243,32,84,38,38,1574379244,1574379246,,,SK,1,20,F,Undergrad,2019_Nov_21_1520,AdjustExp1,3.1.5,60.4825834,Experiment
18,Stimuli/Morph18.JPG,Stimuli/Morph18.png,Stimuli/BlurLevel5/BlurEditedMorph18,Stimuli/BlurLevel5/BlurEditedMorph18.png,Stimuli/BlurLevel5/NumberedMorphs/BlurEditedMorph18.png,Stimuli/BlurLevel5/OriginalBlur/BlurEditedMorph18.png,Stimuli/BlurMorphTrio/EditedMorph18.png,010039right.gif,Stimuli/normal_thumbnails/18right.gif,1,0,1,0,0,31,31,17,,,82,2,32,189,-2.469220851,-0.391086163,18,853.3839697,853.8844798,853.3839697,853.8844798,97.27891156,1574379252,1574379258,5.832296848,135,16,2,2,1574379250,1574379252,,,SK,1,20,F,Undergrad,2019_Nov_21_1520,AdjustExp1,3.1.5,60.4825834,Experiment
82,Stimuli/Morph82.JPG,Stimuli/Morph82.png,Stimuli/BlurLevel5/BlurEditedMorph82,Stimuli/BlurLevel5/BlurEditedMorph82.png,Stimuli/BlurLevel5/NumberedMorphs/BlurEditedMorph82.png,Stimuli/BlurLevel5/OriginalBlur/BlurEditedMorph82.png,Stimuli/BlurMorphTrio/EditedMorph82.png,020247right.gif,Stimuli/normal_thumbnails/82right.gif,1,0,1,0,0,32,32,81,,,19,2,33,355,2.490486745,-0.217889357,82,862.1394287,862.6337747,862.1394287,862.6337747,98.63945578,1574379261,1574379281,19.783885,66,81,1,1,1574379259,1574379261,,,SK,1,20,F,Undergrad,2019_Nov_21_1520,AdjustExp1,3.1.5,60.4825834,Experiment
98,Stimuli/Morph98.JPG,Stimuli/Morph98.png,Stimuli/BlurLevel5/BlurEditedMorph98,Stimuli/BlurLevel5/BlurEditedMorph98.png,Stimuli/BlurLevel5/NumberedMorphs/BlurEditedMorph98.png,Stimuli/BlurLevel5/OriginalBlur/BlurEditedMorph98.png,Stimuli/BlurMorphTrio/EditedMorph98.png,020298right.gif,Stimuli/normal_thumbnails/98right.gif,1,0,1,0,0,33,33,97,,,32,2,34,314,1.736645926,-1.798349501,98,884.7856288,885.2838089,884.7856288,885.2838089,98.63945578,1574379284,1574379287,3.500534058,31,97,1,1,1574379281,1574379284,,,SK,1,20,F,Undergrad,2019_Nov_21_1520,AdjustExp1,3.1.5,60.4825834,Experiment
41,Stimuli/Morph41.JPG,Stimuli/Morph41.png,Stimuli/BlurLevel5/BlurEditedMorph41,Stimuli/BlurLevel5/BlurEditedMorph41.png,Stimuli/BlurLevel5/NumberedMorphs/BlurEditedMorph41.png,Stimuli/BlurLevel5/OriginalBlur/BlurEditedMorph41.png,Stimuli/BlurMorphTrio/EditedMorph41.png,010112right.gif,Stimuli/normal_thumbnails/41right.gif,1,0,1,0,0,34,34,40,,,94,2,35,237,-1.361597588,-2.09667642,41,890.7676733,891.2659168,890.7676733,891.2659168,87.75510204,1574379290,1574379294,3.750045061,47,50,-9,-9,1574379288,1574379290,,,SK,1,20,F,Undergrad,2019_Nov_21_1520,AdjustExp1,3.1.5,60.4825834,Experiment
125,Stimuli/Morph125.JPG,Stimuli/Morph125.png,Stimuli/BlurLevel5/BlurEditedMorph125,Stimuli/BlurLevel5/BlurEditedMorph125.png,Stimuli/BlurLevel5/NumberedMorphs/BlurEditedMorph125.png,Stimuli/BlurLevel5/OriginalBlur/BlurEditedMorph125.png,Stimuli/BlurMorphTrio/EditedMorph125.png,None,None,1,0,1,0,0,35,35,124,,,68,2,36,91,-0.043631016,2.499619238,125,896.8671168,897.3671889,896.8671168,897.3671889,79.59183673,1574379296,1574379298,2.316776991,135,110,15,15,1574379294,1574379296,,,SK,1,20,F,Undergrad,2019_Nov_21_1520,AdjustExp1,3.1.5,60.4825834,Experiment
15,Stimuli/Morph15.JPG,Stimuli/Morph15.png,Stimuli/BlurLevel5/BlurEditedMorph15,Stimuli/BlurLevel5/BlurEditedMorph15.png,Stimuli/BlurLevel5/NumberedMorphs/BlurEditedMorph15.png,Stimuli/BlurLevel5/OriginalBlur/BlurEditedMorph15.png,Stimuli/BlurMorphTrio/EditedMorph15.png,010031right.gif,Stimuli/normal_thumbnails/15right.gif,1,0,1,0,0,36,36,14,,,55,2,37,349,2.454067959,-0.477022488,15,901.6997638,902.1996823,901.6997638,902.1996823,89.11564626,1574379301,1574379304,3.383690119,57,7,8,8,1574379298,1574379301,,,SK,1,20,F,Undergrad,2019_Nov_21_1520,AdjustExp1,3.1.5,60.4825834,Experiment
7,Stimuli/Morph7.JPG,Stimuli/Morph7.png,Stimuli/BlurLevel5/BlurEditedMorph7,Stimuli/BlurLevel5/BlurEditedMorph7.png,Stimuli/BlurLevel5/NumberedMorphs/BlurEditedMorph7.png,Stimuli/BlurLevel5/OriginalBlur/BlurEditedMorph7.png,Stimuli/BlurMorphTrio/EditedMorph7.png,010013right.gif,Stimuli/normal_thumbnails/7right.gif,1,0,1,0,0,37,37,6,,,74,2,38,103,-0.562377636,2.435925162,7,907.7828614,908.2832357,907.7828614,908.2832357,95.91836735,1574379307,1574379308,1.299223185,10,10,-3,-3,1574379304,1574379307,,,SK,1,20,F,Undergrad,2019_Nov_21_1520,AdjustExp1,3.1.5,60.4825834,Experiment
99,Stimuli/Morph99.JPG,Stimuli/Morph99.png,Stimuli/BlurLevel5/BlurEditedMorph99,Stimuli/BlurLevel5/BlurEditedMorph99.png,Stimuli/BlurLevel5/NumberedMorphs/BlurEditedMorph99.png,Stimuli/BlurLevel5/OriginalBlur/BlurEditedMorph99.png,Stimuli/BlurMorphTrio/EditedMorph99.png,020299right.gif,Stimuli/normal_thumbnails/99right.gif,1,0,1,0,0,38,38,98,,,73,2,39,339,2.333951066,-0.895919874,99,911.6007732,912.1004227,911.6007732,912.1004227,94.55782313,1574379311,1574379315,4.283309937,48,95,4,4,1574379308,1574379311,,,SK,1,20,F,Undergrad,2019_Nov_21_1520,AdjustExp1,3.1.5,60.4825834,Experiment
136,Stimuli/Morph136.JPG,Stimuli/Morph136.png,Stimuli/BlurLevel5/BlurEditedMorph136,Stimuli/BlurLevel5/BlurEditedMorph136.png,Stimuli/BlurLevel5/NumberedMorphs/BlurEditedMorph136.png,Stimuli/BlurLevel5/OriginalBlur/BlurEditedMorph136.png,Stimuli/BlurMorphTrio/EditedMorph136.png,None,None,1,0,1,0,0,39,39,135,,,65,2,40,97,-0.304673359,2.481365379,136,918.3174085,918.8172203,918.3174085,918.8172203,80.95238095,1574379317,1574379322,4.367413998,27,3,133,-14,1574379315,1574379317,,,SK,1,20,F,Undergrad,2019_Nov_21_1520,AdjustExp1,3.1.5,60.4825834,Experiment
30,Stimuli/Morph30.JPG,Stimuli/Morph30.png,Stimuli/BlurLevel5/BlurEditedMorph30,Stimuli/BlurLevel5/BlurEditedMorph30.png,Stimuli/BlurLevel5/NumberedMorphs/BlurEditedMorph30.png,Stimuli/BlurLevel5/OriginalBlur/BlurEditedMorph30.png,Stimuli/BlurMorphTrio/EditedMorph30.png,010076right.gif,Stimuli/normal_thumbnails/30right.gif,1,0,1,0,0,40,40,29,,,61,2,41,335,2.265769468,-1.056545654,30,925.6492983,926.1834952,925.6492983,926.1834952,98.63945578,1574379325,1574379330,5.083300114,141,31,-1,-1,1574379322,1574379325,,,SK,1,20,F,Undergrad,2019_Nov_21_1520,AdjustExp1,3.1.5,60.4825834,Experiment
121,Stimuli/Morph121.JPG,Stimuli/Morph121.png,Stimuli/BlurLevel5/BlurEditedMorph121,Stimuli/BlurLevel5/BlurEditedMorph121.png,Stimuli/BlurLevel5/NumberedMorphs/BlurEditedMorph121.png,Stimuli/BlurLevel5/OriginalBlur/BlurEditedMorph121.png,Stimuli/BlurMorphTrio/EditedMorph121.png,None,None,1,0,1,0,0,41,41,120,,,31,2,42,27,2.22751631,1.134976249,121,933.4676325,933.9663596,933.4676325,933.9663596,78.23129252,1574379333,1574379335,2.716322184,85,105,16,16,1574379330,1574379333,,,SK,1,20,F,Undergrad,2019_Nov_21_1520,AdjustExp1,3.1.5,60.4825834,Experiment
44,Stimuli/Morph44.JPG,Stimuli/Morph44.png,Stimuli/BlurLevel5/BlurEditedMorph44,Stimuli/BlurLevel5/BlurEditedMorph44.png,Stimuli/BlurLevel5/NumberedMorphs/BlurEditedMorph44.png,Stimuli/BlurLevel5/OriginalBlur/BlurEditedMorph44.png,Stimuli/BlurMorphTrio/EditedMorph44.png,010126right.gif,Stimuli/normal_thumbnails/44right.gif,1,0,1,0,0,42,42,43,,,95,2,43,355,2.490486745,-0.217889357,44,939.1889484,939.683356,939.1889484,939.683356,95.91836735,1574379338,1574379341,2.549587011,28,41,3,3,1574379336,1574379338,,,SK,1,20,F,Undergrad,2019_Nov_21_1520,AdjustExp1,3.1.5,60.4825834,Experiment
4,Stimuli/Morph4.JPG,Stimuli/Morph4.png,Stimuli/BlurLevel5/BlurEditedMorph4,Stimuli/BlurLevel5/BlurEditedMorph4.png,Stimuli/BlurLevel5/NumberedMorphs/BlurEditedMorph4.png,Stimuli/BlurLevel5/OriginalBlur/BlurEditedMorph4.png,Stimuli/BlurMorphTrio/EditedMorph4.png,010010right.gif,Stimuli/normal_thumbnails/4right.gif,1,0,1,0,0,43,43,3,,,36,2,44,113,-0.976827821,2.301262134,4,944.5666666,945.0661991,944.5666666,945.0661991,97.27891156,1574379344,1574379347,3.333463669,44,2,2,2,1574379341,1574379344,,,SK,1,20,F,Undergrad,2019_Nov_21_1520,AdjustExp1,3.1.5,60.4825834,Experiment
124,Stimuli/Morph124.JPG,Stimuli/Morph124.png,Stimuli/BlurLevel5/BlurEditedMorph124,Stimuli/BlurLevel5/BlurEditedMorph124.png,Stimuli/BlurLevel5/NumberedMorphs/BlurEditedMorph124.png,Stimuli/BlurLevel5/OriginalBlur/BlurEditedMorph124.png,Stimuli/BlurMorphTrio/EditedMorph124.png,None,None,1,0,1,0,0,44,44,123,,,61,2,45,45,1.767766953,1.767766953,124,950.3323996,950.8326975,950.3323996,950.8326975,86.39455782,1574379349,1574379355,5.484047174,2,134,-10,-10,1574379347,1574379349,,,SK,1,20,F,Undergrad,2019_Nov_21_1520,AdjustExp1,3.1.5,60.4825834,Experiment
130,Stimuli/Morph130.JPG,Stimuli/Morph130.png,Stimuli/BlurLevel5/BlurEditedMorph130,Stimuli/BlurLevel5/BlurEditedMorph130.png,Stimuli/BlurLevel5/NumberedMorphs/BlurEditedMorph130.png,Stimuli/BlurLevel5/OriginalBlur/BlurEditedMorph130.png,Stimuli/BlurMorphTrio/EditedMorph130.png,None,None,1,0,1,0,0,45,45,129,,,88,2,46,333,2.22751631,-1.134976249,130,958.2557447,958.7496222,958.2557447,958.7496222,86.39455782,1574379357,1574379362,4.917426109,3,120,10,10,1574379355,1574379357,,,SK,1,20,F,Undergrad,2019_Nov_21_1520,AdjustExp1,3.1.5,60.4825834,Experiment
35,Stimuli/Morph35.JPG,Stimuli/Morph35.png,Stimuli/BlurLevel5/BlurEditedMorph35,Stimuli/BlurLevel5/BlurEditedMorph35.png,Stimuli/BlurLevel5/NumberedMorphs/BlurEditedMorph35.png,Stimuli/BlurLevel5/OriginalBlur/BlurEditedMorph35.png,Stimuli/BlurMorphTrio/EditedMorph35.png,010094right.gif,Stimuli/normal_thumbnails/35right.gif,1,0,1,0,0,46,46,34,,,55,2,47,206,-2.246985116,-1.095927867,35,965.4986248,965.9993168,965.4986248,965.9993168,91.83673469,1574379365,1574379366,1.933058023,9,41,-6,-6,1574379362,1574379365,,,SK,1,20,F,Undergrad,2019_Nov_21_1520,AdjustExp1,3.1.5,60.4825834,Experiment
86,Stimuli/Morph86.JPG,Stimuli/Morph86.png,Stimuli/BlurLevel5/BlurEditedMorph86,Stimuli/BlurLevel5/BlurEditedMorph86.png,Stimuli/BlurLevel5/NumberedMorphs/BlurEditedMorph86.png,Stimuli/BlurLevel5/OriginalBlur/BlurEditedMorph86.png,Stimuli/BlurMorphTrio/EditedMorph86.png,020266right.gif,Stimuli/normal_thumbnails/86right.gif,1,0,1,0,0,47,47,85,,,6,2,48,66,1.016841608,2.283863644,86,970.2490407,970.7493065,970.2490407,970.7493065,98.63945578,1574379369,1574379373,3.233876944,125,87,-1,-1,1574379367,1574379369,,,SK,1,20,F,Undergrad,2019_Nov_21_1520,AdjustExp1,3.1.5,60.4825834,Experiment
143,Stimuli/Morph143.JPG,Stimuli/Morph143.png,Stimuli/BlurLevel5/BlurEditedMorph143,Stimuli/BlurLevel5/BlurEditedMorph143.png,Stimuli/BlurLevel5/NumberedMorphs/BlurEditedMorph143.png,Stimuli/BlurLevel5/OriginalBlur/BlurEditedMorph143.png,Stimuli/BlurMorphTrio/EditedMorph143.png,None,None,1,0,1,0,0,48,48,142,,,68,2,49,176,-2.493910126,0.174391184,143,976.1495441,976.6495564,976.1495441,976.6495564,97.27891156,1574379375,1574379379,3.533881187,86,145,-2,-2,1574379373,1574379375,,,SK,1,20,F,Undergrad,2019_Nov_21_1520,AdjustExp1,3.1.5,60.4825834,Experiment
2,Stimuli/Morph2.JPG,Stimuli/Morph2.png,Stimuli/BlurLevel5/BlurEditedMorph2,Stimuli/BlurLevel5/BlurEditedMorph2.png,Stimuli/BlurLevel5/NumberedMorphs/BlurEditedMorph2.png,Stimuli/BlurLevel5/OriginalBlur/BlurEditedMorph2.png,Stimuli/BlurMorphTrio/EditedMorph2.png,010006right.gif,Stimuli/normal_thumbnails/2right.gif,1,0,1,0,0,49,49,1,,,24,2,50,101,-0.477022488,2.454067959,2,982.2988179,982.7992695,982.2988179,982.7992695,97.27891156,1574379381,1574379384,2.716895819,144,147,-145,2,1574379379,1574379381,,,SK,1,20,F,Undergrad,2019_Nov_21_1520,AdjustExp1,3.1.5,60.4825834,Experiment
10,Stimuli/Morph10.JPG,Stimuli/Morph10.png,Stimuli/BlurLevel5/BlurEditedMorph10,Stimuli/BlurLevel5/BlurEditedMorph10.png,Stimuli/BlurLevel5/NumberedMorphs/BlurEditedMorph10.png,Stimuli/BlurLevel5/OriginalBlur/BlurEditedMorph10.png,Stimuli/BlurMorphTrio/EditedMorph10.png,010016right.gif,Stimuli/normal_thumbnails/10right.gif,1,0,1,0,0,50,50,9,,,59,2,51,141,-1.942864904,1.573300978,10,987.3815477,987.8825222,987.3815477,987.8825222,100,1574379386,1574379390,3.282930136,100,10,0,0,1574379384,1574379386,,,SK,1,20,F,Undergrad,2019_Nov_21_1520,AdjustExp1,3.1.5,60.4825834,Experiment
105,Stimuli/Morph105.JPG,Stimuli/Morph105.png,Stimuli/BlurLevel5/BlurEditedMorph105,Stimuli/BlurLevel5/BlurEditedMorph105.png,Stimuli/BlurLevel5/NumberedMorphs/BlurEditedMorph105.png,Stimuli/BlurLevel5/OriginalBlur/BlurEditedMorph105.png,Stimuli/BlurMorphTrio/EditedMorph105.png,None,None,1,0,1,0,0,51,51,104,,,41,2,52,1,2.499619238,0.043631016,105,993.3830245,993.8825699,993.3830245,993.8825699,95.91836735,1574379392,1574379398,5.417252064,58,108,-3,-3,1574379390,1574379392,,,SK,1,20,F,Undergrad,2019_Nov_21_1520,AdjustExp1,3.1.5,60.4825834,Experiment
48,Stimuli/Morph48.JPG,Stimuli/Morph48.png,Stimuli/BlurLevel5/BlurEditedMorph48,Stimuli/BlurLevel5/BlurEditedMorph48.png,Stimuli/BlurLevel5/NumberedMorphs/BlurEditedMorph48.png,Stimuli/BlurLevel5/OriginalBlur/BlurEditedMorph48.png,Stimuli/BlurMorphTrio/EditedMorph48.png,010131right.gif,Stimuli/normal_thumbnails/48right.gif,1,0,1,0,0,52,52,47,,,74,2,53,143,-1.996588775,1.504537558,48,1001.650619,1002.148844,1001.650619,1002.148844,91.83673469,1574379401,1574379404,3.800816774,8,42,6,6,1574379398,1574379401,,,SK,1,20,F,Undergrad,2019_Nov_21_1520,AdjustExp1,3.1.5,60.4825834,Experiment
70,Stimuli/Morph70.JPG,Stimuli/Morph70.png,Stimuli/BlurLevel5/BlurEditedMorph70,Stimuli/BlurLevel5/BlurEditedMorph70.png,Stimuli/BlurLevel5/NumberedMorphs/BlurEditedMorph70.png,Stimuli/BlurLevel5/OriginalBlur/BlurEditedMorph70.png,Stimuli/BlurMorphTrio/EditedMorph70.png,020221right.gif,Stimuli/normal_thumbnails/70right.gif,1,0,1,0,0,53,53,69,,,68,2,54,271,0.043631016,-2.499619238,70,1007.999248,1008.732053,1007.999248,1008.732053,94.55782313,1574379407,1574379409,1.700265884,42,66,4,4,1574379405,1574379407,,,SK,1,20,F,Undergrad,2019_Nov_21_1520,AdjustExp1,3.1.5,60.4825834,Experiment
31,Stimuli/Morph31.JPG,Stimuli/Morph31.png,Stimuli/BlurLevel5/BlurEditedMorph31,Stimuli/BlurLevel5/BlurEditedMorph31.png,Stimuli/BlurLevel5/NumberedMorphs/BlurEditedMorph31.png,Stimuli/BlurLevel5/OriginalBlur/BlurEditedMorph31.png,Stimuli/BlurMorphTrio/EditedMorph31.png,010079right.gif,Stimuli/normal_thumbnails/31right.gif,1,0,1,0,0,54,54,30,,,16,2,55,273,0.130839891,-2.496573837,31,1012.350308,1012.84909,1012.350308,1012.84909,94.55782313,1574379411,1574379414,2.299883127,10,35,-4,-4,1574379409,1574379411,,,SK,1,20,F,Undergrad,2019_Nov_21_1520,AdjustExp1,3.1.5,60.4825834,Experiment
75,Stimuli/Morph75.JPG,Stimuli/Morph75.png,Stimuli/BlurLevel5/BlurEditedMorph75,Stimuli/BlurLevel5/BlurEditedMorph75.png,Stimuli/BlurLevel5/NumberedMorphs/BlurEditedMorph75.png,Stimuli/BlurLevel5/OriginalBlur/BlurEditedMorph75.png,Stimuli/BlurMorphTrio/EditedMorph75.png,020233right.gif,Stimuli/normal_thumbnails/75right.gif,1,0,1,0,0,55,55,74,,,48,2,56,171,-2.469220851,0.391086163,75,1016.981548,1017.482217,1016.981548,1017.482217,93.19727891,1574379416,1574379420,4.266418934,122,70,5,5,1574379414,1574379416,,,SK,1,20,F,Undergrad,2019_Nov_21_1520,AdjustExp1,3.1.5,60.4825834,Experiment
119,Stimuli/Morph119.JPG,Stimuli/Morph119.png,Stimuli/BlurLevel5/BlurEditedMorph119,Stimuli/BlurLevel5/BlurEditedMorph119.png,Stimuli/BlurLevel5/NumberedMorphs/BlurEditedMorph119.png,Stimuli/BlurLevel5/OriginalBlur/BlurEditedMorph119.png,Stimuli/BlurMorphTrio/EditedMorph119.png,None,None,1,0,1,0,0,56,56,118,,,34,2,57,23,2.301262134,0.976827821,119,1023.96576,1024.465095,1023.96576,1024.465095,61.9047619,1574379423,1574379424,1.451124907,111,91,28,28,1574379421,1574379423,,,SK,1,20,F,Undergrad,2019_Nov_21_1520,AdjustExp1,3.1.5,60.4825834,Experiment
26,Stimuli/Morph26.JPG,Stimuli/Morph26.png,Stimuli/BlurLevel5/BlurEditedMorph26,Stimuli/BlurLevel5/BlurEditedMorph26.png,Stimuli/BlurLevel5/NumberedMorphs/BlurEditedMorph26.png,Stimuli/BlurLevel5/OriginalBlur/BlurEditedMorph26.png,Stimuli/BlurMorphTrio/EditedMorph26.png,010070right.gif,Stimuli/normal_thumbnails/26right.gif,1,0,1,0,0,57,57,25,,,64,2,58,85,0.217889357,2.490486745,26,1028.015316,1028.514519,1028.015316,1028.514519,67.34693878,1574379427,1574379429,2.26757288,117,2,24,24,1574379425,1574379427,,,SK,1,20,F,Undergrad,2019_Nov_21_1520,AdjustExp1,3.1.5,60.4825834,Experiment
45,Stimuli/Morph45.JPG,Stimuli/Morph45.png,Stimuli/BlurLevel5/BlurEditedMorph45,Stimuli/BlurLevel5/BlurEditedMorph45.png,Stimuli/BlurLevel5/NumberedMorphs/BlurEditedMorph45.png,Stimuli/BlurLevel5/OriginalBlur/BlurEditedMorph45.png,Stimuli/BlurMorphTrio/EditedMorph45.png,010127right.gif,Stimuli/normal_thumbnails/45right.gif,1,0,1,0,0,58,58,44,,,87,2,59,284,0.604804739,-2.425739316,45,1032.937082,1033.431981,1032.937082,1033.431981,87.75510204,1574379432,1574379434,1.950206995,30,54,-9,-9,1574379430,1574379432,,,SK,1,20,F,Undergrad,2019_Nov_21_1520,AdjustExp1,3.1.5,60.4825834,Experiment
13,Stimuli/Morph13.JPG,Stimuli/Morph13.png,Stimuli/BlurLevel5/BlurEditedMorph13,Stimuli/BlurLevel5/BlurEditedMorph13.png,Stimuli/BlurLevel5/NumberedMorphs/BlurEditedMorph13.png,Stimuli/BlurLevel5/OriginalBlur/BlurEditedMorph13.png,Stimuli/BlurMorphTrio/EditedMorph13.png,010027right.gif,Stimuli/normal_thumbnails/13right.gif,1,0,1,0,0,59,59,12,,,4,2,60,336,2.283863644,-1.016841608,13,1037.765074,1038.264687,1037.765074,1038.264687,90.47619048,1574379437,1574379439,1.934362173,130,6,7,7,1574379434,1574379437,,,SK,1,20,F,Undergrad,2019_Nov_21_1520,AdjustExp1,3.1.5,60.4825834,Experiment
1,Stimuli/Morph1.JPG,Stimuli/Morph1.png,Stimuli/BlurLevel5/BlurEditedMorph1,Stimuli/BlurLevel5/BlurEditedMorph1.png,Stimuli/BlurLevel5/NumberedMorphs/BlurEditedMorph1.png,Stimuli/BlurLevel5/OriginalBlur/BlurEditedMorph1.png,Stimuli/BlurMorphTrio/EditedMorph1.png,010003right.gif,Stimuli/normal_thumbnails/1right.gif,1,0,1,0,0,60,60,0,,,89,2,61,343,2.39076189,-0.730929262,1,1042.41466,1042.915134,1042.41466,1042.915134,97.27891156,1574379441,1574379445,3.050419092,132,146,-145,2,1574379439,1574379441,,,SK,1,20,F,Undergrad,2019_Nov_21_1520,AdjustExp1,3.1.5,60.4825834,Experiment
69,Stimuli/Morph69.JPG,Stimuli/Morph69.png,Stimuli/BlurLevel5/BlurEditedMorph69,Stimuli/BlurLevel5/BlurEditedMorph69.png,Stimuli/BlurLevel5/NumberedMorphs/BlurEditedMorph69.png,Stimuli/BlurLevel5/OriginalBlur/BlurEditedMorph69.png,Stimuli/BlurMorphTrio/EditedMorph69.png,020220right.gif,Stimuli/normal_thumbnails/69right.gif,1,0,1,0,0,61,61,68,,,12,2,62,63,1.134976249,2.22751631,69,1048.535608,1049.031437,1048.535608,1049.031437,98.63945578,1574379448,1574379452,3.900330305,1,68,1,1,1574379445,1574379448,,,SK,1,20,F,Undergrad,2019_Nov_21_1520,AdjustExp1,3.1.5,60.4825834,Experiment
36,Stimuli/Morph36.JPG,Stimuli/Morph36.png,Stimuli/BlurLevel5/BlurEditedMorph36,Stimuli/BlurLevel5/BlurEditedMorph36.png,Stimuli/BlurLevel5/NumberedMorphs/BlurEditedMorph36.png,Stimuli/BlurLevel5/OriginalBlur/BlurEditedMorph36.png,Stimuli/BlurMorphTrio/EditedMorph36.png,010095right.gif,Stimuli/normal_thumbnails/36right.gif,1,0,1,0,0,62,62,35,,,49,2,63,32,2.12012024,1.324798161,36,1055.197961,1055.698211,1055.197961,1055.698211,100,1574379454,1574379456,1.983559132,24,36,0,0,1574379452,1574379454,,,SK,1,20,F,Undergrad,2019_Nov_21_1520,AdjustExp1,3.1.5,60.4825834,Experiment
6,Stimuli/Morph6.JPG,Stimuli/Morph6.png,Stimuli/BlurLevel5/BlurEditedMorph6,Stimuli/BlurLevel5/BlurEditedMorph6.png,Stimuli/BlurLevel5/NumberedMorphs/BlurEditedMorph6.png,Stimuli/BlurLevel5/OriginalBlur/BlurEditedMorph6.png,Stimuli/BlurMorphTrio/EditedMorph6.png,010012right.gif,Stimuli/normal_thumbnails/6right.gif,1,0,1,0,0,63,63,5,,,87,2,64,318,1.857862064,-1.672826516,6,1059.902266,1060.398166,1059.902266,1060.398166,86.39455782,1574379459,1574379468,8.867454767,69,143,-137,10,1574379457,1574379459,,,SK,1,20,F,Undergrad,2019_Nov_21_1520,AdjustExp1,3.1.5,60.4825834,Experiment
92,Stimuli/Morph92.JPG,Stimuli/Morph92.png,Stimuli/BlurLevel5/BlurEditedMorph92,Stimuli/BlurLevel5/BlurEditedMorph92.png,Stimuli/BlurLevel5/NumberedMorphs/BlurEditedMorph92.png,Stimuli/BlurLevel5/OriginalBlur/BlurEditedMorph92.png,Stimuli/BlurMorphTrio/EditedMorph92.png,020277right.gif,Stimuli/normal_thumbnails/92right.gif,1,0,1,0,0,64,64,91,,,86,2,65,45,1.767766953,1.767766953,92,1071.202501,1071.698091,1071.202501,1071.698091,89.11564626,1574379470,1574379478,7.534255028,18,100,-8,-8,1574379468,1574379470,,,SK,1,20,F,Undergrad,2019_Nov_21_1520,AdjustExp1,3.1.5,60.4825834,Experiment
22,Stimuli/Morph22.JPG,Stimuli/Morph22.png,Stimuli/BlurLevel5/BlurEditedMorph22,Stimuli/BlurLevel5/BlurEditedMorph22.png,Stimuli/BlurLevel5/NumberedMorphs/BlurEditedMorph22.png,Stimuli/BlurLevel5/OriginalBlur/BlurEditedMorph22.png,Stimuli/BlurMorphTrio/EditedMorph22.png,010055right.gif,Stimuli/normal_thumbnails/22right.gif,1,0,1,0,0,65,65,21,,,35,2,66,18,2.377641291,0.772542486,22,1081.098336,1081.597659,1081.098336,1081.597659,93.19727891,1574379480,1574379482,2.149724007,128,27,-5,-5,1574379478,1574379480,,,SK,1,20,F,Undergrad,2019_Nov_21_1520,AdjustExp1,3.1.5,60.4825834,Experiment
85,Stimuli/Morph85.JPG,Stimuli/Morph85.png,Stimuli/BlurLevel5/BlurEditedMorph85,Stimuli/BlurLevel5/BlurEditedMorph85.png,Stimuli/BlurLevel5/NumberedMorphs/BlurEditedMorph85.png,Stimuli/BlurLevel5/OriginalBlur/BlurEditedMorph85.png,Stimuli/BlurMorphTrio/EditedMorph85.png,020264right.gif,Stimuli/normal_thumbnails/85right.gif,1,0,1,0,0,66,66,84,,,26,2,67,129,-1.573300978,1.942864904,85,1085.63117,1086.131254,1085.63117,1086.131254,80.95238095,1574379485,1574379489,4.233106375,6,99,-14,-14,1574379483,1574379485,,,SK,1,20,F,Undergrad,2019_Nov_21_1520,AdjustExp1,3.1.5,60.4825834,Experiment
27,Stimuli/Morph27.JPG,Stimuli/Morph27.png,Stimuli/BlurLevel5/BlurEditedMorph27,Stimuli/BlurLevel5/BlurEditedMorph27.png,Stimuli/BlurLevel5/NumberedMorphs/BlurEditedMorph27.png,Stimuli/BlurLevel5/OriginalBlur/BlurEditedMorph27.png,Stimuli/BlurMorphTrio/EditedMorph27.png,010072right.gif,Stimuli/normal_thumbnails/27right.gif,1,0,1,0,0,67,67,26,,,93,2,68,155,-2.265769468,1.056545654,27,1093.368744,1093.864372,1093.368744,1093.864372,95.91836735,1574379492,1574379496,3.233005047,61,30,-3,-3,1574379489,1574379492,,,SK,1,20,F,Undergrad,2019_Nov_21_1520,AdjustExp1,3.1.5,60.4825834,Experiment
60,Stimuli/Morph60.JPG,Stimuli/Morph60.png,Stimuli/BlurLevel5/BlurEditedMorph60,Stimuli/BlurLevel5/BlurEditedMorph60.png,Stimuli/BlurLevel5/NumberedMorphs/BlurEditedMorph60.png,Stimuli/BlurLevel5/OriginalBlur/BlurEditedMorph60.png,Stimuli/BlurMorphTrio/EditedMorph60.png,020200right.gif,Stimuli/normal_thumbnails/60right.gif,1,0,1,0,0,68,68,59,,,49,2,69,172,-2.475670172,0.347932752,60,1099.181143,1099.681158,1099.181143,1099.681158,94.55782313,1574379498,1574379501,3.000164032,111,56,4,4,1574379496,1574379498,,,SK,1,20,F,Undergrad,2019_Nov_21_1520,AdjustExp1,3.1.5,60.4825834,Experiment
103,Stimuli/Morph103.JPG,Stimuli/Morph103.png,Stimuli/BlurLevel5/BlurEditedMorph103,Stimuli/BlurLevel5/BlurEditedMorph103.png,Stimuli/BlurLevel5/NumberedMorphs/BlurEditedMorph103.png,Stimuli/BlurLevel5/OriginalBlur/BlurEditedMorph103.png,Stimuli/BlurMorphTrio/EditedMorph103.png,None,None,1,0,1,0,0,69,69,102,,,64,2,70,221,-1.886773951,-1.640147572,103,1104.719519,1105.214452,1104.719519,1105.214452,98.63945578,1574379504,1574379509,5.049966097,136,104,-1,-1,1574379502,1574379504,,,SK,1,20,F,Undergrad,2019_Nov_21_1520,AdjustExp1,3.1.5,60.4825834,Experiment
97,Stimuli/Morph97.JPG,Stimuli/Morph97.png,Stimuli/BlurLevel5/BlurEditedMorph97,Stimuli/BlurLevel5/BlurEditedMorph97.png,Stimuli/BlurLevel5/NumberedMorphs/BlurEditedMorph97.png,Stimuli/BlurLevel5/OriginalBlur/BlurEditedMorph97.png,Stimuli/BlurMorphTrio/EditedMorph97.png,020294right.gif,Stimuli/normal_thumbnails/97right.gif,1,0,1,0,0,70,70,96,,,100,2,71,138,-1.857862064,1.672826516,97,1112.413893,1112.914092,1112.413893,1112.914092,97.27891156,1574379511,1574379515,3.083791018,140,99,-2,-2,1574379509,1574379511,,,SK,1,20,F,Undergrad,2019_Nov_21_1520,AdjustExp1,3.1.5,60.4825834,Experiment
107,Stimuli/Morph107.JPG,Stimuli/Morph107.png,Stimuli/BlurLevel5/BlurEditedMorph107,Stimuli/BlurLevel5/BlurEditedMorph107.png,Stimuli/BlurLevel5/NumberedMorphs/BlurEditedMorph107.png,Stimuli/BlurLevel5/OriginalBlur/BlurEditedMorph107.png,Stimuli/BlurMorphTrio/EditedMorph107.png,None,None,1,0,1,0,0,71,71,106,,,25,2,72,270,-4.59E-16,-2.5,107,1118.034576,1118.529697,1118.034576,1118.529697,95.91836735,1574379517,1574379519,1.866311789,103,104,3,3,1574379515,1574379517,,,SK,1,20,F,Undergrad,2019_Nov_21_1520,AdjustExp1,3.1.5,60.4825834,Experiment
56,Stimuli/Morph56.JPG,Stimuli/Morph56.png,Stimuli/BlurLevel5/BlurEditedMorph56,Stimuli/BlurLevel5/BlurEditedMorph56.png,Stimuli/BlurLevel5/NumberedMorphs/BlurEditedMorph56.png,Stimuli/BlurLevel5/OriginalBlur/BlurEditedMorph56.png,Stimuli/BlurMorphTrio/EditedMorph56.png,010157right.gif,Stimuli/normal_thumbnails/56right.gif,1,0,1,0,0,72,72,55,,,100,2,73,122,-1.324798161,2.12012024,56,1122.247487,1122.747484,1122.247487,1122.747484,94.55782313,1574379521,1574379526,5.133039713,130,52,4,4,1574379519,1574379521,,,SK,1,20,F,Undergrad,2019_Nov_21_1520,AdjustExp1,3.1.5,60.4825834,Experiment
50,Stimuli/Morph50.JPG,Stimuli/Morph50.png,Stimuli/BlurLevel5/BlurEditedMorph50,Stimuli/BlurLevel5/BlurEditedMorph50.png,Stimuli/BlurLevel5/NumberedMorphs/BlurEditedMorph50.png,Stimuli/BlurLevel5/OriginalBlur/BlurEditedMorph50.png,Stimuli/BlurMorphTrio/EditedMorph50.png,010142right.gif,Stimuli/normal_thumbnails/50right.gif,1,0,1,0,0,73,73,49,,,16,2,74,53,1.504537558,1.996588775,50,1129.880733,1130.380701,1129.880733,1130.380701,98.63945578,1574379529,1574379534,5.049302101,100,49,1,1,1574379527,1574379529,,,SK,1,20,F,Undergrad,2019_Nov_21_1520,AdjustExp1,3.1.5,60.4825834,Experiment
139,Stimuli/Morph139.JPG,Stimuli/Morph139.png,Stimuli/BlurLevel5/BlurEditedMorph139,Stimuli/BlurLevel5/BlurEditedMorph139.png,Stimuli/BlurLevel5/NumberedMorphs/BlurEditedMorph139.png,Stimuli/BlurLevel5/OriginalBlur/BlurEditedMorph139.png,Stimuli/BlurMorphTrio/EditedMorph139.png,None,None,1,0,1,0,0,74,74,138,,,12,2,75,245,-1.056545654,-2.265769468,139,1137.546465,1138.046244,1137.546465,1138.046244,65.98639456,1574379537,1574379546,9.516514063,145,114,25,25,1574379534,1574379537,,,SK,1,20,F,Undergrad,2019_Nov_21_1520,AdjustExp1,3.1.5,60.4825834,Experiment
73,Stimuli/Morph73.JPG,Stimuli/Morph73.png,Stimuli/BlurLevel5/BlurEditedMorph73,Stimuli/BlurLevel5/BlurEditedMorph73.png,Stimuli/BlurLevel5/NumberedMorphs/BlurEditedMorph73.png,Stimuli/BlurLevel5/OriginalBlur/BlurEditedMorph73.png,Stimuli/BlurMorphTrio/EditedMorph73.png,020230right.gif,Stimuli/normal_thumbnails/73right.gif,1,0,1,0,0,75,75,72,,,92,2,76,212,-2.12012024,-1.324798161,73,1150.281468,1150.780272,1150.281468,1150.780272,93.19727891,1574379549,1574379553,3.299371958,11,78,-5,-5,1574379546,1574379549,,,SK,1,20,F,Undergrad,2019_Nov_21_1520,AdjustExp1,3.1.5,60.4825834,Experiment
77,Stimuli/Morph77.JPG,Stimuli/Morph77.png,Stimuli/BlurLevel5/BlurEditedMorph77,Stimuli/BlurLevel5/BlurEditedMorph77.png,Stimuli/BlurLevel5/NumberedMorphs/BlurEditedMorph77.png,Stimuli/BlurLevel5/OriginalBlur/BlurEditedMorph77.png,Stimuli/BlurMorphTrio/EditedMorph77.png,020235right.gif,Stimuli/normal_thumbnails/77right.gif,1,0,1,0,0,76,76,76,,,39,2,77,57,1.361597588,2.09667642,77,1156.215021,1156.71366,1156.215021,1156.71366,100,1574379555,1574379560,5.083144188,95,77,0,0,1574379553,1574379555,,,SK,1,20,F,Undergrad,2019_Nov_21_1520,AdjustExp1,3.1.5,60.4825834,Experiment
127,Stimuli/Morph127.JPG,Stimuli/Morph127.png,Stimuli/BlurLevel5/BlurEditedMorph127,Stimuli/BlurLevel5/BlurEditedMorph127.png,Stimuli/BlurLevel5/NumberedMorphs/BlurEditedMorph127.png,Stimuli/BlurLevel5/OriginalBlur/BlurEditedMorph127.png,Stimuli/BlurMorphTrio/EditedMorph127.png,None,None,1,0,1,0,0,77,77,126,,,11,2,78,94,-0.174391184,2.493910126,127,1164.517709,1165.013082,1164.517709,1165.013082,55.10204082,1574379564,1574379570,5.933648825,102,94,33,33,1574379561,1574379564,,,SK,1,20,F,Undergrad,2019_Nov_21_1520,AdjustExp1,3.1.5,60.4825834,Experiment
91,Stimuli/Morph91.JPG,Stimuli/Morph91.png,Stimuli/BlurLevel5/BlurEditedMorph91,Stimuli/BlurLevel5/BlurEditedMorph91.png,Stimuli/BlurLevel5/NumberedMorphs/BlurEditedMorph91.png,Stimuli/BlurLevel5/OriginalBlur/BlurEditedMorph91.png,Stimuli/BlurMorphTrio/EditedMorph91.png,020276right.gif,Stimuli/normal_thumbnails/91right.gif,1,0,1,0,0,78,78,90,,,45,2,79,64,1.095927867,2.246985116,91,1172.930102,1173.429237,1172.930102,1173.429237,89.11564626,1574379572,1574379576,4.016857147,31,83,8,8,1574379570,1574379572,,,SK,1,20,F,Undergrad,2019_Nov_21_1520,AdjustExp1,3.1.5,60.4825834,Experiment
101,Stimuli/Morph101.JPG,Stimuli/Morph101.png,Stimuli/BlurLevel5/BlurEditedMorph101,Stimuli/BlurLevel5/BlurEditedMorph101.png,Stimuli/BlurLevel5/NumberedMorphs/BlurEditedMorph101.png,Stimuli/BlurLevel5/OriginalBlur/BlurEditedMorph101.png,Stimuli/BlurMorphTrio/EditedMorph101.png,None,None,1,0,1,0,0,79,79,100,,,15,2,80,233,-1.504537558,-1.996588775,101,1179.58213,1180.079853,1179.58213,1180.079853,100,1574379579,1574379581,1.950170994,114,101,0,0,1574379576,1574379579,,,SK,1,20,F,Undergrad,2019_Nov_21_1520,AdjustExp1,3.1.5,60.4825834,Experiment
62,Stimuli/Morph62.JPG,Stimuli/Morph62.png,Stimuli/BlurLevel5/BlurEditedMorph62,Stimuli/BlurLevel5/BlurEditedMorph62.png,Stimuli/BlurLevel5/NumberedMorphs/BlurEditedMorph62.png,Stimuli/BlurLevel5/OriginalBlur/BlurEditedMorph62.png,Stimuli/BlurMorphTrio/EditedMorph62.png,020205right.gif,Stimuli/normal_thumbnails/62right.gif,1,0,1,0,0,80,80,61,,,59,2,81,204,-2.283863644,-1.016841608,62,1183.89614,1184.396679,1183.89614,1184.396679,97.27891156,1574379583,1574379587,3.932579756,28,60,2,2,1574379581,1574379583,,,SK,1,20,F,Undergrad,2019_Nov_21_1520,AdjustExp1,3.1.5,60.4825834,Experiment
16,Stimuli/Morph16.JPG,Stimuli/Morph16.png,Stimuli/BlurLevel5/BlurEditedMorph16,Stimuli/BlurLevel5/BlurEditedMorph16.png,Stimuli/BlurLevel5/NumberedMorphs/BlurEditedMorph16.png,Stimuli/BlurLevel5/OriginalBlur/BlurEditedMorph16.png,Stimuli/BlurMorphTrio/EditedMorph16.png,010034right.gif,Stimuli/normal_thumbnails/16right.gif,1,0,1,0,0,81,81,15,,,33,2,82,176,-2.493910126,0.174391184,16,1190.129365,1190.629726,1190.129365,1190.629726,91.83673469,1574379589,1574379592,2.7497859,15,22,-6,-6,1574379587,1574379589,,,SK,1,20,F,Undergrad,2019_Nov_21_1520,AdjustExp1,3.1.5,60.4825834,Experiment
74,Stimuli/Morph74.JPG,Stimuli/Morph74.png,Stimuli/BlurLevel5/BlurEditedMorph74,Stimuli/BlurLevel5/BlurEditedMorph74.png,Stimuli/BlurLevel5/NumberedMorphs/BlurEditedMorph74.png,Stimuli/BlurLevel5/OriginalBlur/BlurEditedMorph74.png,Stimuli/BlurMorphTrio/EditedMorph74.png,020232right.gif,Stimuli/normal_thumbnails/74right.gif,1,0,1,0,0,82,82,73,,,74,2,83,43,1.828384254,1.7049959,74,1195.331773,1195.829616,1195.331773,1195.829616,95.91836735,1574379594,1574379596,1.867299795,60,77,-3,-3,1574379592,1574379594,,,SK,1,20,F,Undergrad,2019_Nov_21_1520,AdjustExp1,3.1.5,60.4825834,Experiment
25,Stimuli/Morph25.JPG,Stimuli/Morph25.png,Stimuli/BlurLevel5/BlurEditedMorph25,Stimuli/BlurLevel5/BlurEditedMorph25.png,Stimuli/BlurLevel5/NumberedMorphs/BlurEditedMorph25.png,Stimuli/BlurLevel5/OriginalBlur/BlurEditedMorph25.png,Stimuli/BlurMorphTrio/EditedMorph25.png,010069right.gif,Stimuli/normal_thumbnails/25right.gif,1,0,1,0,0,83,83,24,,,3,2,84,310,1.606969024,-1.915111108,25,1199.714749,1200.213175,1199.714749,1200.213175,89.11564626,1574379599,1574379603,3.682812929,85,17,8,8,1574379597,1574379599,,,SK,1,20,F,Undergrad,2019_Nov_21_1520,AdjustExp1,3.1.5,60.4825834,Experiment
144,Stimuli/Morph144.JPG,Stimuli/Morph144.png,Stimuli/BlurLevel5/BlurEditedMorph144,Stimuli/BlurLevel5/BlurEditedMorph144.png,Stimuli/BlurLevel5/NumberedMorphs/BlurEditedMorph144.png,Stimuli/BlurLevel5/OriginalBlur/BlurEditedMorph144.png,Stimuli/BlurMorphTrio/EditedMorph144.png,None,None,1,0,1,0,0,84,84,143,,,9,2,85,32,2.12012024,1.324798161,144,1205.795441,1206.295981,1205.795441,1206.295981,94.55782313,1574379605,1574379606,1.049612045,144,1,143,-4,1574379603,1574379605,,,SK,1,20,F,Undergrad,2019_Nov_21_1520,AdjustExp1,3.1.5,60.4825834,Experiment
