stimulusID,stimulus_JPG,stimulusPath,stimulusPath2,stimulusPath3,stimulusPath4,stimulusPath5,stimulusPath6,xRayOriginal,xRayPath,Blocks.thisRepN,Blocks.thisTrialN,Blocks.thisN,Blocks.thisIndex,Trials.thisRepN,Trials.thisTrialN,Trials.thisN,Trials.thisIndex,text_2.started,text_2.stopped,xrayID,blockNumber,trialNumber,stimLocationDeg,stimXCoord,stimYCoord,stimulusID,xray1.started,xray1.stopped,tumors.started,tumors.stopped,trialCorrect%,startRespTime,endRespTime,RT,morphTrack,morphID,errorRaw,errorCorrected,startStimTime,endStimTime,key_resp.keys,key_resp.rt,participant,session,age,gender,status,date,expName,psychopyVersion,frameRate,blockType
87,Stimuli/Morph87.JPG,Stimuli/Morph87.png,Stimuli/BlurLevel5/BlurEditedMorph87,Stimuli/BlurLevel5/BlurEditedMorph87.png,Stimuli/BlurLevel5/NumberedMorphs/BlurEditedMorph87.png,Stimuli/BlurLevel5/OriginalBlur/BlurEditedMorph87.png,Stimuli/BlurMorphTrio/EditedMorph87.png,020270right.gif,Stimuli/normal_thumbnails/87right.gif,0,0,0,0,0,0,0,86,51.8657989,None,81,1,1,170,-2.462019383,0.434120444,87,83.01629433,83.51607729,83.01629433,83.51607729,44.21768707,1574368594,1574368598,4.04987812,116,46,41,41,1574368592,1574368594,,,SS,1,20,F,Undergrad,2019_Nov_21_1235,AdjustExp1,3.1.5,60.02101864,Experiment
11,Stimuli/Morph11.JPG,Stimuli/Morph11.png,Stimuli/BlurLevel5/BlurEditedMorph11,Stimuli/BlurLevel5/BlurEditedMorph11.png,Stimuli/BlurLevel5/NumberedMorphs/BlurEditedMorph11.png,Stimuli/BlurLevel5/OriginalBlur/BlurEditedMorph11.png,Stimuli/BlurMorphTrio/EditedMorph11.png,010024right.gif,Stimuli/normal_thumbnails/11right.gif,0,0,0,0,0,1,1,10,,,15,1,2,77,0.562377636,2.435925162,11,89.33447655,89.83238234,89.33447655,89.83238234,79.59183673,1574368601,1574368605,4.700180054,83,26,-15,-15,1574368599,1574368601,,,SS,1,20,F,Undergrad,2019_Nov_21_1235,AdjustExp1,3.1.5,60.02101864,Experiment
97,Stimuli/Morph97.JPG,Stimuli/Morph97.png,Stimuli/BlurLevel5/BlurEditedMorph97,Stimuli/BlurLevel5/BlurEditedMorph97.png,Stimuli/BlurLevel5/NumberedMorphs/BlurEditedMorph97.png,Stimuli/BlurLevel5/OriginalBlur/BlurEditedMorph97.png,Stimuli/BlurMorphTrio/EditedMorph97.png,020294right.gif,Stimuli/normal_thumbnails/97right.gif,0,0,0,0,0,2,2,96,,,2,1,3,85,0.217889357,2.490486745,97,96.2828881,96.78178179,96.2828881,96.78178179,76.8707483,1574368608,1574368610,2.749785185,133,80,17,17,1574368606,1574368608,,,SS,1,20,F,Undergrad,2019_Nov_21_1235,AdjustExp1,3.1.5,60.02101864,Experiment
131,Stimuli/Morph131.JPG,Stimuli/Morph131.png,Stimuli/BlurLevel5/BlurEditedMorph131,Stimuli/BlurLevel5/BlurEditedMorph131.png,Stimuli/BlurLevel5/NumberedMorphs/BlurEditedMorph131.png,Stimuli/BlurLevel5/OriginalBlur/BlurEditedMorph131.png,Stimuli/BlurMorphTrio/EditedMorph131.png,None,None,0,0,0,0,0,3,3,130,,,22,1,4,256,-0.604804739,-2.425739316,131,101.3215119,101.8147225,101.3215119,101.8147225,85.03401361,1574368613,1574368616,3.450253963,54,142,-11,-11,1574368611,1574368613,,,SS,1,20,F,Undergrad,2019_Nov_21_1235,AdjustExp1,3.1.5,60.02101864,Experiment
7,Stimuli/Morph7.JPG,Stimuli/Morph7.png,Stimuli/BlurLevel5/BlurEditedMorph7,Stimuli/BlurLevel5/BlurEditedMorph7.png,Stimuli/BlurLevel5/NumberedMorphs/BlurEditedMorph7.png,Stimuli/BlurLevel5/OriginalBlur/BlurEditedMorph7.png,Stimuli/BlurMorphTrio/EditedMorph7.png,010013right.gif,Stimuli/normal_thumbnails/7right.gif,0,0,0,0,0,4,4,6,,,34,1,5,68,0.936516484,2.317959636,7,107.2147889,107.7152304,107.2147889,107.7152304,31.97278912,1574368619,1574368619,0.033504009,104,104,-97,50,1574368616,1574368619,,,SS,1,20,F,Undergrad,2019_Nov_21_1235,AdjustExp1,3.1.5,60.02101864,Experiment
26,Stimuli/Morph26.JPG,Stimuli/Morph26.png,Stimuli/BlurLevel5/BlurEditedMorph26,Stimuli/BlurLevel5/BlurEditedMorph26.png,Stimuli/BlurLevel5/NumberedMorphs/BlurEditedMorph26.png,Stimuli/BlurLevel5/OriginalBlur/BlurEditedMorph26.png,Stimuli/BlurMorphTrio/EditedMorph26.png,010070right.gif,Stimuli/normal_thumbnails/26right.gif,0,0,0,0,0,5,5,25,,,87,1,6,175,-2.490486745,0.217889357,26,109.5649093,110.0652054,109.5649093,110.0652054,48.29931973,1574368621,1574368623,1.933670998,35,64,-38,-38,1574368619,1574368621,,,SS,1,20,F,Undergrad,2019_Nov_21_1235,AdjustExp1,3.1.5,60.02101864,Experiment
125,Stimuli/Morph125.JPG,Stimuli/Morph125.png,Stimuli/BlurLevel5/BlurEditedMorph125,Stimuli/BlurLevel5/BlurEditedMorph125.png,Stimuli/BlurLevel5/NumberedMorphs/BlurEditedMorph125.png,Stimuli/BlurLevel5/OriginalBlur/BlurEditedMorph125.png,Stimuli/BlurMorphTrio/EditedMorph125.png,None,None,0,0,0,0,0,6,6,124,,,23,1,7,136,-1.798349501,1.736645926,125,114.0150246,114.5156565,114.0150246,114.5156565,83.67346939,1574368625,1574368630,5.082980871,142,137,-12,-12,1574368623,1574368625,,,SS,1,20,F,Undergrad,2019_Nov_21_1235,AdjustExp1,3.1.5,60.02101864,Experiment
79,Stimuli/Morph79.JPG,Stimuli/Morph79.png,Stimuli/BlurLevel5/BlurEditedMorph79,Stimuli/BlurLevel5/BlurEditedMorph79.png,Stimuli/BlurLevel5/NumberedMorphs/BlurEditedMorph79.png,Stimuli/BlurLevel5/OriginalBlur/BlurEditedMorph79.png,Stimuli/BlurMorphTrio/EditedMorph79.png,020239right.gif,Stimuli/normal_thumbnails/79right.gif,0,0,0,0,0,7,7,78,,,28,1,8,31,2.142918252,1.287595187,79,121.5150094,122.0153027,121.5150094,122.0153027,91.83673469,1574368633,1574368634,1.617341995,62,85,-6,-6,1574368631,1574368633,,,SS,1,20,F,Undergrad,2019_Nov_21_1235,AdjustExp1,3.1.5,60.02101864,Experiment
114,Stimuli/Morph114.JPG,Stimuli/Morph114.png,Stimuli/BlurLevel5/BlurEditedMorph114,Stimuli/BlurLevel5/BlurEditedMorph114.png,Stimuli/BlurLevel5/NumberedMorphs/BlurEditedMorph114.png,Stimuli/BlurLevel5/OriginalBlur/BlurEditedMorph114.png,Stimuli/BlurMorphTrio/EditedMorph114.png,None,None,0,0,0,0,0,8,8,113,,,21,1,9,172,-2.475670172,0.347932752,114,125.6311652,126.1316934,125.6311652,126.1316934,53.7414966,1574368637,1574368639,2.299962997,13,80,34,34,1574368635,1574368637,,,SS,1,20,F,Undergrad,2019_Nov_21_1235,AdjustExp1,3.1.5,60.02101864,Experiment
25,Stimuli/Morph25.JPG,Stimuli/Morph25.png,Stimuli/BlurLevel5/BlurEditedMorph25,Stimuli/BlurLevel5/BlurEditedMorph25.png,Stimuli/BlurLevel5/NumberedMorphs/BlurEditedMorph25.png,Stimuli/BlurLevel5/OriginalBlur/BlurEditedMorph25.png,Stimuli/BlurMorphTrio/EditedMorph25.png,010069right.gif,Stimuli/normal_thumbnails/25right.gif,0,0,0,0,0,9,9,24,,,37,1,10,301,1.287595187,-2.142918252,25,130.3649862,130.8650482,130.3649862,130.8650482,97.27891156,1574368642,1574368644,2.333483934,15,23,2,2,1574368640,1574368642,,,SS,1,20,F,Undergrad,2019_Nov_21_1235,AdjustExp1,3.1.5,60.02101864,Experiment
86,Stimuli/Morph86.JPG,Stimuli/Morph86.png,Stimuli/BlurLevel5/BlurEditedMorph86,Stimuli/BlurLevel5/BlurEditedMorph86.png,Stimuli/BlurLevel5/NumberedMorphs/BlurEditedMorph86.png,Stimuli/BlurLevel5/OriginalBlur/BlurEditedMorph86.png,Stimuli/BlurMorphTrio/EditedMorph86.png,020266right.gif,Stimuli/normal_thumbnails/86right.gif,0,0,0,0,0,10,10,85,,,5,1,11,139,-1.886773951,1.640147572,86,135.1486763,135.6488726,135.1486763,135.6488726,97.27891156,1574368646,1574368648,1.449687004,56,84,2,2,1574368644,1574368646,,,SS,1,20,F,Undergrad,2019_Nov_21_1235,AdjustExp1,3.1.5,60.02101864,Experiment
101,Stimuli/Morph101.JPG,Stimuli/Morph101.png,Stimuli/BlurLevel5/BlurEditedMorph101,Stimuli/BlurLevel5/BlurEditedMorph101.png,Stimuli/BlurLevel5/NumberedMorphs/BlurEditedMorph101.png,Stimuli/BlurLevel5/OriginalBlur/BlurEditedMorph101.png,Stimuli/BlurMorphTrio/EditedMorph101.png,None,None,0,0,0,0,0,11,11,100,,,87,1,12,153,-2.22751631,1.134976249,101,138.9985662,139.498484,138.9985662,139.498484,95.91836735,1574368650,1574368653,2.86633873,138,98,3,3,1574368648,1574368650,,,SS,1,20,F,Undergrad,2019_Nov_21_1235,AdjustExp1,3.1.5,60.02101864,Experiment
31,Stimuli/Morph31.JPG,Stimuli/Morph31.png,Stimuli/BlurLevel5/BlurEditedMorph31,Stimuli/BlurLevel5/BlurEditedMorph31.png,Stimuli/BlurLevel5/NumberedMorphs/BlurEditedMorph31.png,Stimuli/BlurLevel5/OriginalBlur/BlurEditedMorph31.png,Stimuli/BlurMorphTrio/EditedMorph31.png,010079right.gif,Stimuli/normal_thumbnails/31right.gif,0,0,0,0,0,12,12,30,,,18,1,13,100,-0.434120444,2.462019383,31,144.0822946,144.5811131,144.0822946,144.5811131,86.39455782,1574368655,1574368659,3.249624252,15,21,10,10,1574368653,1574368655,,,SS,1,20,F,Undergrad,2019_Nov_21_1235,AdjustExp1,3.1.5,60.02101864,Experiment
17,Stimuli/Morph17.JPG,Stimuli/Morph17.png,Stimuli/BlurLevel5/BlurEditedMorph17,Stimuli/BlurLevel5/BlurEditedMorph17.png,Stimuli/BlurLevel5/NumberedMorphs/BlurEditedMorph17.png,Stimuli/BlurLevel5/OriginalBlur/BlurEditedMorph17.png,Stimuli/BlurMorphTrio/EditedMorph17.png,010036right.gif,Stimuli/normal_thumbnails/17right.gif,0,0,0,0,0,13,13,16,,,97,1,14,352,2.475670172,-0.347932752,17,150.1813976,150.6816724,150.1813976,150.6816724,98.63945578,1574368662,1574368664,2.900566101,105,16,1,1,1574368659,1574368661,,,SS,1,20,F,Undergrad,2019_Nov_21_1235,AdjustExp1,3.1.5,60.02101864,Experiment
10,Stimuli/Morph10.JPG,Stimuli/Morph10.png,Stimuli/BlurLevel5/BlurEditedMorph10,Stimuli/BlurLevel5/BlurEditedMorph10.png,Stimuli/BlurLevel5/NumberedMorphs/BlurEditedMorph10.png,Stimuli/BlurLevel5/OriginalBlur/BlurEditedMorph10.png,Stimuli/BlurMorphTrio/EditedMorph10.png,010016right.gif,Stimuli/normal_thumbnails/10right.gif,0,0,0,0,0,14,14,9,,,48,1,15,263,-0.304673359,-2.481365379,10,155.6810039,156.181792,155.6810039,156.181792,98.63945578,1574368667,1574368670,2.850250959,99,11,-1,-1,1574368665,1574368667,,,SS,1,20,F,Undergrad,2019_Nov_21_1235,AdjustExp1,3.1.5,60.02101864,Experiment
55,Stimuli/Morph55.JPG,Stimuli/Morph55.png,Stimuli/BlurLevel5/BlurEditedMorph55,Stimuli/BlurLevel5/BlurEditedMorph55.png,Stimuli/BlurLevel5/NumberedMorphs/BlurEditedMorph55.png,Stimuli/BlurLevel5/OriginalBlur/BlurEditedMorph55.png,Stimuli/BlurMorphTrio/EditedMorph55.png,010151right.gif,Stimuli/normal_thumbnails/55right.gif,0,0,0,0,0,15,15,54,,,12,1,16,102,-0.519779227,2.445369002,55,161.4646521,161.964621,161.4646521,161.964621,97.27891156,1574368673,1574368677,3.849765778,145,53,2,2,1574368670,1574368673,,,SS,1,20,F,Undergrad,2019_Nov_21_1235,AdjustExp1,3.1.5,60.02101864,Experiment
119,Stimuli/Morph119.JPG,Stimuli/Morph119.png,Stimuli/BlurLevel5/BlurEditedMorph119,Stimuli/BlurLevel5/BlurEditedMorph119.png,Stimuli/BlurLevel5/NumberedMorphs/BlurEditedMorph119.png,Stimuli/BlurLevel5/OriginalBlur/BlurEditedMorph119.png,Stimuli/BlurMorphTrio/EditedMorph119.png,None,None,0,0,0,0,0,16,16,118,,,2,1,17,12,2.445369002,0.519779227,119,167.8813628,168.4151082,167.8813628,168.4151082,100,1574368679,1574368682,2.533262968,59,119,0,0,1574368677,1574368679,,,SS,1,20,F,Undergrad,2019_Nov_21_1235,AdjustExp1,3.1.5,60.02101864,Experiment
94,Stimuli/Morph94.JPG,Stimuli/Morph94.png,Stimuli/BlurLevel5/BlurEditedMorph94,Stimuli/BlurLevel5/BlurEditedMorph94.png,Stimuli/BlurLevel5/NumberedMorphs/BlurEditedMorph94.png,Stimuli/BlurLevel5/OriginalBlur/BlurEditedMorph94.png,Stimuli/BlurMorphTrio/EditedMorph94.png,020286right.gif,Stimuli/normal_thumbnails/94right.gif,0,0,0,0,0,17,17,93,,,92,1,18,216,-2.022542486,-1.469463131,94,173.197832,173.6981896,173.197832,173.6981896,87.75510204,1574368685,1574368687,2.566549063,95,103,-9,-9,1574368682,1574368685,,,SS,1,20,F,Undergrad,2019_Nov_21_1235,AdjustExp1,3.1.5,60.02101864,Experiment
100,Stimuli/Morph100.JPG,Stimuli/Morph100.png,Stimuli/BlurLevel5/BlurEditedMorph100,Stimuli/BlurLevel5/BlurEditedMorph100.png,Stimuli/BlurLevel5/NumberedMorphs/BlurEditedMorph100.png,Stimuli/BlurLevel5/OriginalBlur/BlurEditedMorph100.png,Stimuli/BlurMorphTrio/EditedMorph100.png,020297right.gif,Stimuli/normal_thumbnails/100right.gif,0,0,0,0,0,18,18,99,,,15,1,19,101,-0.477022488,2.454067959,100,178.351438,178.8482502,178.351438,178.8482502,64.62585034,1574368690,1574368692,2.316910982,2,74,26,26,1574368687,1574368690,,,SS,1,20,F,Undergrad,2019_Nov_21_1235,AdjustExp1,3.1.5,60.02101864,Experiment
84,Stimuli/Morph84.JPG,Stimuli/Morph84.png,Stimuli/BlurLevel5/BlurEditedMorph84,Stimuli/BlurLevel5/BlurEditedMorph84.png,Stimuli/BlurLevel5/NumberedMorphs/BlurEditedMorph84.png,Stimuli/BlurLevel5/OriginalBlur/BlurEditedMorph84.png,Stimuli/BlurMorphTrio/EditedMorph84.png,020261right.gif,Stimuli/normal_thumbnails/84right.gif,0,0,0,0,0,19,19,83,,,99,1,20,206,-2.246985116,-1.095927867,84,183.0813832,183.5814786,183.0813832,183.5814786,98.63945578,1574368694,1574368696,1.666928053,64,83,1,1,1574368692,1574368694,,,SS,1,20,F,Undergrad,2019_Nov_21_1235,AdjustExp1,3.1.5,60.02101864,Experiment
61,Stimuli/Morph61.JPG,Stimuli/Morph61.png,Stimuli/BlurLevel5/BlurEditedMorph61,Stimuli/BlurLevel5/BlurEditedMorph61.png,Stimuli/BlurLevel5/NumberedMorphs/BlurEditedMorph61.png,Stimuli/BlurLevel5/OriginalBlur/BlurEditedMorph61.png,Stimuli/BlurMorphTrio/EditedMorph61.png,020201right.gif,Stimuli/normal_thumbnails/61right.gif,0,0,0,0,0,20,20,60,,,38,1,21,171,-2.469220851,0.391086163,61,187.0812119,187.5809519,187.0812119,187.5809519,95.91836735,1574368698,1574368702,3.800035715,111,58,3,3,1574368696,1574368698,,,SS,1,20,F,Undergrad,2019_Nov_21_1235,AdjustExp1,3.1.5,60.02101864,Experiment
44,Stimuli/Morph44.JPG,Stimuli/Morph44.png,Stimuli/BlurLevel5/BlurEditedMorph44,Stimuli/BlurLevel5/BlurEditedMorph44.png,Stimuli/BlurLevel5/NumberedMorphs/BlurEditedMorph44.png,Stimuli/BlurLevel5/OriginalBlur/BlurEditedMorph44.png,Stimuli/BlurMorphTrio/EditedMorph44.png,010126right.gif,Stimuli/normal_thumbnails/44right.gif,0,0,0,0,0,21,21,43,,,80,1,22,6,2.486304738,0.261321158,44,193.1145585,193.6146818,193.1145585,193.6146818,65.98639456,1574368704,1574368706,1.233630896,69,69,-25,-25,1574368702,1574368704,,,SS,1,20,F,Undergrad,2019_Nov_21_1235,AdjustExp1,3.1.5,60.02101864,Experiment
42,Stimuli/Morph42.JPG,Stimuli/Morph42.png,Stimuli/BlurLevel5/BlurEditedMorph42,Stimuli/BlurLevel5/BlurEditedMorph42.png,Stimuli/BlurLevel5/NumberedMorphs/BlurEditedMorph42.png,Stimuli/BlurLevel5/OriginalBlur/BlurEditedMorph42.png,Stimuli/BlurMorphTrio/EditedMorph42.png,010121right.gif,Stimuli/normal_thumbnails/42right.gif,0,0,0,0,0,22,22,41,,,51,1,23,278,0.347932752,-2.475670172,42,197.0646614,197.5645352,197.0646614,197.5645352,80.95238095,1574368708,1574368710,2.083956003,32,56,-14,-14,1574368706,1574368708,,,SS,1,20,F,Undergrad,2019_Nov_21_1235,AdjustExp1,3.1.5,60.02101864,Experiment
48,Stimuli/Morph48.JPG,Stimuli/Morph48.png,Stimuli/BlurLevel5/BlurEditedMorph48,Stimuli/BlurLevel5/BlurEditedMorph48.png,Stimuli/BlurLevel5/NumberedMorphs/BlurEditedMorph48.png,Stimuli/BlurLevel5/OriginalBlur/BlurEditedMorph48.png,Stimuli/BlurMorphTrio/EditedMorph48.png,010131right.gif,Stimuli/normal_thumbnails/48right.gif,0,0,0,0,0,23,23,47,,,8,1,24,12,2.445369002,0.519779227,48,201.6302158,202.1309559,201.6302158,202.1309559,93.19727891,1574368713,1574368715,1.884115934,31,53,-5,-5,1574368711,1574368713,,,SS,1,20,F,Undergrad,2019_Nov_21_1235,AdjustExp1,3.1.5,60.02101864,Experiment
4,Stimuli/Morph4.JPG,Stimuli/Morph4.png,Stimuli/BlurLevel5/BlurEditedMorph4,Stimuli/BlurLevel5/BlurEditedMorph4.png,Stimuli/BlurLevel5/NumberedMorphs/BlurEditedMorph4.png,Stimuli/BlurLevel5/OriginalBlur/BlurEditedMorph4.png,Stimuli/BlurMorphTrio/EditedMorph4.png,010010right.gif,Stimuli/normal_thumbnails/4right.gif,0,0,0,0,0,24,24,3,,,78,1,25,312,1.672826516,-1.857862064,4,205.7361062,206.2476474,205.7361062,206.2476474,80.95238095,1574368717,1574368720,2.949832201,71,18,-14,-14,1574368715,1574368717,,,SS,1,20,F,Undergrad,2019_Nov_21_1235,AdjustExp1,3.1.5,60.02101864,Experiment
57,Stimuli/Morph57.JPG,Stimuli/Morph57.png,Stimuli/BlurLevel5/BlurEditedMorph57,Stimuli/BlurLevel5/BlurEditedMorph57.png,Stimuli/BlurLevel5/NumberedMorphs/BlurEditedMorph57.png,Stimuli/BlurLevel5/OriginalBlur/BlurEditedMorph57.png,Stimuli/BlurMorphTrio/EditedMorph57.png,010158right.gif,Stimuli/normal_thumbnails/57right.gif,0,0,0,0,0,25,25,56,,,84,1,26,135,-1.767766953,1.767766953,57,211.0523842,211.5474704,211.0523842,211.5474704,95.91836735,1574368722,1574368725,2.916588068,104,54,3,3,1574368720,1574368722,,,SS,1,20,F,Undergrad,2019_Nov_21_1235,AdjustExp1,3.1.5,60.02101864,Experiment
63,Stimuli/Morph63.JPG,Stimuli/Morph63.png,Stimuli/BlurLevel5/BlurEditedMorph63,Stimuli/BlurLevel5/BlurEditedMorph63.png,Stimuli/BlurLevel5/NumberedMorphs/BlurEditedMorph63.png,Stimuli/BlurLevel5/OriginalBlur/BlurEditedMorph63.png,Stimuli/BlurMorphTrio/EditedMorph63.png,020206right.gif,Stimuli/normal_thumbnails/63right.gif,0,0,0,0,0,26,26,62,,,33,1,27,158,-2.317959636,0.936516484,63,216.580404,217.0808608,216.580404,217.0808608,75.51020408,1574368728,1574368729,1.13351512,37,45,18,18,1574368726,1574368728,,,SS,1,20,F,Undergrad,2019_Nov_21_1235,AdjustExp1,3.1.5,60.02101864,Experiment
27,Stimuli/Morph27.JPG,Stimuli/Morph27.png,Stimuli/BlurLevel5/BlurEditedMorph27,Stimuli/BlurLevel5/BlurEditedMorph27.png,Stimuli/BlurLevel5/NumberedMorphs/BlurEditedMorph27.png,Stimuli/BlurLevel5/OriginalBlur/BlurEditedMorph27.png,Stimuli/BlurMorphTrio/EditedMorph27.png,010072right.gif,Stimuli/normal_thumbnails/27right.gif,0,0,0,0,0,27,27,26,,,3,1,28,204,-2.283863644,-1.016841608,27,220.463112,220.9637226,220.463112,220.9637226,98.63945578,1574368732,1574368733,0.73337698,26,26,1,1,1574368729,1574368732,,,SS,1,20,F,Undergrad,2019_Nov_21_1235,AdjustExp1,3.1.5,60.02101864,Experiment
128,Stimuli/Morph128.JPG,Stimuli/Morph128.png,Stimuli/BlurLevel5/BlurEditedMorph128,Stimuli/BlurLevel5/BlurEditedMorph128.png,Stimuli/BlurLevel5/NumberedMorphs/BlurEditedMorph128.png,Stimuli/BlurLevel5/OriginalBlur/BlurEditedMorph128.png,Stimuli/BlurMorphTrio/EditedMorph128.png,None,None,0,0,0,0,0,28,28,127,,,90,1,29,222,-1.857862064,-1.672826516,128,223.5308472,224.030684,223.5308472,224.030684,79.59183673,1574368735,1574368737,2.001390219,75,143,-15,-15,1574368733,1574368735,,,SS,1,20,F,Undergrad,2019_Nov_21_1235,AdjustExp1,3.1.5,60.02101864,Experiment
129,Stimuli/Morph129.JPG,Stimuli/Morph129.png,Stimuli/BlurLevel5/BlurEditedMorph129,Stimuli/BlurLevel5/BlurEditedMorph129.png,Stimuli/BlurLevel5/NumberedMorphs/BlurEditedMorph129.png,Stimuli/BlurLevel5/OriginalBlur/BlurEditedMorph129.png,Stimuli/BlurMorphTrio/EditedMorph129.png,None,None,0,0,0,0,0,29,29,128,,,64,1,30,188,-2.475670172,-0.347932752,129,228.06462,228.5638379,228.06462,228.5638379,64.62585034,1574368739,1574368743,3.399992943,96,8,121,-26,1574368737,1574368739,,,SS,1,20,F,Undergrad,2019_Nov_21_1235,AdjustExp1,3.1.5,60.02101864,Experiment
54,Stimuli/Morph54.JPG,Stimuli/Morph54.png,Stimuli/BlurLevel5/BlurEditedMorph54,Stimuli/BlurLevel5/BlurEditedMorph54.png,Stimuli/BlurLevel5/NumberedMorphs/BlurEditedMorph54.png,Stimuli/BlurLevel5/OriginalBlur/BlurEditedMorph54.png,Stimuli/BlurMorphTrio/EditedMorph54.png,010150right.gif,Stimuli/normal_thumbnails/54right.gif,0,0,0,0,0,30,30,53,,,37,1,31,159,-2.333951066,0.895919874,54,234.179447,234.6801206,234.179447,234.6801206,85.03401361,1574368746,1574368748,2.667079926,92,43,11,11,1574368743,1574368745,,,SS,1,20,F,Undergrad,2019_Nov_21_1235,AdjustExp1,3.1.5,60.02101864,Experiment
98,Stimuli/Morph98.JPG,Stimuli/Morph98.png,Stimuli/BlurLevel5/BlurEditedMorph98,Stimuli/BlurLevel5/BlurEditedMorph98.png,Stimuli/BlurLevel5/NumberedMorphs/BlurEditedMorph98.png,Stimuli/BlurLevel5/OriginalBlur/BlurEditedMorph98.png,Stimuli/BlurMorphTrio/EditedMorph98.png,020298right.gif,Stimuli/normal_thumbnails/98right.gif,0,0,0,0,0,31,31,97,,,93,1,32,225,-1.767766953,-1.767766953,98,240.2983913,240.7972673,240.2983913,240.7972673,98.63945578,1574368752,1574368754,1.983512878,24,97,1,1,1574368748,1574368752,,,SS,1,20,F,Undergrad,2019_Nov_21_1235,AdjustExp1,3.1.5,60.02101864,Experiment
41,Stimuli/Morph41.JPG,Stimuli/Morph41.png,Stimuli/BlurLevel5/BlurEditedMorph41,Stimuli/BlurLevel5/BlurEditedMorph41.png,Stimuli/BlurLevel5/NumberedMorphs/BlurEditedMorph41.png,Stimuli/BlurLevel5/OriginalBlur/BlurEditedMorph41.png,Stimuli/BlurMorphTrio/EditedMorph41.png,010112right.gif,Stimuli/normal_thumbnails/41right.gif,0,0,0,0,0,32,32,40,,,22,1,33,173,-2.481365379,0.304673359,41,244.5966798,245.0968408,244.5966798,245.0968408,93.19727891,1574368756,1574368758,2.350071907,137,46,-5,-5,1574368754,1574368756,,,SS,1,20,F,Undergrad,2019_Nov_21_1235,AdjustExp1,3.1.5,60.02101864,Experiment
32,Stimuli/Morph32.JPG,Stimuli/Morph32.png,Stimuli/BlurLevel5/BlurEditedMorph32,Stimuli/BlurLevel5/BlurEditedMorph32.png,Stimuli/BlurLevel5/NumberedMorphs/BlurEditedMorph32.png,Stimuli/BlurLevel5/OriginalBlur/BlurEditedMorph32.png,Stimuli/BlurMorphTrio/EditedMorph32.png,010080right.gif,Stimuli/normal_thumbnails/32right.gif,0,0,0,0,0,33,33,31,,,74,1,34,231,-1.573300978,-1.942864904,32,249.2971002,249.7970507,249.2971002,249.7970507,95.91836735,1574368761,1574368765,4.833462954,56,29,3,3,1574368759,1574368761,,,SS,1,20,F,Undergrad,2019_Nov_21_1235,AdjustExp1,3.1.5,60.02101864,Experiment
6,Stimuli/Morph6.JPG,Stimuli/Morph6.png,Stimuli/BlurLevel5/BlurEditedMorph6,Stimuli/BlurLevel5/BlurEditedMorph6.png,Stimuli/BlurLevel5/NumberedMorphs/BlurEditedMorph6.png,Stimuli/BlurLevel5/OriginalBlur/BlurEditedMorph6.png,Stimuli/BlurMorphTrio/EditedMorph6.png,010012right.gif,Stimuli/normal_thumbnails/6right.gif,0,0,0,0,0,34,34,5,,,59,1,35,155,-2.265769468,1.056545654,6,256.2674469,256.7633617,256.2674469,256.7633617,65.98639456,1574368768,1574368768,0.883860111,128,128,-122,25,1574368766,1574368768,,,SS,1,20,F,Undergrad,2019_Nov_21_1235,AdjustExp1,3.1.5,60.02101864,Experiment
58,Stimuli/Morph58.JPG,Stimuli/Morph58.png,Stimuli/BlurLevel5/BlurEditedMorph58,Stimuli/BlurLevel5/BlurEditedMorph58.png,Stimuli/BlurLevel5/NumberedMorphs/BlurEditedMorph58.png,Stimuli/BlurLevel5/OriginalBlur/BlurEditedMorph58.png,Stimuli/BlurMorphTrio/EditedMorph58.png,010159right.gif,Stimuli/normal_thumbnails/58right.gif,0,0,0,0,0,35,35,57,,,29,1,36,181,-2.499619238,-0.043631016,58,260.1629584,260.6634342,260.1629584,260.6634342,97.27891156,1574368771,1574368774,2.817015171,130,56,2,2,1574368769,1574368771,,,SS,1,20,F,Undergrad,2019_Nov_21_1235,AdjustExp1,3.1.5,60.02101864,Experiment
108,Stimuli/Morph108.JPG,Stimuli/Morph108.png,Stimuli/BlurLevel5/BlurEditedMorph108,Stimuli/BlurLevel5/BlurEditedMorph108.png,Stimuli/BlurLevel5/NumberedMorphs/BlurEditedMorph108.png,Stimuli/BlurLevel5/OriginalBlur/BlurEditedMorph108.png,Stimuli/BlurMorphTrio/EditedMorph108.png,None,None,0,0,0,0,0,36,36,107,,,69,1,37,341,2.363796439,-0.813920386,108,265.7495815,266.2465655,265.7495815,266.2465655,53.7414966,1574368777,1574368779,1.883887768,28,74,34,34,1574368775,1574368777,,,SS,1,20,F,Undergrad,2019_Nov_21_1235,AdjustExp1,3.1.5,60.02101864,Experiment
89,Stimuli/Morph89.JPG,Stimuli/Morph89.png,Stimuli/BlurLevel5/BlurEditedMorph89,Stimuli/BlurLevel5/BlurEditedMorph89.png,Stimuli/BlurLevel5/NumberedMorphs/BlurEditedMorph89.png,Stimuli/BlurLevel5/OriginalBlur/BlurEditedMorph89.png,Stimuli/BlurMorphTrio/EditedMorph89.png,020273right.gif,Stimuli/normal_thumbnails/89right.gif,0,0,0,0,0,37,37,88,,,95,1,38,314,1.736645926,-1.798349501,89,270.6131358,271.1132809,270.6131358,271.1132809,93.19727891,1574368782,1574368784,1.833527803,20,84,5,5,1574368779,1574368782,,,SS,1,20,F,Undergrad,2019_Nov_21_1235,AdjustExp1,3.1.5,60.02101864,Experiment
62,Stimuli/Morph62.JPG,Stimuli/Morph62.png,Stimuli/BlurLevel5/BlurEditedMorph62,Stimuli/BlurLevel5/BlurEditedMorph62.png,Stimuli/BlurLevel5/NumberedMorphs/BlurEditedMorph62.png,Stimuli/BlurLevel5/OriginalBlur/BlurEditedMorph62.png,Stimuli/BlurMorphTrio/EditedMorph62.png,020205right.gif,Stimuli/normal_thumbnails/62right.gif,0,0,0,0,0,38,38,61,,,15,1,39,333,2.22751631,-1.134976249,62,275.1191281,275.6323537,275.1191281,275.6323537,85.03401361,1574368786,1574368789,2.399877071,113,73,-11,-11,1574368784,1574368786,,,SS,1,20,F,Undergrad,2019_Nov_21_1235,AdjustExp1,3.1.5,60.02101864,Experiment
74,Stimuli/Morph74.JPG,Stimuli/Morph74.png,Stimuli/BlurLevel5/BlurEditedMorph74,Stimuli/BlurLevel5/BlurEditedMorph74.png,Stimuli/BlurLevel5/NumberedMorphs/BlurEditedMorph74.png,Stimuli/BlurLevel5/OriginalBlur/BlurEditedMorph74.png,Stimuli/BlurMorphTrio/EditedMorph74.png,020232right.gif,Stimuli/normal_thumbnails/74right.gif,0,0,0,0,0,39,39,73,,,23,1,40,112,-0.936516484,2.317959636,74,280.1792299,280.6829929,280.1792299,280.6829929,85.03401361,1574368792,1574368795,3.050352097,106,85,-11,-11,1574368789,1574368791,,,SS,1,20,F,Undergrad,2019_Nov_21_1235,AdjustExp1,3.1.5,60.02101864,Experiment
142,Stimuli/Morph142.JPG,Stimuli/Morph142.png,Stimuli/BlurLevel5/BlurEditedMorph142,Stimuli/BlurLevel5/BlurEditedMorph142.png,Stimuli/BlurLevel5/NumberedMorphs/BlurEditedMorph142.png,Stimuli/BlurLevel5/OriginalBlur/BlurEditedMorph142.png,Stimuli/BlurMorphTrio/EditedMorph142.png,None,None,0,0,0,0,0,40,40,141,,,54,1,41,152,-2.207368982,1.173678907,142,285.6463957,286.1462807,285.6463957,286.1462807,90.47619048,1574368797,1574368799,2.416977882,61,2,140,-7,1574368795,1574368797,,,SS,1,20,F,Undergrad,2019_Nov_21_1235,AdjustExp1,3.1.5,60.02101864,Experiment
47,Stimuli/Morph47.JPG,Stimuli/Morph47.png,Stimuli/BlurLevel5/BlurEditedMorph47,Stimuli/BlurLevel5/BlurEditedMorph47.png,Stimuli/BlurLevel5/NumberedMorphs/BlurEditedMorph47.png,Stimuli/BlurLevel5/OriginalBlur/BlurEditedMorph47.png,Stimuli/BlurMorphTrio/EditedMorph47.png,010130right.gif,Stimuli/normal_thumbnails/47right.gif,0,0,0,0,0,41,41,46,,,4,1,42,267,-0.130839891,-2.496573837,47,290.946288,291.4458535,290.946288,291.4458535,94.55782313,1574368802,1574368804,1.71732235,87,51,-4,-4,1574368800,1574368802,,,SS,1,20,F,Undergrad,2019_Nov_21_1235,AdjustExp1,3.1.5,60.02101864,Experiment
109,Stimuli/Morph109.JPG,Stimuli/Morph109.png,Stimuli/BlurLevel5/BlurEditedMorph109,Stimuli/BlurLevel5/BlurEditedMorph109.png,Stimuli/BlurLevel5/NumberedMorphs/BlurEditedMorph109.png,Stimuli/BlurLevel5/OriginalBlur/BlurEditedMorph109.png,Stimuli/BlurMorphTrio/EditedMorph109.png,None,None,0,0,0,0,0,42,42,108,,,87,1,43,315,1.767766953,-1.767766953,109,295.2957999,295.7962294,295.2957999,295.7962294,44.21768707,1574368807,1574368811,4.533468008,71,3,106,-41,1574368804,1574368807,,,SS,1,20,F,Undergrad,2019_Nov_21_1235,AdjustExp1,3.1.5,60.02101864,Experiment
146,Stimuli/Morph146.JPG,Stimuli/Morph146.png,Stimuli/BlurLevel5/BlurEditedMorph146,Stimuli/BlurLevel5/BlurEditedMorph146.png,Stimuli/BlurLevel5/NumberedMorphs/BlurEditedMorph146.png,Stimuli/BlurLevel5/OriginalBlur/BlurEditedMorph146.png,Stimuli/BlurMorphTrio/EditedMorph146.png,None,None,0,0,0,0,0,43,43,145,,,62,1,44,319,1.886773951,-1.640147572,146,302.1955606,302.6959198,302.1955606,302.6959198,94.55782313,1574368814,1574368818,4.283298254,82,3,143,-4,1574368811,1574368814,,,SS,1,20,F,Undergrad,2019_Nov_21_1235,AdjustExp1,3.1.5,60.02101864,Experiment
96,Stimuli/Morph96.JPG,Stimuli/Morph96.png,Stimuli/BlurLevel5/BlurEditedMorph96,Stimuli/BlurLevel5/BlurEditedMorph96.png,Stimuli/BlurLevel5/NumberedMorphs/BlurEditedMorph96.png,Stimuli/BlurLevel5/OriginalBlur/BlurEditedMorph96.png,Stimuli/BlurMorphTrio/EditedMorph96.png,020292right.gif,Stimuli/normal_thumbnails/96right.gif,0,0,0,0,0,44,44,95,,,55,1,45,187,-2.481365379,-0.304673359,96,308.7346891,309.2290551,308.7346891,309.2290551,95.91836735,1574368820,1574368821,0.750377893,93,93,3,3,1574368818,1574368820,,,SS,1,20,F,Undergrad,2019_Nov_21_1235,AdjustExp1,3.1.5,60.02101864,Experiment
106,Stimuli/Morph106.JPG,Stimuli/Morph106.png,Stimuli/BlurLevel5/BlurEditedMorph106,Stimuli/BlurLevel5/BlurEditedMorph106.png,Stimuli/BlurLevel5/NumberedMorphs/BlurEditedMorph106.png,Stimuli/BlurLevel5/OriginalBlur/BlurEditedMorph106.png,Stimuli/BlurMorphTrio/EditedMorph106.png,None,None,0,0,0,0,0,45,45,105,,,28,1,46,55,1.433941091,2.047880111,106,311.8792147,312.3796109,311.8792147,312.3796109,76.8707483,1574368823,1574368827,3.400078058,133,89,17,17,1574368821,1574368823,,,SS,1,20,F,Undergrad,2019_Nov_21_1235,AdjustExp1,3.1.5,60.02101864,Experiment
34,Stimuli/Morph34.JPG,Stimuli/Morph34.png,Stimuli/BlurLevel5/BlurEditedMorph34,Stimuli/BlurLevel5/BlurEditedMorph34.png,Stimuli/BlurLevel5/NumberedMorphs/BlurEditedMorph34.png,Stimuli/BlurLevel5/OriginalBlur/BlurEditedMorph34.png,Stimuli/BlurMorphTrio/EditedMorph34.png,010090right.gif,Stimuli/normal_thumbnails/34right.gif,0,0,0,0,0,46,46,33,,,3,1,47,233,-1.504537558,-1.996588775,34,317.8470986,318.3458314,317.8470986,318.3458314,80.95238095,1574368829,1574368832,2.783530951,110,20,14,14,1574368827,1574368829,,,SS,1,20,F,Undergrad,2019_Nov_21_1235,AdjustExp1,3.1.5,60.02101864,Experiment
81,Stimuli/Morph81.JPG,Stimuli/Morph81.png,Stimuli/BlurLevel5/BlurEditedMorph81,Stimuli/BlurLevel5/BlurEditedMorph81.png,Stimuli/BlurLevel5/NumberedMorphs/BlurEditedMorph81.png,Stimuli/BlurLevel5/OriginalBlur/BlurEditedMorph81.png,Stimuli/BlurMorphTrio/EditedMorph81.png,020245right.gif,Stimuli/normal_thumbnails/81right.gif,0,0,0,0,0,47,47,80,,,17,1,48,164,-2.40315424,0.68909339,81,323.2135659,323.7126646,323.2135659,323.7126646,97.27891156,1574368835,1574368836,1.900341988,45,83,-2,-2,1574368832,1574368835,,,SS,1,20,F,Undergrad,2019_Nov_21_1235,AdjustExp1,3.1.5,60.02101864,Experiment
46,Stimuli/Morph46.JPG,Stimuli/Morph46.png,Stimuli/BlurLevel5/BlurEditedMorph46,Stimuli/BlurLevel5/BlurEditedMorph46.png,Stimuli/BlurLevel5/NumberedMorphs/BlurEditedMorph46.png,Stimuli/BlurLevel5/OriginalBlur/BlurEditedMorph46.png,Stimuli/BlurMorphTrio/EditedMorph46.png,010128right.gif,Stimuli/normal_thumbnails/46right.gif,0,0,0,0,0,48,48,45,,,88,1,49,141,-1.942864904,1.573300978,46,327.8958145,328.3962336,327.8958145,328.3962336,89.11564626,1574368839,1574368841,1.783894062,146,54,-8,-8,1574368837,1574368839,,,SS,1,20,F,Undergrad,2019_Nov_21_1235,AdjustExp1,3.1.5,60.02101864,Experiment
13,Stimuli/Morph13.JPG,Stimuli/Morph13.png,Stimuli/BlurLevel5/BlurEditedMorph13,Stimuli/BlurLevel5/BlurEditedMorph13.png,Stimuli/BlurLevel5/NumberedMorphs/BlurEditedMorph13.png,Stimuli/BlurLevel5/OriginalBlur/BlurEditedMorph13.png,Stimuli/BlurMorphTrio/EditedMorph13.png,010027right.gif,Stimuli/normal_thumbnails/13right.gif,0,0,0,0,0,49,49,12,,,78,1,50,4,2.493910126,0.174391184,13,331.9965605,332.495929,331.9965605,332.495929,85.03401361,1574368843,1574368845,1.983309031,64,2,11,11,1574368841,1574368843,,,SS,1,20,F,Undergrad,2019_Nov_21_1235,AdjustExp1,3.1.5,60.02101864,Experiment
67,Stimuli/Morph67.JPG,Stimuli/Morph67.png,Stimuli/BlurLevel5/BlurEditedMorph67,Stimuli/BlurLevel5/BlurEditedMorph67.png,Stimuli/BlurLevel5/NumberedMorphs/BlurEditedMorph67.png,Stimuli/BlurLevel5/OriginalBlur/BlurEditedMorph67.png,Stimuli/BlurMorphTrio/EditedMorph67.png,020217right.gif,Stimuli/normal_thumbnails/67right.gif,0,0,0,0,0,50,50,66,,,39,1,51,265,-0.217889357,-2.490486745,67,336.361985,336.8624202,336.361985,336.8624202,86.39455782,1574368848,1574368850,2.733438253,122,77,-10,-10,1574368846,1574368848,,,SS,1,20,F,Undergrad,2019_Nov_21_1235,AdjustExp1,3.1.5,60.02101864,Experiment
126,Stimuli/Morph126.JPG,Stimuli/Morph126.png,Stimuli/BlurLevel5/BlurEditedMorph126,Stimuli/BlurLevel5/BlurEditedMorph126.png,Stimuli/BlurLevel5/NumberedMorphs/BlurEditedMorph126.png,Stimuli/BlurLevel5/OriginalBlur/BlurEditedMorph126.png,Stimuli/BlurMorphTrio/EditedMorph126.png,None,None,0,0,0,0,0,51,51,125,,,59,1,52,149,-2.142918252,1.287595187,126,341.4008765,341.8956326,341.4008765,341.8956326,94.55782313,1574368853,1574368856,3.49982214,112,130,-4,-4,1574368851,1574368853,,,SS,1,20,F,Undergrad,2019_Nov_21_1235,AdjustExp1,3.1.5,60.02101864,Experiment
36,Stimuli/Morph36.JPG,Stimuli/Morph36.png,Stimuli/BlurLevel5/BlurEditedMorph36,Stimuli/BlurLevel5/BlurEditedMorph36.png,Stimuli/BlurLevel5/NumberedMorphs/BlurEditedMorph36.png,Stimuli/BlurLevel5/OriginalBlur/BlurEditedMorph36.png,Stimuli/BlurMorphTrio/EditedMorph36.png,010095right.gif,Stimuli/normal_thumbnails/36right.gif,0,0,0,0,0,52,52,35,,,100,1,53,162,-2.377641291,0.772542486,36,347.5291038,348.0287002,347.5291038,348.0287002,95.91836735,1574368859,1574368861,1.967375994,122,33,3,3,1574368856,1574368859,,,SS,1,20,F,Undergrad,2019_Nov_21_1235,AdjustExp1,3.1.5,60.02101864,Experiment
49,Stimuli/Morph49.JPG,Stimuli/Morph49.png,Stimuli/BlurLevel5/BlurEditedMorph49,Stimuli/BlurLevel5/BlurEditedMorph49.png,Stimuli/BlurLevel5/NumberedMorphs/BlurEditedMorph49.png,Stimuli/BlurLevel5/OriginalBlur/BlurEditedMorph49.png,Stimuli/BlurMorphTrio/EditedMorph49.png,010135right.gif,Stimuli/normal_thumbnails/49right.gif,0,0,0,0,0,53,53,48,,,93,1,54,192,-2.445369002,-0.519779227,49,352.7950063,353.295182,352.7950063,353.295182,72.78911565,1574368864,1574368868,3.450438261,63,69,-20,-20,1574368861,1574368864,,,SS,1,20,F,Undergrad,2019_Nov_21_1235,AdjustExp1,3.1.5,60.02101864,Experiment
64,Stimuli/Morph64.JPG,Stimuli/Morph64.png,Stimuli/BlurLevel5/BlurEditedMorph64,Stimuli/BlurLevel5/BlurEditedMorph64.png,Stimuli/BlurLevel5/NumberedMorphs/BlurEditedMorph64.png,Stimuli/BlurLevel5/OriginalBlur/BlurEditedMorph64.png,Stimuli/BlurMorphTrio/EditedMorph64.png,020208right.gif,Stimuli/normal_thumbnails/64right.gif,0,0,0,0,0,54,54,63,,,11,1,55,185,-2.490486745,-0.217889357,64,359.3015723,359.7955591,359.3015723,359.7955591,98.63945578,1574368871,1574368874,2.683668852,92,65,-1,-1,1574368868,1574368871,,,SS,1,20,F,Undergrad,2019_Nov_21_1235,AdjustExp1,3.1.5,60.02101864,Experiment
91,Stimuli/Morph91.JPG,Stimuli/Morph91.png,Stimuli/BlurLevel5/BlurEditedMorph91,Stimuli/BlurLevel5/BlurEditedMorph91.png,Stimuli/BlurLevel5/NumberedMorphs/BlurEditedMorph91.png,Stimuli/BlurLevel5/OriginalBlur/BlurEditedMorph91.png,Stimuli/BlurMorphTrio/EditedMorph91.png,020276right.gif,Stimuli/normal_thumbnails/91right.gif,0,0,0,0,0,55,55,90,,,28,1,56,210,-2.165063509,-1.25,91,364.6616254,365.1609462,364.6616254,365.1609462,86.39455782,1574368876,1574368878,1.816760063,14,101,-10,-10,1574368874,1574368876,,,SS,1,20,F,Undergrad,2019_Nov_21_1235,AdjustExp1,3.1.5,60.02101864,Experiment
116,Stimuli/Morph116.JPG,Stimuli/Morph116.png,Stimuli/BlurLevel5/BlurEditedMorph116,Stimuli/BlurLevel5/BlurEditedMorph116.png,Stimuli/BlurLevel5/NumberedMorphs/BlurEditedMorph116.png,Stimuli/BlurLevel5/OriginalBlur/BlurEditedMorph116.png,Stimuli/BlurMorphTrio/EditedMorph116.png,None,None,0,0,0,0,0,56,56,115,,,24,1,57,46,1.736645926,1.798349501,116,368.8118631,369.3121693,368.8118631,369.3121693,48.29931973,1574368880,1574368882,2.166675329,72,78,38,38,1574368878,1574368880,,,SS,1,20,F,Undergrad,2019_Nov_21_1235,AdjustExp1,3.1.5,60.02101864,Experiment
20,Stimuli/Morph20.JPG,Stimuli/Morph20.png,Stimuli/BlurLevel5/BlurEditedMorph20,Stimuli/BlurLevel5/BlurEditedMorph20.png,Stimuli/BlurLevel5/NumberedMorphs/BlurEditedMorph20.png,Stimuli/BlurLevel5/OriginalBlur/BlurEditedMorph20.png,Stimuli/BlurMorphTrio/EditedMorph20.png,010046right.gif,Stimuli/normal_thumbnails/20right.gif,0,0,0,0,0,57,57,19,,,76,1,58,107,-0.730929262,2.39076189,20,373.0944384,373.5955379,373.0944384,373.5955379,95.91836735,1574368884,1574368886,1.98408699,95,17,3,3,1574368883,1574368884,,,SS,1,20,F,Undergrad,2019_Nov_21_1235,AdjustExp1,3.1.5,60.02101864,Experiment
123,Stimuli/Morph123.JPG,Stimuli/Morph123.png,Stimuli/BlurLevel5/BlurEditedMorph123,Stimuli/BlurLevel5/BlurEditedMorph123.png,Stimuli/BlurLevel5/NumberedMorphs/BlurEditedMorph123.png,Stimuli/BlurLevel5/OriginalBlur/BlurEditedMorph123.png,Stimuli/BlurMorphTrio/EditedMorph123.png,None,None,0,0,0,0,0,58,58,122,,,42,1,59,331,2.186549268,-1.212024051,123,377.6953039,378.1946124,377.6953039,378.1946124,46.93877551,1574368889,1574368891,1.866723061,138,15,108,-39,1574368887,1574368889,,,SS,1,20,F,Undergrad,2019_Nov_21_1235,AdjustExp1,3.1.5,60.02101864,Experiment
50,Stimuli/Morph50.JPG,Stimuli/Morph50.png,Stimuli/BlurLevel5/BlurEditedMorph50,Stimuli/BlurLevel5/BlurEditedMorph50.png,Stimuli/BlurLevel5/NumberedMorphs/BlurEditedMorph50.png,Stimuli/BlurLevel5/OriginalBlur/BlurEditedMorph50.png,Stimuli/BlurMorphTrio/EditedMorph50.png,010142right.gif,Stimuli/normal_thumbnails/50right.gif,0,0,0,0,0,59,59,49,,,63,1,60,162,-2.377641291,0.772542486,50,382.1619744,382.6619524,382.1619744,382.6619524,87.75510204,1574368893,1574368895,1.316074848,147,41,9,9,1574368891,1574368893,,,SS,1,20,F,Undergrad,2019_Nov_21_1235,AdjustExp1,3.1.5,60.02101864,Experiment
12,Stimuli/Morph12.JPG,Stimuli/Morph12.png,Stimuli/BlurLevel5/BlurEditedMorph12,Stimuli/BlurLevel5/BlurEditedMorph12.png,Stimuli/BlurLevel5/NumberedMorphs/BlurEditedMorph12.png,Stimuli/BlurLevel5/OriginalBlur/BlurEditedMorph12.png,Stimuli/BlurMorphTrio/EditedMorph12.png,010026right.gif,Stimuli/normal_thumbnails/12right.gif,0,0,0,0,0,60,60,11,,,79,1,61,110,-0.855050358,2.349231552,12,386.0125119,386.5117812,386.0125119,386.5117812,78.23129252,1574368897,1574368900,3.133733273,135,143,-131,16,1574368895,1574368897,,,SS,1,20,F,Undergrad,2019_Nov_21_1235,AdjustExp1,3.1.5,60.02101864,Experiment
144,Stimuli/Morph144.JPG,Stimuli/Morph144.png,Stimuli/BlurLevel5/BlurEditedMorph144,Stimuli/BlurLevel5/BlurEditedMorph144.png,Stimuli/BlurLevel5/NumberedMorphs/BlurEditedMorph144.png,Stimuli/BlurLevel5/OriginalBlur/BlurEditedMorph144.png,Stimuli/BlurMorphTrio/EditedMorph144.png,None,None,0,0,0,0,0,61,61,143,,,5,1,62,152,-2.207368982,1.173678907,144,391.4283124,391.9280473,391.4283124,391.9280473,100,1574368903,1574368903,0.700542927,144,144,0,0,1574368901,1574368903,,,SS,1,20,F,Undergrad,2019_Nov_21_1235,AdjustExp1,3.1.5,60.02101864,Experiment
121,Stimuli/Morph121.JPG,Stimuli/Morph121.png,Stimuli/BlurLevel5/BlurEditedMorph121,Stimuli/BlurLevel5/BlurEditedMorph121.png,Stimuli/BlurLevel5/NumberedMorphs/BlurEditedMorph121.png,Stimuli/BlurLevel5/OriginalBlur/BlurEditedMorph121.png,Stimuli/BlurMorphTrio/EditedMorph121.png,None,None,0,0,0,0,0,62,62,120,,,79,1,63,34,2.072593931,1.397982259,121,394.3489634,394.844849,394.3489634,394.844849,68.70748299,1574368906,1574368907,1.733658791,114,144,-23,-23,1574368904,1574368906,,,SS,1,20,F,Undergrad,2019_Nov_21_1235,AdjustExp1,3.1.5,60.02101864,Experiment
95,Stimuli/Morph95.JPG,Stimuli/Morph95.png,Stimuli/BlurLevel5/BlurEditedMorph95,Stimuli/BlurLevel5/BlurEditedMorph95.png,Stimuli/BlurLevel5/NumberedMorphs/BlurEditedMorph95.png,Stimuli/BlurLevel5/OriginalBlur/BlurEditedMorph95.png,Stimuli/BlurMorphTrio/EditedMorph95.png,020287right.gif,Stimuli/normal_thumbnails/95right.gif,0,0,0,0,0,63,63,94,,,45,1,64,82,0.347932752,2.475670172,95,398.3775117,398.8779669,398.3775117,398.8779669,94.55782313,1574368910,1574368912,2.083699226,88,99,-4,-4,1574368908,1574368910,,,SS,1,20,F,Undergrad,2019_Nov_21_1235,AdjustExp1,3.1.5,60.02101864,Experiment
105,Stimuli/Morph105.JPG,Stimuli/Morph105.png,Stimuli/BlurLevel5/BlurEditedMorph105,Stimuli/BlurLevel5/BlurEditedMorph105.png,Stimuli/BlurLevel5/NumberedMorphs/BlurEditedMorph105.png,Stimuli/BlurLevel5/OriginalBlur/BlurEditedMorph105.png,Stimuli/BlurMorphTrio/EditedMorph105.png,None,None,0,0,0,0,0,64,64,104,,,11,1,65,241,-1.212024051,-2.186549268,105,403.2782035,403.7781831,403.2782035,403.7781831,87.75510204,1574368915,1574368917,2.049966097,106,96,9,9,1574368912,1574368915,,,SS,1,20,F,Undergrad,2019_Nov_21_1235,AdjustExp1,3.1.5,60.02101864,Experiment
120,Stimuli/Morph120.JPG,Stimuli/Morph120.png,Stimuli/BlurLevel5/BlurEditedMorph120,Stimuli/BlurLevel5/BlurEditedMorph120.png,Stimuli/BlurLevel5/NumberedMorphs/BlurEditedMorph120.png,Stimuli/BlurLevel5/OriginalBlur/BlurEditedMorph120.png,Stimuli/BlurMorphTrio/EditedMorph120.png,None,None,0,0,0,0,0,65,65,119,,,69,1,66,172,-2.475670172,0.347932752,120,408.2774832,408.7783485,408.2774832,408.7783485,75.51020408,1574368920,1574368923,3.466915131,63,102,18,18,1574368917,1574368920,,,SS,1,20,F,Undergrad,2019_Nov_21_1235,AdjustExp1,3.1.5,60.02101864,Experiment
115,Stimuli/Morph115.JPG,Stimuli/Morph115.png,Stimuli/BlurLevel5/BlurEditedMorph115,Stimuli/BlurLevel5/BlurEditedMorph115.png,Stimuli/BlurLevel5/NumberedMorphs/BlurEditedMorph115.png,Stimuli/BlurLevel5/OriginalBlur/BlurEditedMorph115.png,Stimuli/BlurMorphTrio/EditedMorph115.png,None,None,0,0,0,0,0,66,66,114,,,17,1,67,228,-1.672826516,-1.857862064,115,414.5448878,415.0447872,414.5448878,415.0447872,87.75510204,1574368926,1574368927,1.418284178,59,106,9,9,1574368923,1574368926,,,SS,1,20,F,Undergrad,2019_Nov_21_1235,AdjustExp1,3.1.5,60.02101864,Experiment
66,Stimuli/Morph66.JPG,Stimuli/Morph66.png,Stimuli/BlurLevel5/BlurEditedMorph66,Stimuli/BlurLevel5/BlurEditedMorph66.png,Stimuli/BlurLevel5/NumberedMorphs/BlurEditedMorph66.png,Stimuli/BlurLevel5/OriginalBlur/BlurEditedMorph66.png,Stimuli/BlurMorphTrio/EditedMorph66.png,020212right.gif,Stimuli/normal_thumbnails/66right.gif,0,0,0,0,0,67,67,65,,,82,1,68,105,-0.647047613,2.414814566,66,418.615762,419.1109233,418.615762,419.1109233,89.11564626,1574368930,1574368932,2.500104189,138,74,-8,-8,1574368928,1574368930,,,SS,1,20,F,Undergrad,2019_Nov_21_1235,AdjustExp1,3.1.5,60.02101864,Experiment
141,Stimuli/Morph141.JPG,Stimuli/Morph141.png,Stimuli/BlurLevel5/BlurEditedMorph141,Stimuli/BlurLevel5/BlurEditedMorph141.png,Stimuli/BlurLevel5/NumberedMorphs/BlurEditedMorph141.png,Stimuli/BlurLevel5/OriginalBlur/BlurEditedMorph141.png,Stimuli/BlurMorphTrio/EditedMorph141.png,None,None,0,0,0,0,0,68,68,140,,,32,1,69,186,-2.486304738,-0.261321158,141,423.4669196,423.9611702,423.4669196,423.9611702,95.91836735,1574368935,1574368937,2.63395524,144,138,3,3,1574368933,1574368935,,,SS,1,20,F,Undergrad,2019_Nov_21_1235,AdjustExp1,3.1.5,60.02101864,Experiment
14,Stimuli/Morph14.JPG,Stimuli/Morph14.png,Stimuli/BlurLevel5/BlurEditedMorph14,Stimuli/BlurLevel5/BlurEditedMorph14.png,Stimuli/BlurLevel5/NumberedMorphs/BlurEditedMorph14.png,Stimuli/BlurLevel5/OriginalBlur/BlurEditedMorph14.png,Stimuli/BlurMorphTrio/EditedMorph14.png,010030right.gif,Stimuli/normal_thumbnails/14right.gif,0,0,0,0,0,69,69,13,,,96,1,70,94,-0.174391184,2.493910126,14,428.7934089,429.2942052,428.7934089,429.2942052,98.63945578,1574368940,1574368943,2.86748004,141,13,1,1,1574368938,1574368940,,,SS,1,20,F,Undergrad,2019_Nov_21_1235,AdjustExp1,3.1.5,60.02101864,Experiment
85,Stimuli/Morph85.JPG,Stimuli/Morph85.png,Stimuli/BlurLevel5/BlurEditedMorph85,Stimuli/BlurLevel5/BlurEditedMorph85.png,Stimuli/BlurLevel5/NumberedMorphs/BlurEditedMorph85.png,Stimuli/BlurLevel5/OriginalBlur/BlurEditedMorph85.png,Stimuli/BlurMorphTrio/EditedMorph85.png,020264right.gif,Stimuli/normal_thumbnails/85right.gif,0,0,0,0,0,70,70,84,,,36,1,71,10,2.462019383,0.434120444,85,434.1111558,434.6112336,434.1111558,434.6112336,82.31292517,1574368945,1574368947,1.649965048,120,98,-13,-13,1574368943,1574368945,,,SS,1,20,F,Undergrad,2019_Nov_21_1235,AdjustExp1,3.1.5,60.02101864,Experiment
83,Stimuli/Morph83.JPG,Stimuli/Morph83.png,Stimuli/BlurLevel5/BlurEditedMorph83,Stimuli/BlurLevel5/BlurEditedMorph83.png,Stimuli/BlurLevel5/NumberedMorphs/BlurEditedMorph83.png,Stimuli/BlurLevel5/OriginalBlur/BlurEditedMorph83.png,Stimuli/BlurMorphTrio/EditedMorph83.png,020259right.gif,Stimuli/normal_thumbnails/83right.gif,0,0,0,0,0,71,71,82,,,84,1,72,65,1.056545654,2.265769468,83,438.027108,438.5275667,438.027108,438.5275667,80.95238095,1574368949,1574368951,1.933932781,81,97,-14,-14,1574368947,1574368949,,,SS,1,20,F,Undergrad,2019_Nov_21_1235,AdjustExp1,3.1.5,60.02101864,Experiment
59,Stimuli/Morph59.JPG,Stimuli/Morph59.png,Stimuli/BlurLevel5/BlurEditedMorph59,Stimuli/BlurLevel5/BlurEditedMorph59.png,Stimuli/BlurLevel5/NumberedMorphs/BlurEditedMorph59.png,Stimuli/BlurLevel5/OriginalBlur/BlurEditedMorph59.png,Stimuli/BlurMorphTrio/EditedMorph59.png,010160right.gif,Stimuli/normal_thumbnails/59right.gif,0,0,0,0,0,72,72,58,,,97,1,73,100,-0.434120444,2.462019383,59,442.7100983,443.2278029,442.7100983,443.2278029,25.17006803,1574368954,1574368957,2.850163221,27,114,-55,-55,1574368952,1574368954,,,SS,1,20,F,Undergrad,2019_Nov_21_1235,AdjustExp1,3.1.5,60.02101864,Experiment
80,Stimuli/Morph80.JPG,Stimuli/Morph80.png,Stimuli/BlurLevel5/BlurEditedMorph80,Stimuli/BlurLevel5/BlurEditedMorph80.png,Stimuli/BlurLevel5/NumberedMorphs/BlurEditedMorph80.png,Stimuli/BlurLevel5/OriginalBlur/BlurEditedMorph80.png,Stimuli/BlurMorphTrio/EditedMorph80.png,020240right.gif,Stimuli/normal_thumbnails/80right.gif,0,0,0,0,0,73,73,79,,,42,1,74,275,0.217889357,-2.490486745,80,448.5773586,449.076864,448.5773586,449.076864,82.31292517,1574368960,1574368962,1.932852983,93,93,-13,-13,1574368957,1574368960,,,SS,1,20,F,Undergrad,2019_Nov_21_1235,AdjustExp1,3.1.5,60.02101864,Experiment
104,Stimuli/Morph104.JPG,Stimuli/Morph104.png,Stimuli/BlurLevel5/BlurEditedMorph104,Stimuli/BlurLevel5/BlurEditedMorph104.png,Stimuli/BlurLevel5/NumberedMorphs/BlurEditedMorph104.png,Stimuli/BlurLevel5/OriginalBlur/BlurEditedMorph104.png,Stimuli/BlurMorphTrio/EditedMorph104.png,None,None,0,0,0,0,0,74,74,103,,,92,1,75,166,-2.425739316,0.604804739,104,453.697504,454.1939895,453.697504,454.1939895,79.59183673,1574368965,1574368966,1.217163086,119,119,-15,-15,1574368962,1574368965,,,SS,1,20,F,Undergrad,2019_Nov_21_1235,AdjustExp1,3.1.5,60.02101864,Experiment
135,Stimuli/Morph135.JPG,Stimuli/Morph135.png,Stimuli/BlurLevel5/BlurEditedMorph135,Stimuli/BlurLevel5/BlurEditedMorph135.png,Stimuli/BlurLevel5/NumberedMorphs/BlurEditedMorph135.png,Stimuli/BlurLevel5/OriginalBlur/BlurEditedMorph135.png,Stimuli/BlurMorphTrio/EditedMorph135.png,None,None,0,0,0,0,0,75,75,134,,,90,1,76,260,-0.434120444,-2.462019383,135,457.2173147,457.7105639,457.2173147,457.7105639,98.63945578,1574368969,1574368971,2.366132975,98,136,-1,-1,1574368967,1574368969,,,SS,1,20,F,Undergrad,2019_Nov_21_1235,AdjustExp1,3.1.5,60.02101864,Experiment
56,Stimuli/Morph56.JPG,Stimuli/Morph56.png,Stimuli/BlurLevel5/BlurEditedMorph56,Stimuli/BlurLevel5/BlurEditedMorph56.png,Stimuli/BlurLevel5/NumberedMorphs/BlurEditedMorph56.png,Stimuli/BlurLevel5/OriginalBlur/BlurEditedMorph56.png,Stimuli/BlurMorphTrio/EditedMorph56.png,010157right.gif,Stimuli/normal_thumbnails/56right.gif,0,0,0,0,0,76,76,55,,,26,1,77,250,-0.855050358,-2.349231552,56,461.8952801,462.3941663,461.8952801,462.3941663,55.10204082,1574368973,1574368975,2.20020628,96,23,33,33,1574368971,1574368973,,,SS,1,20,F,Undergrad,2019_Nov_21_1235,AdjustExp1,3.1.5,60.02101864,Experiment
138,Stimuli/Morph138.JPG,Stimuli/Morph138.png,Stimuli/BlurLevel5/BlurEditedMorph138,Stimuli/BlurLevel5/BlurEditedMorph138.png,Stimuli/BlurLevel5/NumberedMorphs/BlurEditedMorph138.png,Stimuli/BlurLevel5/OriginalBlur/BlurEditedMorph138.png,Stimuli/BlurMorphTrio/EditedMorph138.png,None,None,0,0,0,0,0,77,77,137,,,21,1,78,64,1.095927867,2.246985116,138,466.4097332,466.9096589,466.4097332,466.9096589,94.55782313,1574368978,1574368980,2.666651964,38,142,-4,-4,1574368976,1574368978,,,SS,1,20,F,Undergrad,2019_Nov_21_1235,AdjustExp1,3.1.5,60.02101864,Experiment
127,Stimuli/Morph127.JPG,Stimuli/Morph127.png,Stimuli/BlurLevel5/BlurEditedMorph127,Stimuli/BlurLevel5/BlurEditedMorph127.png,Stimuli/BlurLevel5/NumberedMorphs/BlurEditedMorph127.png,Stimuli/BlurLevel5/OriginalBlur/BlurEditedMorph127.png,Stimuli/BlurMorphTrio/EditedMorph127.png,None,None,0,0,0,0,0,78,78,126,,,19,1,79,4,2.493910126,0.174391184,127,472.0941478,472.5930868,472.0941478,472.5930868,83.67346939,1574368983,1574368985,1.41738224,81,139,-12,-12,1574368981,1574368983,,,SS,1,20,F,Undergrad,2019_Nov_21_1235,AdjustExp1,3.1.5,60.02101864,Experiment
111,Stimuli/Morph111.JPG,Stimuli/Morph111.png,Stimuli/BlurLevel5/BlurEditedMorph111,Stimuli/BlurLevel5/BlurEditedMorph111.png,Stimuli/BlurLevel5/NumberedMorphs/BlurEditedMorph111.png,Stimuli/BlurLevel5/OriginalBlur/BlurEditedMorph111.png,Stimuli/BlurMorphTrio/EditedMorph111.png,None,None,0,0,0,0,0,79,79,110,,,94,1,80,48,1.672826516,1.857862064,111,476.446208,476.9437048,476.446208,476.9437048,52.38095238,1574368988,1574368991,2.817146301,30,76,35,35,1574368985,1574368988,,,SS,1,20,F,Undergrad,2019_Nov_21_1235,AdjustExp1,3.1.5,60.02101864,Experiment
139,Stimuli/Morph139.JPG,Stimuli/Morph139.png,Stimuli/BlurLevel5/BlurEditedMorph139,Stimuli/BlurLevel5/BlurEditedMorph139.png,Stimuli/BlurLevel5/NumberedMorphs/BlurEditedMorph139.png,Stimuli/BlurLevel5/OriginalBlur/BlurEditedMorph139.png,Stimuli/BlurMorphTrio/EditedMorph139.png,None,None,0,0,0,0,0,80,80,138,,,76,1,81,253,-0.730929262,-2.39076189,139,481.4430022,481.9435467,481.4430022,481.9435467,93.19727891,1574368993,1574368994,1.399950743,92,144,-5,-5,1574368991,1574368993,,,SS,1,20,F,Undergrad,2019_Nov_21_1235,AdjustExp1,3.1.5,60.02101864,Experiment
39,Stimuli/Morph39.JPG,Stimuli/Morph39.png,Stimuli/BlurLevel5/BlurEditedMorph39,Stimuli/BlurLevel5/BlurEditedMorph39.png,Stimuli/BlurLevel5/NumberedMorphs/BlurEditedMorph39.png,Stimuli/BlurLevel5/OriginalBlur/BlurEditedMorph39.png,Stimuli/BlurMorphTrio/EditedMorph39.png,010109right.gif,Stimuli/normal_thumbnails/39right.gif,0,0,0,0,0,81,81,38,,,66,1,82,297,1.134976249,-2.22751631,39,485.0603234,485.5603293,485.0603234,485.5603293,94.55782313,1574368996,1574368999,2.433480263,72,43,-4,-4,1574368994,1574368996,,,SS,1,20,F,Undergrad,2019_Nov_21_1235,AdjustExp1,3.1.5,60.02101864,Experiment
103,Stimuli/Morph103.JPG,Stimuli/Morph103.png,Stimuli/BlurLevel5/BlurEditedMorph103,Stimuli/BlurLevel5/BlurEditedMorph103.png,Stimuli/BlurLevel5/NumberedMorphs/BlurEditedMorph103.png,Stimuli/BlurLevel5/OriginalBlur/BlurEditedMorph103.png,Stimuli/BlurMorphTrio/EditedMorph103.png,None,None,0,0,0,0,0,82,82,102,,,74,1,83,258,-0.519779227,-2.445369002,103,489.8265697,490.3266961,489.8265697,490.3266961,76.8707483,1574369001,1574369003,1.666944027,77,86,17,17,1574368999,1574369001,,,SS,1,20,F,Undergrad,2019_Nov_21_1235,AdjustExp1,3.1.5,60.02101864,Experiment
22,Stimuli/Morph22.JPG,Stimuli/Morph22.png,Stimuli/BlurLevel5/BlurEditedMorph22,Stimuli/BlurLevel5/BlurEditedMorph22.png,Stimuli/BlurLevel5/NumberedMorphs/BlurEditedMorph22.png,Stimuli/BlurLevel5/OriginalBlur/BlurEditedMorph22.png,Stimuli/BlurMorphTrio/EditedMorph22.png,010055right.gif,Stimuli/normal_thumbnails/22right.gif,0,0,0,0,0,83,83,21,,,12,1,84,269,-0.043631016,-2.499619238,22,494.3639515,494.8606016,494.3639515,494.8606016,97.27891156,1574369006,1574369008,2.633413315,71,20,2,2,1574369003,1574369006,,,SS,1,20,F,Undergrad,2019_Nov_21_1235,AdjustExp1,3.1.5,60.02101864,Experiment
33,Stimuli/Morph33.JPG,Stimuli/Morph33.png,Stimuli/BlurLevel5/BlurEditedMorph33,Stimuli/BlurLevel5/BlurEditedMorph33.png,Stimuli/BlurLevel5/NumberedMorphs/BlurEditedMorph33.png,Stimuli/BlurLevel5/OriginalBlur/BlurEditedMorph33.png,Stimuli/BlurMorphTrio/EditedMorph33.png,010089right.gif,Stimuli/normal_thumbnails/33right.gif,0,0,0,0,0,84,84,32,,,13,1,85,115,-1.056545654,2.265769468,33,499.810357,500.3102592,499.810357,500.3102592,72.78911565,1574369011,1574369013,2.032934189,105,13,20,20,1574369009,1574369011,,,SS,1,20,F,Undergrad,2019_Nov_21_1235,AdjustExp1,3.1.5,60.02101864,Experiment
112,Stimuli/Morph112.JPG,Stimuli/Morph112.png,Stimuli/BlurLevel5/BlurEditedMorph112,Stimuli/BlurLevel5/BlurEditedMorph112.png,Stimuli/BlurLevel5/NumberedMorphs/BlurEditedMorph112.png,Stimuli/BlurLevel5/OriginalBlur/BlurEditedMorph112.png,Stimuli/BlurMorphTrio/EditedMorph112.png,None,None,1,0,1,0,0,0,0,111,,,84,2,1,30,2.165063509,1.25,112,564.0476295,564.5428449,564.0476295,564.5428449,70.06802721,1574369075,1574369081,5.382751226,96,134,-22,-22,1574369073,1574369075,space,59.69130683,SS,1,20,F,Undergrad,2019_Nov_21_1235,AdjustExp1,3.1.5,60.02101864,Experiment
129,Stimuli/Morph129.JPG,Stimuli/Morph129.png,Stimuli/BlurLevel5/BlurEditedMorph129,Stimuli/BlurLevel5/BlurEditedMorph129.png,Stimuli/BlurLevel5/NumberedMorphs/BlurEditedMorph129.png,Stimuli/BlurLevel5/OriginalBlur/BlurEditedMorph129.png,Stimuli/BlurMorphTrio/EditedMorph129.png,None,None,1,0,1,0,0,1,1,128,,,10,2,2,275,0.217889357,-2.490486745,129,571.7096895,572.2082726,571.7096895,572.2082726,97.27891156,1574369083,1574369085,1.783390999,147,131,-2,-2,1574369081,1574369083,,,SS,1,20,F,Undergrad,2019_Nov_21_1235,AdjustExp1,3.1.5,60.02101864,Experiment
134,Stimuli/Morph134.JPG,Stimuli/Morph134.png,Stimuli/BlurLevel5/BlurEditedMorph134,Stimuli/BlurLevel5/BlurEditedMorph134.png,Stimuli/BlurLevel5/NumberedMorphs/BlurEditedMorph134.png,Stimuli/BlurLevel5/OriginalBlur/BlurEditedMorph134.png,Stimuli/BlurMorphTrio/EditedMorph134.png,None,None,1,0,1,0,0,2,2,133,,,89,2,3,329,2.142918252,-1.287595187,134,576.0931635,576.5929528,576.0931635,576.5929528,93.19727891,1574369087,1574369088,0.884378672,129,129,5,5,1574369085,1574369087,,,SS,1,20,F,Undergrad,2019_Nov_21_1235,AdjustExp1,3.1.5,60.02101864,Experiment
121,Stimuli/Morph121.JPG,Stimuli/Morph121.png,Stimuli/BlurLevel5/BlurEditedMorph121,Stimuli/BlurLevel5/BlurEditedMorph121.png,Stimuli/BlurLevel5/NumberedMorphs/BlurEditedMorph121.png,Stimuli/BlurLevel5/OriginalBlur/BlurEditedMorph121.png,Stimuli/BlurMorphTrio/EditedMorph121.png,None,None,1,0,1,0,0,3,3,120,,,33,2,4,61,1.212024051,2.186549268,121,579.5925387,580.0919167,579.5925387,580.0919167,94.55782313,1574369091,1574369092,0.849663973,125,125,-4,-4,1574369089,1574369091,,,SS,1,20,F,Undergrad,2019_Nov_21_1235,AdjustExp1,3.1.5,60.02101864,Experiment
138,Stimuli/Morph138.JPG,Stimuli/Morph138.png,Stimuli/BlurLevel5/BlurEditedMorph138,Stimuli/BlurLevel5/BlurEditedMorph138.png,Stimuli/BlurLevel5/NumberedMorphs/BlurEditedMorph138.png,Stimuli/BlurLevel5/OriginalBlur/BlurEditedMorph138.png,Stimuli/BlurMorphTrio/EditedMorph138.png,None,None,1,0,1,0,0,4,4,137,,,74,2,5,245,-1.056545654,-2.265769468,138,583.0485373,583.5424457,583.0485373,583.5424457,97.27891156,1574369094,1574369096,1.966639757,17,140,-2,-2,1574369092,1574369094,,,SS,1,20,F,Undergrad,2019_Nov_21_1235,AdjustExp1,3.1.5,60.02101864,Experiment
106,Stimuli/Morph106.JPG,Stimuli/Morph106.png,Stimuli/BlurLevel5/BlurEditedMorph106,Stimuli/BlurLevel5/BlurEditedMorph106.png,Stimuli/BlurLevel5/NumberedMorphs/BlurEditedMorph106.png,Stimuli/BlurLevel5/OriginalBlur/BlurEditedMorph106.png,Stimuli/BlurMorphTrio/EditedMorph106.png,None,None,1,0,1,0,0,5,5,105,,,11,2,6,94,-0.174391184,2.493910126,106,587.6607212,588.1589183,587.6607212,588.1589183,82.31292517,1574369099,1574369101,2.266470194,106,93,13,13,1574369097,1574369099,,,SS,1,20,F,Undergrad,2019_Nov_21_1235,AdjustExp1,3.1.5,60.02101864,Experiment
34,Stimuli/Morph34.JPG,Stimuli/Morph34.png,Stimuli/BlurLevel5/BlurEditedMorph34,Stimuli/BlurLevel5/BlurEditedMorph34.png,Stimuli/BlurLevel5/NumberedMorphs/BlurEditedMorph34.png,Stimuli/BlurLevel5/OriginalBlur/BlurEditedMorph34.png,Stimuli/BlurMorphTrio/EditedMorph34.png,010090right.gif,Stimuli/normal_thumbnails/34right.gif,1,0,1,0,0,6,6,33,,,87,2,7,245,-1.056545654,-2.265769468,34,592.3764001,592.8750808,592.3764001,592.8750808,53.7414966,1574369104,1574369106,2.55083704,123,147,-113,34,1574369102,1574369104,,,SS,1,20,F,Undergrad,2019_Nov_21_1235,AdjustExp1,3.1.5,60.02101864,Experiment
33,Stimuli/Morph33.JPG,Stimuli/Morph33.png,Stimuli/BlurLevel5/BlurEditedMorph33,Stimuli/BlurLevel5/BlurEditedMorph33.png,Stimuli/BlurLevel5/NumberedMorphs/BlurEditedMorph33.png,Stimuli/BlurLevel5/OriginalBlur/BlurEditedMorph33.png,Stimuli/BlurMorphTrio/EditedMorph33.png,010089right.gif,Stimuli/normal_thumbnails/33right.gif,1,0,1,0,0,7,7,32,,,39,2,8,73,0.730929262,2.39076189,33,597.4921993,597.991808,597.4921993,597.991808,97.27891156,1574369109,1574369111,2.066575766,24,31,2,2,1574369107,1574369109,,,SS,1,20,F,Undergrad,2019_Nov_21_1235,AdjustExp1,3.1.5,60.02101864,Experiment
57,Stimuli/Morph57.JPG,Stimuli/Morph57.png,Stimuli/BlurLevel5/BlurEditedMorph57,Stimuli/BlurLevel5/BlurEditedMorph57.png,Stimuli/BlurLevel5/NumberedMorphs/BlurEditedMorph57.png,Stimuli/BlurLevel5/OriginalBlur/BlurEditedMorph57.png,Stimuli/BlurMorphTrio/EditedMorph57.png,010158right.gif,Stimuli/normal_thumbnails/57right.gif,1,0,1,0,0,8,8,56,,,62,2,9,292,0.936516484,-2.317959636,57,601.9278532,602.4250434,601.9278532,602.4250434,87.75510204,1574369113,1574369116,2.300298929,69,66,-9,-9,1574369111,1574369113,,,SS,1,20,F,Undergrad,2019_Nov_21_1235,AdjustExp1,3.1.5,60.02101864,Experiment
31,Stimuli/Morph31.JPG,Stimuli/Morph31.png,Stimuli/BlurLevel5/BlurEditedMorph31,Stimuli/BlurLevel5/BlurEditedMorph31.png,Stimuli/BlurLevel5/NumberedMorphs/BlurEditedMorph31.png,Stimuli/BlurLevel5/OriginalBlur/BlurEditedMorph31.png,Stimuli/BlurMorphTrio/EditedMorph31.png,010079right.gif,Stimuli/normal_thumbnails/31right.gif,1,0,1,0,0,9,9,30,,,25,2,10,134,-1.736645926,1.798349501,31,606.4931015,606.9917715,606.4931015,606.9917715,93.19727891,1574369118,1574369120,2.499961138,13,26,5,5,1574369116,1574369118,,,SS,1,20,F,Undergrad,2019_Nov_21_1235,AdjustExp1,3.1.5,60.02101864,Experiment
6,Stimuli/Morph6.JPG,Stimuli/Morph6.png,Stimuli/BlurLevel5/BlurEditedMorph6,Stimuli/BlurLevel5/BlurEditedMorph6.png,Stimuli/BlurLevel5/NumberedMorphs/BlurEditedMorph6.png,Stimuli/BlurLevel5/OriginalBlur/BlurEditedMorph6.png,Stimuli/BlurMorphTrio/EditedMorph6.png,010012right.gif,Stimuli/normal_thumbnails/6right.gif,1,0,1,0,0,10,10,5,,,46,2,11,144,-2.022542486,1.469463131,6,611.2312998,611.7247687,611.2312998,611.7247687,76.8707483,1574369123,1574369124,1.633975983,136,136,-130,17,1574369121,1574369123,,,SS,1,20,F,Undergrad,2019_Nov_21_1235,AdjustExp1,3.1.5,60.02101864,Experiment
27,Stimuli/Morph27.JPG,Stimuli/Morph27.png,Stimuli/BlurLevel5/BlurEditedMorph27,Stimuli/BlurLevel5/BlurEditedMorph27.png,Stimuli/BlurLevel5/NumberedMorphs/BlurEditedMorph27.png,Stimuli/BlurLevel5/OriginalBlur/BlurEditedMorph27.png,Stimuli/BlurMorphTrio/EditedMorph27.png,010072right.gif,Stimuli/normal_thumbnails/27right.gif,1,0,1,0,0,11,11,26,,,96,2,12,225,-1.767766953,-1.767766953,27,616.2080077,616.7087673,616.2080077,616.7087673,85.03401361,1574369128,1574369129,1.466464043,2,16,11,11,1574369124,1574369128,,,SS,1,20,F,Undergrad,2019_Nov_21_1235,AdjustExp1,3.1.5,60.02101864,Experiment
30,Stimuli/Morph30.JPG,Stimuli/Morph30.png,Stimuli/BlurLevel5/BlurEditedMorph30,Stimuli/BlurLevel5/BlurEditedMorph30.png,Stimuli/BlurLevel5/NumberedMorphs/BlurEditedMorph30.png,Stimuli/BlurLevel5/OriginalBlur/BlurEditedMorph30.png,Stimuli/BlurMorphTrio/EditedMorph30.png,010076right.gif,Stimuli/normal_thumbnails/30right.gif,1,0,1,0,0,12,12,29,,,69,2,13,120,-1.25,2.165063509,30,620.2079371,620.7084448,620.2079371,620.7084448,87.75510204,1574369132,1574369133,1.049811363,21,21,9,9,1574369129,1574369132,,,SS,1,20,F,Undergrad,2019_Nov_21_1235,AdjustExp1,3.1.5,60.02101864,Experiment
68,Stimuli/Morph68.JPG,Stimuli/Morph68.png,Stimuli/BlurLevel5/BlurEditedMorph68,Stimuli/BlurLevel5/BlurEditedMorph68.png,Stimuli/BlurLevel5/NumberedMorphs/BlurEditedMorph68.png,Stimuli/BlurLevel5/OriginalBlur/BlurEditedMorph68.png,Stimuli/BlurMorphTrio/EditedMorph68.png,020218right.gif,Stimuli/normal_thumbnails/68right.gif,1,0,1,0,0,13,13,67,,,35,2,14,235,-1.433941091,-2.047880111,68,623.6133748,624.1077015,623.6133748,624.1077015,98.63945578,1574369135,1574369138,3.2001369,98,69,-1,-1,1574369133,1574369135,,,SS,1,20,F,Undergrad,2019_Nov_21_1235,AdjustExp1,3.1.5,60.02101864,Experiment
136,Stimuli/Morph136.JPG,Stimuli/Morph136.png,Stimuli/BlurLevel5/BlurEditedMorph136,Stimuli/BlurLevel5/BlurEditedMorph136.png,Stimuli/BlurLevel5/NumberedMorphs/BlurEditedMorph136.png,Stimuli/BlurLevel5/OriginalBlur/BlurEditedMorph136.png,Stimuli/BlurMorphTrio/EditedMorph136.png,None,None,1,0,1,0,0,14,14,135,,,69,2,15,18,2.377641291,0.772542486,136,629.1756792,629.674992,629.1756792,629.674992,72.78911565,1574369141,1574369143,2.867191076,105,9,127,-20,1574369138,1574369140,,,SS,1,20,F,Undergrad,2019_Nov_21_1235,AdjustExp1,3.1.5,60.02101864,Experiment
61,Stimuli/Morph61.JPG,Stimuli/Morph61.png,Stimuli/BlurLevel5/BlurEditedMorph61,Stimuli/BlurLevel5/BlurEditedMorph61.png,Stimuli/BlurLevel5/NumberedMorphs/BlurEditedMorph61.png,Stimuli/BlurLevel5/OriginalBlur/BlurEditedMorph61.png,Stimuli/BlurMorphTrio/EditedMorph61.png,020201right.gif,Stimuli/normal_thumbnails/61right.gif,1,0,1,0,0,15,15,60,,,59,2,16,234,-1.469463131,-2.022542486,61,634.2919189,634.7911815,634.2919189,634.7911815,89.11564626,1574369146,1574369148,2.383318186,135,53,8,8,1574369144,1574369146,,,SS,1,20,F,Undergrad,2019_Nov_21_1235,AdjustExp1,3.1.5,60.02101864,Experiment
22,Stimuli/Morph22.JPG,Stimuli/Morph22.png,Stimuli/BlurLevel5/BlurEditedMorph22,Stimuli/BlurLevel5/BlurEditedMorph22.png,Stimuli/BlurLevel5/NumberedMorphs/BlurEditedMorph22.png,Stimuli/BlurLevel5/OriginalBlur/BlurEditedMorph22.png,Stimuli/BlurMorphTrio/EditedMorph22.png,010055right.gif,Stimuli/normal_thumbnails/22right.gif,1,0,1,0,0,16,16,21,,,79,2,17,163,-2.39076189,0.730929262,22,639.1118423,639.6085573,639.1118423,639.6085573,97.27891156,1574369150,1574369154,3.282859802,2,20,2,2,1574369148,1574369150,,,SS,1,20,F,Undergrad,2019_Nov_21_1235,AdjustExp1,3.1.5,60.02101864,Experiment
44,Stimuli/Morph44.JPG,Stimuli/Morph44.png,Stimuli/BlurLevel5/BlurEditedMorph44,Stimuli/BlurLevel5/BlurEditedMorph44.png,Stimuli/BlurLevel5/NumberedMorphs/BlurEditedMorph44.png,Stimuli/BlurLevel5/OriginalBlur/BlurEditedMorph44.png,Stimuli/BlurMorphTrio/EditedMorph44.png,010126right.gif,Stimuli/normal_thumbnails/44right.gif,1,0,1,0,0,17,17,43,,,23,2,18,147,-2.09667642,1.361597588,44,644.7262038,645.224516,644.7262038,645.224516,86.39455782,1574369156,1574369157,1.383970976,103,54,-10,-10,1574369154,1574369156,,,SS,1,20,F,Undergrad,2019_Nov_21_1235,AdjustExp1,3.1.5,60.02101864,Experiment
94,Stimuli/Morph94.JPG,Stimuli/Morph94.png,Stimuli/BlurLevel5/BlurEditedMorph94,Stimuli/BlurLevel5/BlurEditedMorph94.png,Stimuli/BlurLevel5/NumberedMorphs/BlurEditedMorph94.png,Stimuli/BlurLevel5/OriginalBlur/BlurEditedMorph94.png,Stimuli/BlurMorphTrio/EditedMorph94.png,020286right.gif,Stimuli/normal_thumbnails/94right.gif,1,0,1,0,0,18,18,93,,,41,2,19,59,1.287595187,2.142918252,94,648.7242819,649.2248932,648.7242819,649.2248932,78.23129252,1574369160,1574369162,1.735358953,29,110,-16,-16,1574369158,1574369160,,,SS,1,20,F,Undergrad,2019_Nov_21_1235,AdjustExp1,3.1.5,60.02101864,Experiment
120,Stimuli/Morph120.JPG,Stimuli/Morph120.png,Stimuli/BlurLevel5/BlurEditedMorph120,Stimuli/BlurLevel5/BlurEditedMorph120.png,Stimuli/BlurLevel5/NumberedMorphs/BlurEditedMorph120.png,Stimuli/BlurLevel5/OriginalBlur/BlurEditedMorph120.png,Stimuli/BlurMorphTrio/EditedMorph120.png,None,None,1,0,1,0,0,19,19,119,,,97,2,20,73,0.730929262,2.39076189,120,653.1415356,653.6412619,653.1415356,653.6412619,65.98639456,1574369164,1574369167,2.066894054,120,95,25,25,1574369162,1574369164,,,SS,1,20,F,Undergrad,2019_Nov_21_1235,AdjustExp1,3.1.5,60.02101864,Experiment
103,Stimuli/Morph103.JPG,Stimuli/Morph103.png,Stimuli/BlurLevel5/BlurEditedMorph103,Stimuli/BlurLevel5/BlurEditedMorph103.png,Stimuli/BlurLevel5/NumberedMorphs/BlurEditedMorph103.png,Stimuli/BlurLevel5/OriginalBlur/BlurEditedMorph103.png,Stimuli/BlurMorphTrio/EditedMorph103.png,None,None,1,0,1,0,0,20,20,102,,,94,2,21,329,2.142918252,-1.287595187,103,658.1464843,658.6415144,658.1464843,658.6415144,94.55782313,1574369169,1574369172,2.366441965,129,107,-4,-4,1574369167,1574369169,,,SS,1,20,F,Undergrad,2019_Nov_21_1235,AdjustExp1,3.1.5,60.02101864,Experiment
49,Stimuli/Morph49.JPG,Stimuli/Morph49.png,Stimuli/BlurLevel5/BlurEditedMorph49,Stimuli/BlurLevel5/BlurEditedMorph49.png,Stimuli/BlurLevel5/NumberedMorphs/BlurEditedMorph49.png,Stimuli/BlurLevel5/OriginalBlur/BlurEditedMorph49.png,Stimuli/BlurMorphTrio/EditedMorph49.png,010135right.gif,Stimuli/normal_thumbnails/49right.gif,1,0,1,0,0,21,21,48,,,27,2,22,55,1.433941091,2.047880111,49,662.8912704,663.3913998,662.8912704,663.3913998,97.27891156,1574369174,1574369176,1.332857847,69,47,2,2,1574369172,1574369174,,,SS,1,20,F,Undergrad,2019_Nov_21_1235,AdjustExp1,3.1.5,60.02101864,Experiment
141,Stimuli/Morph141.JPG,Stimuli/Morph141.png,Stimuli/BlurLevel5/BlurEditedMorph141,Stimuli/BlurLevel5/BlurEditedMorph141.png,Stimuli/BlurLevel5/NumberedMorphs/BlurEditedMorph141.png,Stimuli/BlurLevel5/OriginalBlur/BlurEditedMorph141.png,Stimuli/BlurMorphTrio/EditedMorph141.png,None,None,1,0,1,0,0,22,22,140,,,28,2,23,301,1.287595187,-2.142918252,141,666.6413385,667.1413352,666.6413385,667.1413352,45.57823129,1574369178,1574369179,0.983367205,130,101,40,40,1574369176,1574369178,,,SS,1,20,F,Undergrad,2019_Nov_21_1235,AdjustExp1,3.1.5,60.02101864,Experiment
7,Stimuli/Morph7.JPG,Stimuli/Morph7.png,Stimuli/BlurLevel5/BlurEditedMorph7,Stimuli/BlurLevel5/BlurEditedMorph7.png,Stimuli/BlurLevel5/NumberedMorphs/BlurEditedMorph7.png,Stimuli/BlurLevel5/OriginalBlur/BlurEditedMorph7.png,Stimuli/BlurMorphTrio/EditedMorph7.png,010013right.gif,Stimuli/normal_thumbnails/7right.gif,1,0,1,0,0,23,23,6,,,80,2,24,84,0.261321158,2.486304738,7,669.9314055,670.4246152,669.9314055,670.4246152,91.83673469,1574369181,1574369186,5.099750757,69,1,6,6,1574369179,1574369181,,,SS,1,20,F,Undergrad,2019_Nov_21_1235,AdjustExp1,3.1.5,60.02101864,Experiment
46,Stimuli/Morph46.JPG,Stimuli/Morph46.png,Stimuli/BlurLevel5/BlurEditedMorph46,Stimuli/BlurLevel5/BlurEditedMorph46.png,Stimuli/BlurLevel5/NumberedMorphs/BlurEditedMorph46.png,Stimuli/BlurLevel5/OriginalBlur/BlurEditedMorph46.png,Stimuli/BlurMorphTrio/EditedMorph46.png,010128right.gif,Stimuli/normal_thumbnails/46right.gif,1,0,1,0,0,24,24,45,,,29,2,25,187,-2.481365379,-0.304673359,46,678.0072267,678.5081116,678.0072267,678.5081116,79.59183673,1574369189,1574369192,2.833922148,90,61,-15,-15,1574369187,1574369189,,,SS,1,20,F,Undergrad,2019_Nov_21_1235,AdjustExp1,3.1.5,60.02101864,Experiment
113,Stimuli/Morph113.JPG,Stimuli/Morph113.png,Stimuli/BlurLevel5/BlurEditedMorph113,Stimuli/BlurLevel5/BlurEditedMorph113.png,Stimuli/BlurLevel5/NumberedMorphs/BlurEditedMorph113.png,Stimuli/BlurLevel5/OriginalBlur/BlurEditedMorph113.png,Stimuli/BlurMorphTrio/EditedMorph113.png,None,None,1,0,1,0,0,25,25,112,,,38,2,26,220,-1.915111108,-1.606969024,113,683.4736502,683.9743105,683.4736502,683.9743105,79.59183673,1574369195,1574369196,1.334649801,95,128,-15,-15,1574369192,1574369195,,,SS,1,20,F,Undergrad,2019_Nov_21_1235,AdjustExp1,3.1.5,60.02101864,Experiment
11,Stimuli/Morph11.JPG,Stimuli/Morph11.png,Stimuli/BlurLevel5/BlurEditedMorph11,Stimuli/BlurLevel5/BlurEditedMorph11.png,Stimuli/BlurLevel5/NumberedMorphs/BlurEditedMorph11.png,Stimuli/BlurLevel5/OriginalBlur/BlurEditedMorph11.png,Stimuli/BlurMorphTrio/EditedMorph11.png,010024right.gif,Stimuli/normal_thumbnails/11right.gif,1,0,1,0,0,26,26,10,,,11,2,27,70,0.855050358,2.349231552,11,687.8743352,688.3743538,687.8743352,688.3743538,75.51020408,1574369199,1574369202,2.582814217,42,29,-18,-18,1574369196,1574369199,,,SS,1,20,F,Undergrad,2019_Nov_21_1235,AdjustExp1,3.1.5,60.02101864,Experiment
26,Stimuli/Morph26.JPG,Stimuli/Morph26.png,Stimuli/BlurLevel5/BlurEditedMorph26,Stimuli/BlurLevel5/BlurEditedMorph26.png,Stimuli/BlurLevel5/NumberedMorphs/BlurEditedMorph26.png,Stimuli/BlurLevel5/OriginalBlur/BlurEditedMorph26.png,Stimuli/BlurMorphTrio/EditedMorph26.png,010070right.gif,Stimuli/normal_thumbnails/26right.gif,1,0,1,0,0,27,27,25,,,64,2,28,284,0.604804739,-2.425739316,26,692.7597357,693.2578792,692.7597357,693.2578792,98.63945578,1574369204,1574369208,3.684366941,66,25,1,1,1574369202,1574369204,,,SS,1,20,F,Undergrad,2019_Nov_21_1235,AdjustExp1,3.1.5,60.02101864,Experiment
29,Stimuli/Morph29.JPG,Stimuli/Morph29.png,Stimuli/BlurLevel5/BlurEditedMorph29,Stimuli/BlurLevel5/BlurEditedMorph29.png,Stimuli/BlurLevel5/NumberedMorphs/BlurEditedMorph29.png,Stimuli/BlurLevel5/OriginalBlur/BlurEditedMorph29.png,Stimuli/BlurMorphTrio/EditedMorph29.png,010074right.gif,Stimuli/normal_thumbnails/29right.gif,1,0,1,0,0,28,28,28,,,100,2,29,156,-2.283863644,1.016841608,29,698.9239953,699.4247116,698.9239953,699.4247116,95.91836735,1574369210,1574369213,2.999440908,54,26,3,3,1574369208,1574369210,,,SS,1,20,F,Undergrad,2019_Nov_21_1235,AdjustExp1,3.1.5,60.02101864,Experiment
56,Stimuli/Morph56.JPG,Stimuli/Morph56.png,Stimuli/BlurLevel5/BlurEditedMorph56,Stimuli/BlurLevel5/BlurEditedMorph56.png,Stimuli/BlurLevel5/NumberedMorphs/BlurEditedMorph56.png,Stimuli/BlurLevel5/OriginalBlur/BlurEditedMorph56.png,Stimuli/BlurMorphTrio/EditedMorph56.png,010157right.gif,Stimuli/normal_thumbnails/56right.gif,1,0,1,0,0,29,29,55,,,63,2,30,270,-4.59E-16,-2.5,56,704.5408043,705.0411172,704.5408043,705.0411172,68.70748299,1574369216,1574369217,1.01586318,47,79,-23,-23,1574369214,1574369216,,,SS,1,20,F,Undergrad,2019_Nov_21_1235,AdjustExp1,3.1.5,60.02101864,Experiment
82,Stimuli/Morph82.JPG,Stimuli/Morph82.png,Stimuli/BlurLevel5/BlurEditedMorph82,Stimuli/BlurLevel5/BlurEditedMorph82.png,Stimuli/BlurLevel5/NumberedMorphs/BlurEditedMorph82.png,Stimuli/BlurLevel5/OriginalBlur/BlurEditedMorph82.png,Stimuli/BlurMorphTrio/EditedMorph82.png,020247right.gif,Stimuli/normal_thumbnails/82right.gif,1,0,1,0,0,30,30,81,,,6,2,31,91,-0.043631016,2.499619238,82,708.4619136,708.9574589,708.4619136,708.9574589,90.47619048,1574369220,1574369221,1.616526127,72,89,-7,-7,1574369217,1574369220,,,SS,1,20,F,Undergrad,2019_Nov_21_1235,AdjustExp1,3.1.5,60.02101864,Experiment
65,Stimuli/Morph65.JPG,Stimuli/Morph65.png,Stimuli/BlurLevel5/BlurEditedMorph65,Stimuli/BlurLevel5/BlurEditedMorph65.png,Stimuli/BlurLevel5/NumberedMorphs/BlurEditedMorph65.png,Stimuli/BlurLevel5/OriginalBlur/BlurEditedMorph65.png,Stimuli/BlurMorphTrio/EditedMorph65.png,020209right.gif,Stimuli/normal_thumbnails/65right.gif,1,0,1,0,0,31,31,64,,,97,2,32,241,-1.212024051,-2.186549268,65,712.8409994,713.3406349,712.8409994,713.3406349,85.03401361,1574369224,1574369226,1.883343935,8,54,11,11,1574369222,1574369224,,,SS,1,20,F,Undergrad,2019_Nov_21_1235,AdjustExp1,3.1.5,60.02101864,Experiment
78,Stimuli/Morph78.JPG,Stimuli/Morph78.png,Stimuli/BlurLevel5/BlurEditedMorph78,Stimuli/BlurLevel5/BlurEditedMorph78.png,Stimuli/BlurLevel5/NumberedMorphs/BlurEditedMorph78.png,Stimuli/BlurLevel5/OriginalBlur/BlurEditedMorph78.png,Stimuli/BlurMorphTrio/EditedMorph78.png,020238right.gif,Stimuli/normal_thumbnails/78right.gif,1,0,1,0,0,32,32,77,,,65,2,33,287,0.730929262,-2.39076189,78,717.3570768,717.8569519,717.3570768,717.8569519,80.95238095,1574369229,1574369231,2.699511051,131,92,-14,-14,1574369226,1574369229,,,SS,1,20,F,Undergrad,2019_Nov_21_1235,AdjustExp1,3.1.5,60.02101864,Experiment
32,Stimuli/Morph32.JPG,Stimuli/Morph32.png,Stimuli/BlurLevel5/BlurEditedMorph32,Stimuli/BlurLevel5/BlurEditedMorph32.png,Stimuli/BlurLevel5/NumberedMorphs/BlurEditedMorph32.png,Stimuli/BlurLevel5/OriginalBlur/BlurEditedMorph32.png,Stimuli/BlurMorphTrio/EditedMorph32.png,010080right.gif,Stimuli/normal_thumbnails/32right.gif,1,0,1,0,0,33,33,31,,,8,2,34,219,-1.942864904,-1.573300978,32,722.673908,723.173898,722.673908,723.173898,78.23129252,1574369234,1574369235,1.13341403,10,16,16,16,1574369232,1574369234,,,SS,1,20,F,Undergrad,2019_Nov_21_1235,AdjustExp1,3.1.5,60.02101864,Experiment
132,Stimuli/Morph132.JPG,Stimuli/Morph132.png,Stimuli/BlurLevel5/BlurEditedMorph132,Stimuli/BlurLevel5/BlurEditedMorph132.png,Stimuli/BlurLevel5/NumberedMorphs/BlurEditedMorph132.png,Stimuli/BlurLevel5/OriginalBlur/BlurEditedMorph132.png,Stimuli/BlurMorphTrio/EditedMorph132.png,None,None,1,0,1,0,0,34,34,131,,,89,2,35,348,2.445369002,-0.519779227,132,726.1953038,726.6895611,726.1953038,726.6895611,90.47619048,1574369238,1574369240,2.183247089,1,139,-7,-7,1574369235,1574369238,,,SS,1,20,F,Undergrad,2019_Nov_21_1235,AdjustExp1,3.1.5,60.02101864,Experiment
127,Stimuli/Morph127.JPG,Stimuli/Morph127.png,Stimuli/BlurLevel5/BlurEditedMorph127,Stimuli/BlurLevel5/BlurEditedMorph127.png,Stimuli/BlurLevel5/NumberedMorphs/BlurEditedMorph127.png,Stimuli/BlurLevel5/OriginalBlur/BlurEditedMorph127.png,Stimuli/BlurMorphTrio/EditedMorph127.png,None,None,1,0,1,0,0,35,35,126,,,25,2,36,333,2.22751631,-1.134976249,127,730.6571495,731.1569533,730.6571495,731.1569533,93.19727891,1574369242,1574369244,2.465520144,75,122,5,5,1574369240,1574369242,,,SS,1,20,F,Undergrad,2019_Nov_21_1235,AdjustExp1,3.1.5,60.02101864,Experiment
140,Stimuli/Morph140.JPG,Stimuli/Morph140.png,Stimuli/BlurLevel5/BlurEditedMorph140,Stimuli/BlurLevel5/BlurEditedMorph140.png,Stimuli/BlurLevel5/NumberedMorphs/BlurEditedMorph140.png,Stimuli/BlurLevel5/OriginalBlur/BlurEditedMorph140.png,Stimuli/BlurMorphTrio/EditedMorph140.png,None,None,1,0,1,0,0,36,36,139,,,76,2,37,68,0.936516484,2.317959636,140,735.2948822,735.7897126,735.2948822,735.7897126,80.95238095,1574369247,1574369248,0.91655612,126,126,14,14,1574369245,1574369247,,,SS,1,20,F,Undergrad,2019_Nov_21_1235,AdjustExp1,3.1.5,60.02101864,Experiment
36,Stimuli/Morph36.JPG,Stimuli/Morph36.png,Stimuli/BlurLevel5/BlurEditedMorph36,Stimuli/BlurLevel5/BlurEditedMorph36.png,Stimuli/BlurLevel5/NumberedMorphs/BlurEditedMorph36.png,Stimuli/BlurLevel5/OriginalBlur/BlurEditedMorph36.png,Stimuli/BlurMorphTrio/EditedMorph36.png,010095right.gif,Stimuli/normal_thumbnails/36right.gif,1,0,1,0,0,37,37,35,,,85,2,38,173,-2.481365379,0.304673359,36,738.7563575,739.2570021,738.7563575,739.2570021,94.55782313,1574369250,1574369253,3.383220911,110,32,4,4,1574369248,1574369250,,,SS,1,20,F,Undergrad,2019_Nov_21_1235,AdjustExp1,3.1.5,60.02101864,Experiment
51,Stimuli/Morph51.JPG,Stimuli/Morph51.png,Stimuli/BlurLevel5/BlurEditedMorph51,Stimuli/BlurLevel5/BlurEditedMorph51.png,Stimuli/BlurLevel5/NumberedMorphs/BlurEditedMorph51.png,Stimuli/BlurLevel5/OriginalBlur/BlurEditedMorph51.png,Stimuli/BlurMorphTrio/EditedMorph51.png,010146right.gif,Stimuli/normal_thumbnails/51right.gif,1,0,1,0,0,38,38,50,,,13,2,39,217,-1.996588775,-1.504537558,51,745.008329,745.5067163,745.008329,745.5067163,85.03401361,1574369256,1574369259,2.482668161,108,62,-11,-11,1574369254,1574369256,,,SS,1,20,F,Undergrad,2019_Nov_21_1235,AdjustExp1,3.1.5,60.02101864,Experiment
42,Stimuli/Morph42.JPG,Stimuli/Morph42.png,Stimuli/BlurLevel5/BlurEditedMorph42,Stimuli/BlurLevel5/BlurEditedMorph42.png,Stimuli/BlurLevel5/NumberedMorphs/BlurEditedMorph42.png,Stimuli/BlurLevel5/OriginalBlur/BlurEditedMorph42.png,Stimuli/BlurMorphTrio/EditedMorph42.png,010121right.gif,Stimuli/normal_thumbnails/42right.gif,1,0,1,0,0,39,39,41,,,21,2,40,51,1.573300978,1.942864904,42,749.9919744,750.4903986,749.9919744,750.4903986,65.98639456,1574369261,1574369263,1.883805275,64,67,-25,-25,1574369259,1574369261,,,SS,1,20,F,Undergrad,2019_Nov_21_1235,AdjustExp1,3.1.5,60.02101864,Experiment
119,Stimuli/Morph119.JPG,Stimuli/Morph119.png,Stimuli/BlurLevel5/BlurEditedMorph119,Stimuli/BlurLevel5/BlurEditedMorph119.png,Stimuli/BlurLevel5/NumberedMorphs/BlurEditedMorph119.png,Stimuli/BlurLevel5/OriginalBlur/BlurEditedMorph119.png,Stimuli/BlurMorphTrio/EditedMorph119.png,None,None,1,0,1,0,0,40,40,118,,,72,2,41,299,1.212024051,-2.186549268,119,754.5560828,755.0561722,754.5560828,755.0561722,87.75510204,1574369266,1574369270,3.999411106,41,128,-9,-9,1574369263,1574369266,,,SS,1,20,F,Undergrad,2019_Nov_21_1235,AdjustExp1,3.1.5,60.02101864,Experiment
87,Stimuli/Morph87.JPG,Stimuli/Morph87.png,Stimuli/BlurLevel5/BlurEditedMorph87,Stimuli/BlurLevel5/BlurEditedMorph87.png,Stimuli/BlurLevel5/NumberedMorphs/BlurEditedMorph87.png,Stimuli/BlurLevel5/OriginalBlur/BlurEditedMorph87.png,Stimuli/BlurMorphTrio/EditedMorph87.png,020270right.gif,Stimuli/normal_thumbnails/87right.gif,1,0,1,0,0,41,41,86,,,29,2,42,193,-2.435925162,-0.562377636,87,761.1724349,761.6730723,761.1724349,761.6730723,91.83673469,1574369273,1574369275,2.51672411,139,93,-6,-6,1574369270,1574369272,,,SS,1,20,F,Undergrad,2019_Nov_21_1235,AdjustExp1,3.1.5,60.02101864,Experiment
86,Stimuli/Morph86.JPG,Stimuli/Morph86.png,Stimuli/BlurLevel5/BlurEditedMorph86,Stimuli/BlurLevel5/BlurEditedMorph86.png,Stimuli/BlurLevel5/NumberedMorphs/BlurEditedMorph86.png,Stimuli/BlurLevel5/OriginalBlur/BlurEditedMorph86.png,Stimuli/BlurMorphTrio/EditedMorph86.png,020266right.gif,Stimuli/normal_thumbnails/86right.gif,1,0,1,0,0,42,42,85,,,92,2,43,171,-2.469220851,0.391086163,86,766.8234852,767.3232125,766.8234852,767.3232125,83.67346939,1574369278,1574369280,1.983901024,35,98,-12,-12,1574369275,1574369278,,,SS,1,20,F,Undergrad,2019_Nov_21_1235,AdjustExp1,3.1.5,60.02101864,Experiment
5,Stimuli/Morph5.JPG,Stimuli/Morph5.png,Stimuli/BlurLevel5/BlurEditedMorph5,Stimuli/BlurLevel5/BlurEditedMorph5.png,Stimuli/BlurLevel5/NumberedMorphs/BlurEditedMorph5.png,Stimuli/BlurLevel5/OriginalBlur/BlurEditedMorph5.png,Stimuli/BlurMorphTrio/EditedMorph5.png,010011right.gif,Stimuli/normal_thumbnails/5right.gif,1,0,1,0,0,43,43,4,,,50,2,44,75,0.647047613,2.414814566,5,771.4138949,771.9063158,771.4138949,771.9063158,89.11564626,1574369283,1574369285,2.016741276,84,144,-139,8,1574369280,1574369283,,,SS,1,20,F,Undergrad,2019_Nov_21_1235,AdjustExp1,3.1.5,60.02101864,Experiment
3,Stimuli/Morph3.JPG,Stimuli/Morph3.png,Stimuli/BlurLevel5/BlurEditedMorph3,Stimuli/BlurLevel5/BlurEditedMorph3.png,Stimuli/BlurLevel5/NumberedMorphs/BlurEditedMorph3.png,Stimuli/BlurLevel5/OriginalBlur/BlurEditedMorph3.png,Stimuli/BlurMorphTrio/EditedMorph3.png,010009right.gif,Stimuli/normal_thumbnails/3right.gif,1,0,1,0,0,44,44,2,,,15,2,45,315,1.767766953,-1.767766953,3,775.9435597,776.4396875,775.9435597,776.4396875,86.39455782,1574369287,1574369288,1.032577038,13,13,-10,-10,1574369285,1574369287,,,SS,1,20,F,Undergrad,2019_Nov_21_1235,AdjustExp1,3.1.5,60.02101864,Experiment
35,Stimuli/Morph35.JPG,Stimuli/Morph35.png,Stimuli/BlurLevel5/BlurEditedMorph35,Stimuli/BlurLevel5/BlurEditedMorph35.png,Stimuli/BlurLevel5/NumberedMorphs/BlurEditedMorph35.png,Stimuli/BlurLevel5/OriginalBlur/BlurEditedMorph35.png,Stimuli/BlurMorphTrio/EditedMorph35.png,010094right.gif,Stimuli/normal_thumbnails/35right.gif,1,0,1,0,0,45,45,34,,,23,2,46,244,-1.095927867,-2.246985116,35,779.5722878,780.0734557,779.5722878,780.0734557,67.34693878,1574369291,1574369295,3.74847579,84,11,24,24,1574369289,1574369291,,,SS,1,20,F,Undergrad,2019_Nov_21_1235,AdjustExp1,3.1.5,60.02101864,Experiment
9,Stimuli/Morph9.JPG,Stimuli/Morph9.png,Stimuli/BlurLevel5/BlurEditedMorph9,Stimuli/BlurLevel5/BlurEditedMorph9.png,Stimuli/BlurLevel5/NumberedMorphs/BlurEditedMorph9.png,Stimuli/BlurLevel5/OriginalBlur/BlurEditedMorph9.png,Stimuli/BlurMorphTrio/EditedMorph9.png,010015right.gif,Stimuli/normal_thumbnails/9right.gif,1,0,1,0,0,46,46,8,,,3,2,47,61,1.212024051,2.186549268,9,785.6768697,786.1732669,785.6768697,786.1732669,85.03401361,1574369297,1574369299,2.216382027,102,20,-11,-11,1574369295,1574369297,,,SS,1,20,F,Undergrad,2019_Nov_21_1235,AdjustExp1,3.1.5,60.02101864,Experiment
101,Stimuli/Morph101.JPG,Stimuli/Morph101.png,Stimuli/BlurLevel5/BlurEditedMorph101,Stimuli/BlurLevel5/BlurEditedMorph101.png,Stimuli/BlurLevel5/NumberedMorphs/BlurEditedMorph101.png,Stimuli/BlurLevel5/OriginalBlur/BlurEditedMorph101.png,Stimuli/BlurMorphTrio/EditedMorph101.png,None,None,1,0,1,0,0,47,47,100,,,47,2,48,223,-1.828384254,-1.7049959,101,790.4266652,790.9219095,790.4266652,790.9219095,97.27891156,1574369302,1574369304,1.750272036,115,103,-2,-2,1574369299,1574369302,,,SS,1,20,F,Undergrad,2019_Nov_21_1235,AdjustExp1,3.1.5,60.02101864,Experiment
2,Stimuli/Morph2.JPG,Stimuli/Morph2.png,Stimuli/BlurLevel5/BlurEditedMorph2,Stimuli/BlurLevel5/BlurEditedMorph2.png,Stimuli/BlurLevel5/NumberedMorphs/BlurEditedMorph2.png,Stimuli/BlurLevel5/OriginalBlur/BlurEditedMorph2.png,Stimuli/BlurMorphTrio/EditedMorph2.png,010006right.gif,Stimuli/normal_thumbnails/2right.gif,1,0,1,0,0,48,48,1,,,43,2,49,217,-1.996588775,-1.504537558,2,794.7220806,795.2225872,794.7220806,795.2225872,80.95238095,1574369306,1574369308,1.99810195,123,135,-133,14,1574369304,1574369306,,,SS,1,20,F,Undergrad,2019_Nov_21_1235,AdjustExp1,3.1.5,60.02101864,Experiment
88,Stimuli/Morph88.JPG,Stimuli/Morph88.png,Stimuli/BlurLevel5/BlurEditedMorph88,Stimuli/BlurLevel5/BlurEditedMorph88.png,Stimuli/BlurLevel5/NumberedMorphs/BlurEditedMorph88.png,Stimuli/BlurLevel5/OriginalBlur/BlurEditedMorph88.png,Stimuli/BlurMorphTrio/EditedMorph88.png,020271right.gif,Stimuli/normal_thumbnails/88right.gif,1,0,1,0,0,49,49,87,,,83,2,50,146,-2.072593931,1.397982259,88,799.3055963,799.8059988,799.3055963,799.8059988,71.42857143,1574369311,1574369312,1.632376909,2,109,-21,-21,1574369308,1574369311,,,SS,1,20,F,Undergrad,2019_Nov_21_1235,AdjustExp1,3.1.5,60.02101864,Experiment
52,Stimuli/Morph52.JPG,Stimuli/Morph52.png,Stimuli/BlurLevel5/BlurEditedMorph52,Stimuli/BlurLevel5/BlurEditedMorph52.png,Stimuli/BlurLevel5/NumberedMorphs/BlurEditedMorph52.png,Stimuli/BlurLevel5/OriginalBlur/BlurEditedMorph52.png,Stimuli/BlurMorphTrio/EditedMorph52.png,010148right.gif,Stimuli/normal_thumbnails/52right.gif,1,0,1,0,0,50,50,51,,,82,2,51,7,2.481365379,0.304673359,52,803.2724748,803.7725396,803.2724748,803.7725396,82.31292517,1574369315,1574369317,2.766878128,139,65,-13,-13,1574369313,1574369315,,,SS,1,20,F,Undergrad,2019_Nov_21_1235,AdjustExp1,3.1.5,60.02101864,Experiment
45,Stimuli/Morph45.JPG,Stimuli/Morph45.png,Stimuli/BlurLevel5/BlurEditedMorph45,Stimuli/BlurLevel5/BlurEditedMorph45.png,Stimuli/BlurLevel5/NumberedMorphs/BlurEditedMorph45.png,Stimuli/BlurLevel5/OriginalBlur/BlurEditedMorph45.png,Stimuli/BlurMorphTrio/EditedMorph45.png,010127right.gif,Stimuli/normal_thumbnails/45right.gif,1,0,1,0,0,51,51,44,,,64,2,52,169,-2.454067959,0.477022488,45,808.5440253,809.0396984,808.5440253,809.0396984,90.47619048,1574369320,1574369322,1.800194979,110,52,-7,-7,1574369318,1574369320,,,SS,1,20,F,Undergrad,2019_Nov_21_1235,AdjustExp1,3.1.5,60.02101864,Experiment
59,Stimuli/Morph59.JPG,Stimuli/Morph59.png,Stimuli/BlurLevel5/BlurEditedMorph59,Stimuli/BlurLevel5/BlurEditedMorph59.png,Stimuli/BlurLevel5/NumberedMorphs/BlurEditedMorph59.png,Stimuli/BlurLevel5/OriginalBlur/BlurEditedMorph59.png,Stimuli/BlurMorphTrio/EditedMorph59.png,010160right.gif,Stimuli/normal_thumbnails/59right.gif,1,0,1,0,0,52,52,58,,,95,2,53,345,2.414814566,-0.647047613,59,813.339523,813.8393968,813.339523,813.8393968,95.91836735,1574369325,1574369327,1.864793301,94,56,3,3,1574369322,1574369325,,,SS,1,20,F,Undergrad,2019_Nov_21_1235,AdjustExp1,3.1.5,60.02101864,Experiment
115,Stimuli/Morph115.JPG,Stimuli/Morph115.png,Stimuli/BlurLevel5/BlurEditedMorph115,Stimuli/BlurLevel5/BlurEditedMorph115.png,Stimuli/BlurLevel5/NumberedMorphs/BlurEditedMorph115.png,Stimuli/BlurLevel5/OriginalBlur/BlurEditedMorph115.png,Stimuli/BlurMorphTrio/EditedMorph115.png,None,None,1,0,1,0,0,53,53,114,,,34,2,54,306,1.469463131,-2.022542486,115,818.09267,818.5892214,818.09267,818.5892214,59.18367347,1574369329,1574369330,0.99943018,103,85,30,30,1574369327,1574369329,,,SS,1,20,F,Undergrad,2019_Nov_21_1235,AdjustExp1,3.1.5,60.02101864,Experiment
4,Stimuli/Morph4.JPG,Stimuli/Morph4.png,Stimuli/BlurLevel5/BlurEditedMorph4,Stimuli/BlurLevel5/BlurEditedMorph4.png,Stimuli/BlurLevel5/NumberedMorphs/BlurEditedMorph4.png,Stimuli/BlurLevel5/OriginalBlur/BlurEditedMorph4.png,Stimuli/BlurMorphTrio/EditedMorph4.png,010010right.gif,Stimuli/normal_thumbnails/4right.gif,1,0,1,0,0,54,54,3,,,49,2,55,190,-2.462019383,-0.434120444,4,821.6432442,822.1388797,821.6432442,822.1388797,94.55782313,1574369333,1574369337,3.965393066,65,8,-4,-4,1574369331,1574369333,,,SS,1,20,F,Undergrad,2019_Nov_21_1235,AdjustExp1,3.1.5,60.02101864,Experiment
10,Stimuli/Morph10.JPG,Stimuli/Morph10.png,Stimuli/BlurLevel5/BlurEditedMorph10,Stimuli/BlurLevel5/BlurEditedMorph10.png,Stimuli/BlurLevel5/NumberedMorphs/BlurEditedMorph10.png,Stimuli/BlurLevel5/OriginalBlur/BlurEditedMorph10.png,Stimuli/BlurMorphTrio/EditedMorph10.png,010016right.gif,Stimuli/normal_thumbnails/10right.gif,1,0,1,0,0,55,55,9,,,59,2,56,146,-2.072593931,1.397982259,10,827.9393506,828.4390767,827.9393506,828.4390767,94.55782313,1574369339,1574369341,1.819623947,64,6,4,4,1574369337,1574369339,,,SS,1,20,F,Undergrad,2019_Nov_21_1235,AdjustExp1,3.1.5,60.02101864,Experiment
125,Stimuli/Morph125.JPG,Stimuli/Morph125.png,Stimuli/BlurLevel5/BlurEditedMorph125,Stimuli/BlurLevel5/BlurEditedMorph125.png,Stimuli/BlurLevel5/NumberedMorphs/BlurEditedMorph125.png,Stimuli/BlurLevel5/OriginalBlur/BlurEditedMorph125.png,Stimuli/BlurMorphTrio/EditedMorph125.png,None,None,1,0,1,0,0,56,56,124,,,23,2,57,346,2.425739316,-0.604804739,125,832.1760712,832.6723655,832.1760712,832.6723655,85.03401361,1574369344,1574369347,3.067049026,62,114,11,11,1574369341,1574369343,,,SS,1,20,F,Undergrad,2019_Nov_21_1235,AdjustExp1,3.1.5,60.02101864,Experiment
18,Stimuli/Morph18.JPG,Stimuli/Morph18.png,Stimuli/BlurLevel5/BlurEditedMorph18,Stimuli/BlurLevel5/BlurEditedMorph18.png,Stimuli/BlurLevel5/NumberedMorphs/BlurEditedMorph18.png,Stimuli/BlurLevel5/OriginalBlur/BlurEditedMorph18.png,Stimuli/BlurMorphTrio/EditedMorph18.png,010039right.gif,Stimuli/normal_thumbnails/18right.gif,1,0,1,0,0,57,57,17,,,68,2,58,348,2.445369002,-0.519779227,18,837.5886155,838.0891502,837.5886155,838.0891502,89.11564626,1574369349,1574369352,2.76604104,117,10,8,8,1574369347,1574369349,,,SS,1,20,F,Undergrad,2019_Nov_21_1235,AdjustExp1,3.1.5,60.02101864,Experiment
124,Stimuli/Morph124.JPG,Stimuli/Morph124.png,Stimuli/BlurLevel5/BlurEditedMorph124,Stimuli/BlurLevel5/BlurEditedMorph124.png,Stimuli/BlurLevel5/NumberedMorphs/BlurEditedMorph124.png,Stimuli/BlurLevel5/OriginalBlur/BlurEditedMorph124.png,Stimuli/BlurMorphTrio/EditedMorph124.png,None,None,1,0,1,0,0,58,58,123,,,44,2,59,298,1.173678907,-2.207368982,124,842.7548588,843.2556199,842.7548588,843.2556199,83.67346939,1574369354,1574369357,3.183503866,78,136,-12,-12,1574369352,1574369354,,,SS,1,20,F,Undergrad,2019_Nov_21_1235,AdjustExp1,3.1.5,60.02101864,Experiment
50,Stimuli/Morph50.JPG,Stimuli/Morph50.png,Stimuli/BlurLevel5/BlurEditedMorph50,Stimuli/BlurLevel5/BlurEditedMorph50.png,Stimuli/BlurLevel5/NumberedMorphs/BlurEditedMorph50.png,Stimuli/BlurLevel5/OriginalBlur/BlurEditedMorph50.png,Stimuli/BlurMorphTrio/EditedMorph50.png,010142right.gif,Stimuli/normal_thumbnails/50right.gif,1,0,1,0,0,59,59,49,,,74,2,60,102,-0.519779227,2.445369002,50,848.2887406,848.7882532,848.2887406,848.7882532,98.63945578,1574369360,1574369362,2.766844988,8,51,-1,-1,1574369358,1574369360,,,SS,1,20,F,Undergrad,2019_Nov_21_1235,AdjustExp1,3.1.5,60.02101864,Experiment
54,Stimuli/Morph54.JPG,Stimuli/Morph54.png,Stimuli/BlurLevel5/BlurEditedMorph54,Stimuli/BlurLevel5/BlurEditedMorph54.png,Stimuli/BlurLevel5/NumberedMorphs/BlurEditedMorph54.png,Stimuli/BlurLevel5/OriginalBlur/BlurEditedMorph54.png,Stimuli/BlurMorphTrio/EditedMorph54.png,010150right.gif,Stimuli/normal_thumbnails/54right.gif,1,0,1,0,0,60,60,53,,,19,2,61,140,-1.915111108,1.606969024,54,853.8382577,854.3385452,853.8382577,854.3385452,79.59183673,1574369365,1574369368,2.833220005,55,39,15,15,1574369363,1574369365,,,SS,1,20,F,Undergrad,2019_Nov_21_1235,AdjustExp1,3.1.5,60.02101864,Experiment
76,Stimuli/Morph76.JPG,Stimuli/Morph76.png,Stimuli/BlurLevel5/BlurEditedMorph76,Stimuli/BlurLevel5/BlurEditedMorph76.png,Stimuli/BlurLevel5/NumberedMorphs/BlurEditedMorph76.png,Stimuli/BlurLevel5/OriginalBlur/BlurEditedMorph76.png,Stimuli/BlurMorphTrio/EditedMorph76.png,020234right.gif,Stimuli/normal_thumbnails/76right.gif,1,0,1,0,0,61,61,75,,,80,2,62,28,2.207368982,1.173678907,76,859.1935314,859.6889392,859.1935314,859.6889392,52.38095238,1574369371,1574369372,1.032592058,111,111,-35,-35,1574369368,1574369371,,,SS,1,20,F,Undergrad,2019_Nov_21_1235,AdjustExp1,3.1.5,60.02101864,Experiment
17,Stimuli/Morph17.JPG,Stimuli/Morph17.png,Stimuli/BlurLevel5/BlurEditedMorph17,Stimuli/BlurLevel5/BlurEditedMorph17.png,Stimuli/BlurLevel5/NumberedMorphs/BlurEditedMorph17.png,Stimuli/BlurLevel5/OriginalBlur/BlurEditedMorph17.png,Stimuli/BlurMorphTrio/EditedMorph17.png,010036right.gif,Stimuli/normal_thumbnails/17right.gif,1,0,1,0,0,62,62,16,,,71,2,63,260,-0.434120444,-2.462019383,17,862.671581,863.1712683,862.671581,863.1712683,83.67346939,1574369374,1574369376,1.565090179,95,5,12,12,1574369372,1574369374,,,SS,1,20,F,Undergrad,2019_Nov_21_1235,AdjustExp1,3.1.5,60.02101864,Experiment
55,Stimuli/Morph55.JPG,Stimuli/Morph55.png,Stimuli/BlurLevel5/BlurEditedMorph55,Stimuli/BlurLevel5/BlurEditedMorph55.png,Stimuli/BlurLevel5/NumberedMorphs/BlurEditedMorph55.png,Stimuli/BlurLevel5/OriginalBlur/BlurEditedMorph55.png,Stimuli/BlurMorphTrio/EditedMorph55.png,010151right.gif,Stimuli/normal_thumbnails/55right.gif,1,0,1,0,0,63,63,54,,,14,2,64,245,-1.056545654,-2.265769468,55,866.9890325,867.4885616,866.9890325,867.4885616,90.47619048,1574369378,1574369379,0.848502874,39,48,7,7,1574369376,1574369378,,,SS,1,20,F,Undergrad,2019_Nov_21_1235,AdjustExp1,3.1.5,60.02101864,Experiment
47,Stimuli/Morph47.JPG,Stimuli/Morph47.png,Stimuli/BlurLevel5/BlurEditedMorph47,Stimuli/BlurLevel5/BlurEditedMorph47.png,Stimuli/BlurLevel5/NumberedMorphs/BlurEditedMorph47.png,Stimuli/BlurLevel5/OriginalBlur/BlurEditedMorph47.png,Stimuli/BlurMorphTrio/EditedMorph47.png,010130right.gif,Stimuli/normal_thumbnails/47right.gif,1,0,1,0,0,64,64,46,,,28,2,65,247,-0.976827821,-2.301262134,47,870.60541,871.1052311,870.60541,871.1052311,25.17006803,1574369382,1574369384,2.15083909,109,102,-55,-55,1574369379,1574369382,,,SS,1,20,F,Undergrad,2019_Nov_21_1235,AdjustExp1,3.1.5,60.02101864,Experiment
79,Stimuli/Morph79.JPG,Stimuli/Morph79.png,Stimuli/BlurLevel5/BlurEditedMorph79,Stimuli/BlurLevel5/BlurEditedMorph79.png,Stimuli/BlurLevel5/NumberedMorphs/BlurEditedMorph79.png,Stimuli/BlurLevel5/OriginalBlur/BlurEditedMorph79.png,Stimuli/BlurMorphTrio/EditedMorph79.png,020239right.gif,Stimuli/normal_thumbnails/79right.gif,1,0,1,0,0,65,65,78,,,88,2,66,329,2.142918252,-1.287595187,79,875.3379054,875.8382426,875.3379054,875.8382426,74.14965986,1574369387,1574369389,2.133084059,26,98,-19,-19,1574369384,1574369387,,,SS,1,20,F,Undergrad,2019_Nov_21_1235,AdjustExp1,3.1.5,60.02101864,Experiment
71,Stimuli/Morph71.JPG,Stimuli/Morph71.png,Stimuli/BlurLevel5/BlurEditedMorph71,Stimuli/BlurLevel5/BlurEditedMorph71.png,Stimuli/BlurLevel5/NumberedMorphs/BlurEditedMorph71.png,Stimuli/BlurLevel5/OriginalBlur/BlurEditedMorph71.png,Stimuli/BlurMorphTrio/EditedMorph71.png,020225right.gif,Stimuli/normal_thumbnails/71right.gif,1,0,1,0,0,66,66,70,,,68,2,67,303,1.361597588,-2.09667642,71,879.9884432,880.4884386,879.9884432,880.4884386,94.55782313,1574369391,1574369394,2.199687243,12,67,4,4,1574369389,1574369391,,,SS,1,20,F,Undergrad,2019_Nov_21_1235,AdjustExp1,3.1.5,60.02101864,Experiment
99,Stimuli/Morph99.JPG,Stimuli/Morph99.png,Stimuli/BlurLevel5/BlurEditedMorph99,Stimuli/BlurLevel5/BlurEditedMorph99.png,Stimuli/BlurLevel5/NumberedMorphs/BlurEditedMorph99.png,Stimuli/BlurLevel5/OriginalBlur/BlurEditedMorph99.png,Stimuli/BlurMorphTrio/EditedMorph99.png,020299right.gif,Stimuli/normal_thumbnails/99right.gif,1,0,1,0,0,67,67,98,,,53,2,68,140,-1.915111108,1.606969024,99,885.0260618,885.5215613,885.0260618,885.5215613,100,1574369396,1574369398,1.433297873,143,99,0,0,1574369394,1574369396,,,SS,1,20,F,Undergrad,2019_Nov_21_1235,AdjustExp1,3.1.5,60.02101864,Experiment
105,Stimuli/Morph105.JPG,Stimuli/Morph105.png,Stimuli/BlurLevel5/BlurEditedMorph105,Stimuli/BlurLevel5/BlurEditedMorph105.png,Stimuli/BlurLevel5/NumberedMorphs/BlurEditedMorph105.png,Stimuli/BlurLevel5/OriginalBlur/BlurEditedMorph105.png,Stimuli/BlurMorphTrio/EditedMorph105.png,None,None,1,0,1,0,0,68,68,104,,,85,2,69,109,-0.813920386,2.363796439,105,888.9720466,889.4718398,888.9720466,889.4718398,94.55782313,1574369400,1574369402,1.233343124,147,109,-4,-4,1574369398,1574369400,,,SS,1,20,F,Undergrad,2019_Nov_21_1235,AdjustExp1,3.1.5,60.02101864,Experiment
133,Stimuli/Morph133.JPG,Stimuli/Morph133.png,Stimuli/BlurLevel5/BlurEditedMorph133,Stimuli/BlurLevel5/BlurEditedMorph133.png,Stimuli/BlurLevel5/NumberedMorphs/BlurEditedMorph133.png,Stimuli/BlurLevel5/OriginalBlur/BlurEditedMorph133.png,Stimuli/BlurMorphTrio/EditedMorph133.png,None,None,1,0,1,0,0,69,69,132,,,42,2,70,27,2.22751631,1.134976249,133,893.1435506,893.6378363,893.1435506,893.6378363,85.03401361,1574369405,1574369407,2.899627924,78,122,11,11,1574369402,1574369404,,,SS,1,20,F,Undergrad,2019_Nov_21_1235,AdjustExp1,3.1.5,60.02101864,Experiment
109,Stimuli/Morph109.JPG,Stimuli/Morph109.png,Stimuli/BlurLevel5/BlurEditedMorph109,Stimuli/BlurLevel5/BlurEditedMorph109.png,Stimuli/BlurLevel5/NumberedMorphs/BlurEditedMorph109.png,Stimuli/BlurLevel5/OriginalBlur/BlurEditedMorph109.png,Stimuli/BlurMorphTrio/EditedMorph109.png,None,None,1,0,1,0,0,70,70,108,,,41,2,71,154,-2.246985116,1.095927867,109,898.7773713,899.2716888,898.7773713,899.2716888,98.63945578,1574369410,1574369412,1.532899857,31,110,-1,-1,1574369408,1574369410,,,SS,1,20,F,Undergrad,2019_Nov_21_1235,AdjustExp1,3.1.5,60.02101864,Experiment
74,Stimuli/Morph74.JPG,Stimuli/Morph74.png,Stimuli/BlurLevel5/BlurEditedMorph74,Stimuli/BlurLevel5/BlurEditedMorph74.png,Stimuli/BlurLevel5/NumberedMorphs/BlurEditedMorph74.png,Stimuli/BlurLevel5/OriginalBlur/BlurEditedMorph74.png,Stimuli/BlurMorphTrio/EditedMorph74.png,020232right.gif,Stimuli/normal_thumbnails/74right.gif,1,0,1,0,0,71,71,73,,,90,2,72,252,-0.772542486,-2.377641291,74,902.855715,903.3552253,902.855715,903.3552253,94.55782313,1574369414,1574369419,5.034214735,76,78,-4,-4,1574369412,1574369414,,,SS,1,20,F,Undergrad,2019_Nov_21_1235,AdjustExp1,3.1.5,60.02101864,Experiment
28,Stimuli/Morph28.JPG,Stimuli/Morph28.png,Stimuli/BlurLevel5/BlurEditedMorph28,Stimuli/BlurLevel5/BlurEditedMorph28.png,Stimuli/BlurLevel5/NumberedMorphs/BlurEditedMorph28.png,Stimuli/BlurLevel5/OriginalBlur/BlurEditedMorph28.png,Stimuli/BlurMorphTrio/EditedMorph28.png,010073right.gif,Stimuli/normal_thumbnails/28right.gif,1,0,1,0,0,72,72,27,,,91,2,73,298,1.173678907,-2.207368982,28,910.2943761,910.7881071,910.2943761,910.7881071,78.23129252,1574369422,1574369424,1.950273991,6,12,16,16,1574369420,1574369422,,,SS,1,20,F,Undergrad,2019_Nov_21_1235,AdjustExp1,3.1.5,60.02101864,Experiment
8,Stimuli/Morph8.JPG,Stimuli/Morph8.png,Stimuli/BlurLevel5/BlurEditedMorph8,Stimuli/BlurLevel5/BlurEditedMorph8.png,Stimuli/BlurLevel5/NumberedMorphs/BlurEditedMorph8.png,Stimuli/BlurLevel5/OriginalBlur/BlurEditedMorph8.png,Stimuli/BlurMorphTrio/EditedMorph8.png,010014right.gif,Stimuli/normal_thumbnails/8right.gif,1,0,1,0,0,73,73,7,,,54,2,74,176,-2.493910126,0.174391184,8,914.5429089,915.0372365,914.5429089,915.0372365,70.06802721,1574369426,1574369429,2.75073719,64,30,-22,-22,1574369424,1574369426,,,SS,1,20,F,Undergrad,2019_Nov_21_1235,AdjustExp1,3.1.5,60.02101864,Experiment
108,Stimuli/Morph108.JPG,Stimuli/Morph108.png,Stimuli/BlurLevel5/BlurEditedMorph108,Stimuli/BlurLevel5/BlurEditedMorph108.png,Stimuli/BlurLevel5/NumberedMorphs/BlurEditedMorph108.png,Stimuli/BlurLevel5/OriginalBlur/BlurEditedMorph108.png,Stimuli/BlurMorphTrio/EditedMorph108.png,None,None,1,0,1,0,0,74,74,107,,,79,2,75,315,1.767766953,-1.767766953,108,919.8217433,920.3211014,919.8217433,920.3211014,95.91836735,1574369431,1574369434,3.016794205,81,105,3,3,1574369429,1574369431,,,SS,1,20,F,Undergrad,2019_Nov_21_1235,AdjustExp1,3.1.5,60.02101864,Experiment
123,Stimuli/Morph123.JPG,Stimuli/Morph123.png,Stimuli/BlurLevel5/BlurEditedMorph123,Stimuli/BlurLevel5/BlurEditedMorph123.png,Stimuli/BlurLevel5/NumberedMorphs/BlurEditedMorph123.png,Stimuli/BlurLevel5/OriginalBlur/BlurEditedMorph123.png,Stimuli/BlurMorphTrio/EditedMorph123.png,None,None,1,0,1,0,0,75,75,122,,,4,2,76,56,1.397982259,2.072593931,123,925.7379875,926.237548,925.7379875,926.237548,86.39455782,1574369437,1574369440,3.066607714,94,113,10,10,1574369434,1574369437,,,SS,1,20,F,Undergrad,2019_Nov_21_1235,AdjustExp1,3.1.5,60.02101864,Experiment
19,Stimuli/Morph19.JPG,Stimuli/Morph19.png,Stimuli/BlurLevel5/BlurEditedMorph19,Stimuli/BlurLevel5/BlurEditedMorph19.png,Stimuli/BlurLevel5/NumberedMorphs/BlurEditedMorph19.png,Stimuli/BlurLevel5/OriginalBlur/BlurEditedMorph19.png,Stimuli/BlurMorphTrio/EditedMorph19.png,010045right.gif,Stimuli/normal_thumbnails/19right.gif,1,0,1,0,0,76,76,18,,,10,2,77,323,1.996588775,-1.504537558,19,931.4368179,931.9378204,931.4368179,931.9378204,70.06802721,1574369443,1574369444,1.599549055,7,144,-125,22,1574369440,1574369443,,,SS,1,20,F,Undergrad,2019_Nov_21_1235,AdjustExp1,3.1.5,60.02101864,Experiment
89,Stimuli/Morph89.JPG,Stimuli/Morph89.png,Stimuli/BlurLevel5/BlurEditedMorph89,Stimuli/BlurLevel5/BlurEditedMorph89.png,Stimuli/BlurLevel5/NumberedMorphs/BlurEditedMorph89.png,Stimuli/BlurLevel5/OriginalBlur/BlurEditedMorph89.png,Stimuli/BlurMorphTrio/EditedMorph89.png,020273right.gif,Stimuli/normal_thumbnails/89right.gif,1,0,1,0,0,77,77,88,,,31,2,78,327,2.09667642,-1.361597588,89,935.8039568,936.3045082,935.8039568,936.3045082,53.7414966,1574369447,1574369452,4.63356328,88,123,-34,-34,1574369445,1574369447,,,SS,1,20,F,Undergrad,2019_Nov_21_1235,AdjustExp1,3.1.5,60.02101864,Experiment
67,Stimuli/Morph67.JPG,Stimuli/Morph67.png,Stimuli/BlurLevel5/BlurEditedMorph67,Stimuli/BlurLevel5/BlurEditedMorph67.png,Stimuli/BlurLevel5/NumberedMorphs/BlurEditedMorph67.png,Stimuli/BlurLevel5/OriginalBlur/BlurEditedMorph67.png,Stimuli/BlurMorphTrio/EditedMorph67.png,020217right.gif,Stimuli/normal_thumbnails/67right.gif,1,0,1,0,0,78,78,66,,,75,2,79,229,-1.640147572,-1.886773951,67,942.9042368,943.4038227,942.9042368,943.4038227,90.47619048,1574369454,1574369457,2.81663394,142,60,7,7,1574369452,1574369454,,,SS,1,20,F,Undergrad,2019_Nov_21_1235,AdjustExp1,3.1.5,60.02101864,Experiment
111,Stimuli/Morph111.JPG,Stimuli/Morph111.png,Stimuli/BlurLevel5/BlurEditedMorph111,Stimuli/BlurLevel5/BlurEditedMorph111.png,Stimuli/BlurLevel5/NumberedMorphs/BlurEditedMorph111.png,Stimuli/BlurLevel5/OriginalBlur/BlurEditedMorph111.png,Stimuli/BlurMorphTrio/EditedMorph111.png,None,None,1,0,1,0,0,79,79,110,,,72,2,80,2,2.498477068,0.087248742,111,948.3372009,948.8375104,948.3372009,948.8375104,71.42857143,1574369460,1574369462,1.95021081,17,90,21,21,1574369457,1574369460,,,SS,1,20,F,Undergrad,2019_Nov_21_1235,AdjustExp1,3.1.5,60.02101864,Experiment
102,Stimuli/Morph102.JPG,Stimuli/Morph102.png,Stimuli/BlurLevel5/BlurEditedMorph102,Stimuli/BlurLevel5/BlurEditedMorph102.png,Stimuli/BlurLevel5/NumberedMorphs/BlurEditedMorph102.png,Stimuli/BlurLevel5/OriginalBlur/BlurEditedMorph102.png,Stimuli/BlurMorphTrio/EditedMorph102.png,None,None,1,0,1,0,0,80,80,101,,,98,2,81,39,1.942864904,1.573300978,102,952.7909938,953.2872265,952.7909938,953.2872265,93.19727891,1574369464,1574369467,2.966829777,129,97,5,5,1574369462,1574369464,,,SS,1,20,F,Undergrad,2019_Nov_21_1235,AdjustExp1,3.1.5,60.02101864,Experiment
143,Stimuli/Morph143.JPG,Stimuli/Morph143.png,Stimuli/BlurLevel5/BlurEditedMorph143,Stimuli/BlurLevel5/BlurEditedMorph143.png,Stimuli/BlurLevel5/NumberedMorphs/BlurEditedMorph143.png,Stimuli/BlurLevel5/OriginalBlur/BlurEditedMorph143.png,Stimuli/BlurMorphTrio/EditedMorph143.png,None,None,1,0,1,0,0,81,81,142,,,13,2,82,61,1.212024051,2.186549268,143,958.7255301,959.2208668,958.7255301,959.2208668,64.62585034,1574369470,1574369474,4.415831804,9,22,121,-26,1574369467,1574369470,,,SS,1,20,F,Undergrad,2019_Nov_21_1235,AdjustExp1,3.1.5,60.02101864,Experiment
95,Stimuli/Morph95.JPG,Stimuli/Morph95.png,Stimuli/BlurLevel5/BlurEditedMorph95,Stimuli/BlurLevel5/BlurEditedMorph95.png,Stimuli/BlurLevel5/NumberedMorphs/BlurEditedMorph95.png,Stimuli/BlurLevel5/OriginalBlur/BlurEditedMorph95.png,Stimuli/BlurMorphTrio/EditedMorph95.png,020287right.gif,Stimuli/normal_thumbnails/95right.gif,1,0,1,0,0,82,82,94,,,48,2,83,34,2.072593931,1.397982259,95,965.441183,965.9377626,965.441183,965.9377626,94.55782313,1574369477,1574369479,2.25061202,45,99,-4,-4,1574369475,1574369477,,,SS,1,20,F,Undergrad,2019_Nov_21_1235,AdjustExp1,3.1.5,60.02101864,Experiment
91,Stimuli/Morph91.JPG,Stimuli/Morph91.png,Stimuli/BlurLevel5/BlurEditedMorph91,Stimuli/BlurLevel5/BlurEditedMorph91.png,Stimuli/BlurLevel5/NumberedMorphs/BlurEditedMorph91.png,Stimuli/BlurLevel5/OriginalBlur/BlurEditedMorph91.png,Stimuli/BlurMorphTrio/EditedMorph91.png,020276right.gif,Stimuli/normal_thumbnails/91right.gif,1,0,1,0,0,83,83,90,,,38,2,84,50,1.606969024,1.915111108,91,970.0873401,970.5871273,970.0873401,970.5871273,91.83673469,1574369481,1574369487,5.216310978,7,97,-6,-6,1574369479,1574369481,,,SS,1,20,F,Undergrad,2019_Nov_21_1235,AdjustExp1,3.1.5,60.02101864,Experiment
146,Stimuli/Morph146.JPG,Stimuli/Morph146.png,Stimuli/BlurLevel5/BlurEditedMorph146,Stimuli/BlurLevel5/BlurEditedMorph146.png,Stimuli/BlurLevel5/NumberedMorphs/BlurEditedMorph146.png,Stimuli/BlurLevel5/OriginalBlur/BlurEditedMorph146.png,Stimuli/BlurMorphTrio/EditedMorph146.png,None,None,1,0,1,0,0,84,84,145,,,46,2,85,302,1.324798161,-2.12012024,146,977.5707914,978.0707635,977.5707914,978.0707635,93.19727891,1574369489,1574369491,1.582339048,107,141,5,5,1574369487,1574369489,,,SS,1,20,F,Undergrad,2019_Nov_21_1235,AdjustExp1,3.1.5,60.02101864,Experiment
