stimulusID,stimulus_JPG,stimulusPath,stimulusPath2,stimulusPath3,stimulusPath4,stimulusPath5,stimulusPath6,xRayOriginal,xRayPath,Training.thisRepN,Training.thisTrialN,Training.thisN,Training.thisIndex,Blocks.thisRepN,Blocks.thisTrialN,Blocks.thisN,Blocks.thisIndex,Trials.thisRepN,Trials.thisTrialN,Trials.thisN,Trials.thisIndex,text_2.started,text_2.stopped,image.started,image.stopped,image_2.started,image_2.stopped,image_3.started,image_3.stopped,image_4.started,image_4.stopped,image_6.started,image_6.stopped,image_7.started,image_7.stopped,image_8.started,image_8.stopped,image_9.started,image_9.stopped,image_10.started,image_10.stopped,image_12.started,image_12.stopped,xrayID,trialNumber,blockNumber,stimLocationDeg,stimXCoord,stimYCoord,stimulusID,blockType,trainingXray.started,trainingXray.stopped,trainingTumors.started,trainingTumors.stopped,trainingScore%,startTrainingRespTime,endTrainingRespTime,trainingRT,morphTrack,morphID,errorRaw,errorCorrected,startTrainingStimTime,endTrainingStimTime,key_resp_3.keys,key_resp_3.rt,text.started,text.stopped,text_3.started,text_3.stopped,text_4.started,text_4.stopped,key_resp_5.keys,key_resp_5.rt,key_resp_5.started,key_resp_5.stopped,xray1.started,xray1.stopped,tumors.started,tumors.stopped,trialCorrect%,startRespTime,endRespTime,RT,startStimTime,endStimTime,key_resp.keys,key_resp.rt,participant,session,age,gender,status,date,expName,psychopyVersion,frameRate,
26,Stimuli/Morph26.JPG,Stimuli/Morph26.png,Stimuli/BlurLevel5/BlurEditedMorph26,Stimuli/BlurLevel5/BlurEditedMorph26.png,Stimuli/BlurLevel5/NumberedMorphs/BlurEditedMorph26.png,Stimuli/BlurLevel5/OriginalBlur/BlurEditedMorph26.png,Stimuli/BlurMorphTrio/EditedMorph26.png,010070right.gif,Stimuli/normal_thumbnails/26right.gif,0,0,0,25,,,,,,,,,34.72658729699833,None,34.72658729699833,None,34.72658729699833,None,34.72658729699833,None,34.72658729699833,None,34.72658729699833,None,34.72658729699833,None,34.72658729699833,None,34.72658729699833,None,34.72658729699833,None,34.72658729699833,None,28,-100,-100,120,-1.2499999999999996,2.1650635094610973,26,training,62.222648037997715,62.942622171998664,62.222648037997715,62.942622171998664,97.27891156462584,1591225015.785069,1591225018.517335,2.7322659492492676,49,24,2,2,1591225012.7984471,1591225015.768526,space,0.4944211059992085,,,,,,,,,,,,,,,,,,,,,,,TCB_GOOD,001,,,,2020_Jun_03_1556,AdjustEyeTrack,3.1.5,59.777409133309924,
126,Stimuli/Morph126.JPG,Stimuli/Morph126.png,Stimuli/BlurLevel5/BlurEditedMorph126,Stimuli/BlurLevel5/BlurEditedMorph126.png,Stimuli/BlurLevel5/NumberedMorphs/BlurEditedMorph126.png,Stimuli/BlurLevel5/OriginalBlur/BlurEditedMorph126.png,Stimuli/BlurMorphTrio/EditedMorph126.png,None,None,0,1,1,125,,,,,,,,,,,,,,,,,,,,,,,,,,,,,,,91,-100,-100,141,-1.9428649036424273,1.5733009776245934,126,training,68.86271524999756,69.56367668799794,68.86271524999756,69.56367668799794,100.0,1591225022.337621,1591225024.1336372,1.7960162162780762,131,126,0,0,1591225019.6013901,1591225022.3222778,space,1.6279765459985356,,,,,,,,,,,,,,,,,,,,,,,TCB_GOOD,001,,,,2020_Jun_03_1556,AdjustEyeTrack,3.1.5,59.777409133309924,
57,Stimuli/Morph57.JPG,Stimuli/Morph57.png,Stimuli/BlurLevel5/BlurEditedMorph57,Stimuli/BlurLevel5/BlurEditedMorph57.png,Stimuli/BlurLevel5/NumberedMorphs/BlurEditedMorph57.png,Stimuli/BlurLevel5/OriginalBlur/BlurEditedMorph57.png,Stimuli/BlurMorphTrio/EditedMorph57.png,010158right.gif,Stimuli/normal_thumbnails/57right.gif,0,2,2,56,,,,,,,,,,,,,,,,,,,,,,,,,,,,,,,94,-100,-100,359,2.499619237890978,-0.0436310160932089,57,training,75.7430411619971,76.46346198799802,75.7430411619971,76.46346198799802,91.83673469387756,1591225029.234563,1591225033.867232,4.632668972015381,109,63,-6,-6,1591225026.318979,1591225029.219813,space,0.510599588000332,,,,,,,,,,,,,,,,,,,,,,,TCB_GOOD,001,,,,2020_Jun_03_1556,AdjustEyeTrack,3.1.5,59.777409133309924,
50,Stimuli/Morph50.JPG,Stimuli/Morph50.png,Stimuli/BlurLevel5/BlurEditedMorph50,Stimuli/BlurLevel5/BlurEditedMorph50.png,Stimuli/BlurLevel5/NumberedMorphs/BlurEditedMorph50.png,Stimuli/BlurLevel5/OriginalBlur/BlurEditedMorph50.png,Stimuli/BlurMorphTrio/EditedMorph50.png,010142right.gif,Stimuli/normal_thumbnails/50right.gif,0,3,3,49,,,,,,,,,,,,,,,,,,,,,,,,,,,,,,,10,-100,-100,253,-0.7309292618068426,-2.3907618899075884,50,training,84.32674513599704,85.02577014599956,84.32674513599704,85.02577014599956,98.63945578231292,1591225037.819157,1591225040.333874,2.5147171020507812,87,51,-1,-1,1591225035.085394,1591225037.805917,space,0.972553258001426,,,,,,,,,,,,,,,,,,,,,,,TCB_GOOD,001,,,,2020_Jun_03_1556,AdjustEyeTrack,3.1.5,59.777409133309924,
68,Stimuli/Morph68.JPG,Stimuli/Morph68.png,Stimuli/BlurLevel5/BlurEditedMorph68,Stimuli/BlurLevel5/BlurEditedMorph68.png,Stimuli/BlurLevel5/NumberedMorphs/BlurEditedMorph68.png,Stimuli/BlurLevel5/OriginalBlur/BlurEditedMorph68.png,Stimuli/BlurMorphTrio/EditedMorph68.png,020218right.gif,Stimuli/normal_thumbnails/68right.gif,0,4,4,67,,,,,,,,,,,,,,,,,,,,,,,,,,,,,,,33,-100,-100,49,1.6401475724762684,1.8867739505569299,68,training,91.19260848900012,91.89657151799838,91.19260848900012,91.89657151799838,40.136054421768705,1591225044.65045,1591225048.167061,3.516611099243164,95,112,-44,-44,1591225041.952054,1591225044.626226,space,0.6837763419971452,,,,,,,,,,,,,,,,,,,,,,,TCB_GOOD,001,,,,2020_Jun_03_1556,AdjustEyeTrack,3.1.5,59.777409133309924,
121,Stimuli/Morph121.JPG,Stimuli/Morph121.png,Stimuli/BlurLevel5/BlurEditedMorph121,Stimuli/BlurLevel5/BlurEditedMorph121.png,Stimuli/BlurLevel5/NumberedMorphs/BlurEditedMorph121.png,Stimuli/BlurLevel5/OriginalBlur/BlurEditedMorph121.png,Stimuli/BlurMorphTrio/EditedMorph121.png,None,None,0,5,5,120,,,,,,,,,,,,,,,,,,,,,,,,,,,,,,,4,-100,-100,137,-1.828384254047926,1.7049959001562462,121,training,99.1036805679978,99.82565451199844,99.1036805679978,99.82565451199844,93.19727891156462,1591225052.578953,1591225055.4673028,2.888349771499634,38,116,5,5,1591225049.587498,1591225052.555428,space,0.5417118149998714,,,,,,,,,,,,,,,,,,,,,,,TCB_GOOD,001,,,,2020_Jun_03_1556,AdjustEyeTrack,3.1.5,59.777409133309924,
39,Stimuli/Morph39.JPG,Stimuli/Morph39.png,Stimuli/BlurLevel5/BlurEditedMorph39,Stimuli/BlurLevel5/BlurEditedMorph39.png,Stimuli/BlurLevel5/NumberedMorphs/BlurEditedMorph39.png,Stimuli/BlurLevel5/OriginalBlur/BlurEditedMorph39.png,Stimuli/BlurMorphTrio/EditedMorph39.png,010109right.gif,Stimuli/normal_thumbnails/39right.gif,0,6,6,38,,,,,,,,,,,,,,,,,,,,,,,,,,,,,,,28,-100,-100,79,0.4770224884413623,2.45406795861916,39,training,105.97848099600014,106.70523203499761,105.97848099600014,106.70523203499761,95.91836734693877,1591225059.518212,1591225061.650223,2.1320109367370605,106,42,-3,-3,1591225056.685168,1591225059.497171,space,0.7763406560006842,,,,,,,,,,,,,,,,,,,,,,,TCB_GOOD,001,,,,2020_Jun_03_1556,AdjustEyeTrack,3.1.5,59.777409133309924,
74,Stimuli/Morph74.JPG,Stimuli/Morph74.png,Stimuli/BlurLevel5/BlurEditedMorph74,Stimuli/BlurLevel5/BlurEditedMorph74.png,Stimuli/BlurLevel5/NumberedMorphs/BlurEditedMorph74.png,Stimuli/BlurLevel5/OriginalBlur/BlurEditedMorph74.png,Stimuli/BlurMorphTrio/EditedMorph74.png,020232right.gif,Stimuli/normal_thumbnails/74right.gif,0,7,7,73,,,,,,,,,,,,,,,,,,,,,,,,,,,,,,,3,-100,-100,142,-1.9700268840168047,1.539153688314146,74,training,112.4447878869978,113.1752187739985,112.4447878869978,113.1752187739985,98.63945578231292,1591225065.967378,1591225068.767502,2.800124168395996,67,73,1,1,1591225063.101534,1591225065.943455,space,0.5400566259995685,,,,,,,,,,,,,,,,,,,,,,,TCB_GOOD,001,,,,2020_Jun_03_1556,AdjustEyeTrack,3.1.5,59.777409133309924,
119,Stimuli/Morph119.JPG,Stimuli/Morph119.png,Stimuli/BlurLevel5/BlurEditedMorph119,Stimuli/BlurLevel5/BlurEditedMorph119.png,Stimuli/BlurLevel5/NumberedMorphs/BlurEditedMorph119.png,Stimuli/BlurLevel5/OriginalBlur/BlurEditedMorph119.png,Stimuli/BlurMorphTrio/EditedMorph119.png,None,None,0,8,8,118,,,,,,,,,,,,,,,,,,,,,,,,,,,,,,,63,-100,-100,113,-0.9768278212231846,2.3012621336311008,119,training,119.29662856699724,119.99538242899871,119.29662856699724,119.99538242899871,72.7891156462585,1591225072.82011,1591225075.46701,2.646899938583374,74,99,20,20,1591225070.003975,1591225072.804872,space,0.5908656030005659,,,,,,,,,,,,,,,,,,,,,,,TCB_GOOD,001,,,,2020_Jun_03_1556,AdjustEyeTrack,3.1.5,59.777409133309924,
8,Stimuli/Morph8.JPG,Stimuli/Morph8.png,Stimuli/BlurLevel5/BlurEditedMorph8,Stimuli/BlurLevel5/BlurEditedMorph8.png,Stimuli/BlurLevel5/NumberedMorphs/BlurEditedMorph8.png,Stimuli/BlurLevel5/OriginalBlur/BlurEditedMorph8.png,Stimuli/BlurMorphTrio/EditedMorph8.png,010014right.gif,Stimuli/normal_thumbnails/8right.gif,0,9,9,7,,,,,,,,,,,,,,,,,,,,,,,,,,,,,,,15,-100,-100,124,-1.3979822586768667,2.0725939313876047,8,training,126.00208891099828,126.69287698599874,126.00208891099828,126.69287698599874,75.51020408163265,1591225079.512533,1591225082.134619,2.6220860481262207,31,137,-129,18,1591225076.735748,1591225079.487388,space,0.5616656339989277,,,,,,,,,,,,,,,,,,,,,,,TCB_GOOD,001,,,,2020_Jun_03_1556,AdjustEyeTrack,3.1.5,59.777409133309924,
,,,,,,,,,,,,,,,,,,,,,,,,,,,,,,,,,,,,,,,,,,,,,-100,-100,,,,,training,,,,,,,,,,,,,,,,,132.42629333799778,None,132.42629333799778,None,132.42629333799778,None,space,6.67761759700079,132.42629333799778,None,,,,,,,,,,,,,TCB_GOOD,001,,,,2020_Jun_03_1556,AdjustEyeTrack,3.1.5,59.777409133309924,
81,Stimuli/Morph81.JPG,Stimuli/Morph81.png,Stimuli/BlurLevel5/BlurEditedMorph81,Stimuli/BlurLevel5/BlurEditedMorph81.png,Stimuli/BlurLevel5/NumberedMorphs/BlurEditedMorph81.png,Stimuli/BlurLevel5/OriginalBlur/BlurEditedMorph81.png,Stimuli/BlurMorphTrio/EditedMorph81.png,020245right.gif,Stimuli/normal_thumbnails/81right.gif,,,,,0,0,0,0,0,0,0,80,,,,,,,,,,,,,,,,,,,,,,,72,1,1,142,-1.9700268840168047,1.539153688314146,81,Experiment,,,,,,,,,82,86,-5,-5,,,,,,,,,,,,,,,140.59954736999862,141.34192532199813,140.59954736999862,141.34192532199813,93.19727891156462,1591225094.184163,1591225095.867286,1.6831228733062744,1591225091.18433,1591225094.158303,,,TCB_GOOD,001,,,,2020_Jun_03_1556,AdjustEyeTrack,3.1.5,59.777409133309924,
50,Stimuli/Morph50.JPG,Stimuli/Morph50.png,Stimuli/BlurLevel5/BlurEditedMorph50,Stimuli/BlurLevel5/BlurEditedMorph50.png,Stimuli/BlurLevel5/NumberedMorphs/BlurEditedMorph50.png,Stimuli/BlurLevel5/OriginalBlur/BlurEditedMorph50.png,Stimuli/BlurMorphTrio/EditedMorph50.png,010142right.gif,Stimuli/normal_thumbnails/50right.gif,,,,,0,0,0,0,0,1,1,49,,,,,,,,,,,,,,,,,,,,,,,42,2,1,247,-0.9768278212231846,-2.3012621336311008,50,Experiment,,,,,,,,,46,47,3,3,,,,,,,,,,,,,,,146.04971955299698,146.77718106999964,146.04971955299698,146.77718106999964,95.91836734693877,1591225099.6353111,1591225100.849461,1.2141499519348145,1591225096.383939,1591225099.610836,,,TCB_GOOD,001,,,,2020_Jun_03_1556,AdjustEyeTrack,3.1.5,59.777409133309924,
77,Stimuli/Morph77.JPG,Stimuli/Morph77.png,Stimuli/BlurLevel5/BlurEditedMorph77,Stimuli/BlurLevel5/BlurEditedMorph77.png,Stimuli/BlurLevel5/NumberedMorphs/BlurEditedMorph77.png,Stimuli/BlurLevel5/OriginalBlur/BlurEditedMorph77.png,Stimuli/BlurMorphTrio/EditedMorph77.png,020235right.gif,Stimuli/normal_thumbnails/77right.gif,,,,,0,0,0,0,0,2,2,76,,,,,,,,,,,,,,,,,,,,,,,9,3,1,65,1.0565456543517486,2.2657694675916247,77,Experiment,,,,,,,,,97,81,-4,-4,,,,,,,,,,,,,,,150.47559541900046,151.1984964080002,150.47559541900046,151.1984964080002,94.5578231292517,1591225104.053581,1591225106.084906,2.031325101852417,1591225101.3674119,1591225104.0359051,,,TCB_GOOD,001,,,,2020_Jun_03_1556,AdjustEyeTrack,3.1.5,59.777409133309924,
145,Stimuli/Morph145.JPG,Stimuli/Morph145.png,Stimuli/BlurLevel5/BlurEditedMorph145,Stimuli/BlurLevel5/BlurEditedMorph145.png,Stimuli/BlurLevel5/NumberedMorphs/BlurEditedMorph145.png,Stimuli/BlurLevel5/OriginalBlur/BlurEditedMorph145.png,Stimuli/BlurMorphTrio/EditedMorph145.png,None,None,,,,,0,0,0,0,0,3,3,144,,,,,,,,,,,,,,,,,,,,,,,3,4,1,220,-1.9151111077974452,-1.6069690242163481,145,Experiment,,,,,,,,,21,125,20,20,,,,,,,,,,,,,,,155.97472474099777,156.74158422099936,155.97472474099777,156.74158422099936,72.7891156462585,1591225109.586709,1591225112.569098,2.982388973236084,1591225106.600536,1591225109.568303,,,TCB_GOOD,001,,,,2020_Jun_03_1556,AdjustEyeTrack,3.1.5,59.777409133309924,
119,Stimuli/Morph119.JPG,Stimuli/Morph119.png,Stimuli/BlurLevel5/BlurEditedMorph119,Stimuli/BlurLevel5/BlurEditedMorph119.png,Stimuli/BlurLevel5/NumberedMorphs/BlurEditedMorph119.png,Stimuli/BlurLevel5/OriginalBlur/BlurEditedMorph119.png,Stimuli/BlurMorphTrio/EditedMorph119.png,None,None,,,,,0,0,0,0,0,4,4,118,,,,,,,,,,,,,,,,,,,,,,,60,5,1,165,-2.4148145657226703,0.6470476127563025,119,Experiment,,,,,,,,,91,103,16,16,,,,,,,,,,,,,,,162.75827599900003,163.47781598099755,162.75827599900003,163.47781598099755,78.2312925170068,1591225116.301205,1591225119.236369,2.935163974761963,1591225113.08361,1591225116.2872581,,,TCB_GOOD,001,,,,2020_Jun_03_1556,AdjustEyeTrack,3.1.5,59.777409133309924,
64,Stimuli/Morph64.JPG,Stimuli/Morph64.png,Stimuli/BlurLevel5/BlurEditedMorph64,Stimuli/BlurLevel5/BlurEditedMorph64.png,Stimuli/BlurLevel5/NumberedMorphs/BlurEditedMorph64.png,Stimuli/BlurLevel5/OriginalBlur/BlurEditedMorph64.png,Stimuli/BlurMorphTrio/EditedMorph64.png,020208right.gif,Stimuli/normal_thumbnails/64right.gif,,,,,0,0,0,0,0,5,5,63,,,,,,,,,,,,,,,,,,,,,,,59,6,1,101,-0.477022488441362,2.45406795861916,64,Experiment,,,,,,,,,34,66,-2,-2,,,,,,,,,,,,,,,168.96889470899987,169.7023951939991,168.96889470899987,169.7023951939991,97.27891156462584,1591225122.5670679,1591225124.7379022,2.1708343029022217,1591225119.750248,1591225122.546696,,,TCB_GOOD,001,,,,2020_Jun_03_1556,AdjustEyeTrack,3.1.5,59.777409133309924,
124,Stimuli/Morph124.JPG,Stimuli/Morph124.png,Stimuli/BlurLevel5/BlurEditedMorph124,Stimuli/BlurLevel5/BlurEditedMorph124.png,Stimuli/BlurLevel5/NumberedMorphs/BlurEditedMorph124.png,Stimuli/BlurLevel5/OriginalBlur/BlurEditedMorph124.png,Stimuli/BlurMorphTrio/EditedMorph124.png,None,None,,,,,0,0,0,0,0,6,6,123,,,,,,,,,,,,,,,,,,,,,,,95,7,1,3,2.4965738368864345,0.1308398906073596,124,Experiment,,,,,,,,,106,127,-3,-3,,,,,,,,,,,,,,,175.0791646079997,175.83188808299747,175.0791646079997,175.83188808299747,95.91836734693877,1591225128.666783,1591225130.586271,1.9194879531860352,1591225125.250644,1591225128.643954,,,TCB_GOOD,001,,,,2020_Jun_03_1556,AdjustEyeTrack,3.1.5,59.777409133309924,
7,Stimuli/Morph7.JPG,Stimuli/Morph7.png,Stimuli/BlurLevel5/BlurEditedMorph7,Stimuli/BlurLevel5/BlurEditedMorph7.png,Stimuli/BlurLevel5/NumberedMorphs/BlurEditedMorph7.png,Stimuli/BlurLevel5/OriginalBlur/BlurEditedMorph7.png,Stimuli/BlurMorphTrio/EditedMorph7.png,010013right.gif,Stimuli/normal_thumbnails/7right.gif,,,,,0,0,0,0,0,7,7,6,,,,,,,,,,,,,,,,,,,,,,,89,8,1,0,2.5,0.0,7,Experiment,,,,,,,,,100,1,6,6,,,,,,,,,,,,,,,180.6767700950004,181.42660460999832,180.6767700950004,181.42660460999832,91.83673469387756,1591225134.268862,1591225136.9714382,2.702576160430908,1591225131.134449,1591225134.2543418,,,TCB_GOOD,001,,,,2020_Jun_03_1556,AdjustEyeTrack,3.1.5,59.777409133309924,
18,Stimuli/Morph18.JPG,Stimuli/Morph18.png,Stimuli/BlurLevel5/BlurEditedMorph18,Stimuli/BlurLevel5/BlurEditedMorph18.png,Stimuli/BlurLevel5/NumberedMorphs/BlurEditedMorph18.png,Stimuli/BlurLevel5/OriginalBlur/BlurEditedMorph18.png,Stimuli/BlurMorphTrio/EditedMorph18.png,010039right.gif,Stimuli/normal_thumbnails/18right.gif,,,,,0,0,0,0,0,8,8,17,,,,,,,,,,,,,,,,,,,,,,,11,9,1,183,-2.4965738368864345,-0.1308398906073589,18,Experiment,,,,,,,,,83,144,-126,21,,,,,,,,,,,,,,,187.95594840400008,188.69774920599957,187.95594840400008,188.69774920599957,71.42857142857143,1591225141.534258,1591225143.652954,2.1186962127685547,1591225137.484087,1591225141.5176032,,,TCB_GOOD,001,,,,2020_Jun_03_1556,AdjustEyeTrack,3.1.5,59.777409133309924,
103,Stimuli/Morph103.JPG,Stimuli/Morph103.png,Stimuli/BlurLevel5/BlurEditedMorph103,Stimuli/BlurLevel5/BlurEditedMorph103.png,Stimuli/BlurLevel5/NumberedMorphs/BlurEditedMorph103.png,Stimuli/BlurLevel5/OriginalBlur/BlurEditedMorph103.png,Stimuli/BlurMorphTrio/EditedMorph103.png,None,None,,,,,0,0,0,0,0,9,9,102,,,,,,,,,,,,,,,,,,,,,,,64,10,1,13,2.435925161963088,0.5623776358596625,103,Experiment,,,,,,,,,12,94,9,9,,,,,,,,,,,,,,,194.05119333299808,194.79062465499737,194.05119333299808,194.79062465499737,87.75510204081633,1591225147.653041,1591225149.552303,1.8992621898651123,1591225144.168749,1591225147.635329,,,TCB_GOOD,001,,,,2020_Jun_03_1556,AdjustEyeTrack,3.1.5,59.777409133309924,
126,Stimuli/Morph126.JPG,Stimuli/Morph126.png,Stimuli/BlurLevel5/BlurEditedMorph126,Stimuli/BlurLevel5/BlurEditedMorph126.png,Stimuli/BlurLevel5/NumberedMorphs/BlurEditedMorph126.png,Stimuli/BlurLevel5/OriginalBlur/BlurEditedMorph126.png,Stimuli/BlurMorphTrio/EditedMorph126.png,None,None,,,,,0,0,0,0,0,10,10,125,,,,,,,,,,,,,,,,,,,,,,,50,11,1,255,-0.6470476127563016,-2.4148145657226707,126,Experiment,,,,,,,,,12,125,1,1,,,,,,,,,,,,,,,200.19341834599982,200.92511545099842,200.19341834599982,200.92511545099842,98.63945578231292,1591225153.767019,1591225156.352164,2.5851449966430664,1591225150.068361,1591225153.743231,,,TCB_GOOD,001,,,,2020_Jun_03_1556,AdjustEyeTrack,3.1.5,59.777409133309924,
137,Stimuli/Morph137.JPG,Stimuli/Morph137.png,Stimuli/BlurLevel5/BlurEditedMorph137,Stimuli/BlurLevel5/BlurEditedMorph137.png,Stimuli/BlurLevel5/NumberedMorphs/BlurEditedMorph137.png,Stimuli/BlurLevel5/OriginalBlur/BlurEditedMorph137.png,Stimuli/BlurMorphTrio/EditedMorph137.png,None,None,,,,,0,0,0,0,0,11,11,136,,,,,,,,,,,,,,,,,,,,,,,81,12,1,95,-0.2178893568691456,2.4904867452293638,137,Experiment,,,,,,,,,89,142,-5,-5,,,,,,,,,,,,,,,206.52483610299896,207.2341778459995,206.52483610299896,207.2341778459995,93.19727891156462,1591225160.0872772,1591225164.182645,4.095367908477783,1591225156.8669848,1591225160.0717099,,,TCB_GOOD,001,,,,2020_Jun_03_1556,AdjustEyeTrack,3.1.5,59.777409133309924,
106,Stimuli/Morph106.JPG,Stimuli/Morph106.png,Stimuli/BlurLevel5/BlurEditedMorph106,Stimuli/BlurLevel5/BlurEditedMorph106.png,Stimuli/BlurLevel5/NumberedMorphs/BlurEditedMorph106.png,Stimuli/BlurLevel5/OriginalBlur/BlurEditedMorph106.png,Stimuli/BlurMorphTrio/EditedMorph106.png,None,None,,,,,0,0,0,0,0,12,12,105,,,,,,,,,,,,,,,,,,,,,,,56,13,1,145,-2.0478801107224798,1.433941090877615,106,Experiment,,,,,,,,,61,96,10,10,,,,,,,,,,,,,,,215.44704652399741,216.1754119010002,215.44704652399741,216.1754119010002,86.39455782312925,1591225169.035553,1591225170.285426,1.2498729228973389,1591225164.699987,1591225169.01567,,,TCB_GOOD,001,,,,2020_Jun_03_1556,AdjustEyeTrack,3.1.5,59.777409133309924,
20,Stimuli/Morph20.JPG,Stimuli/Morph20.png,Stimuli/BlurLevel5/BlurEditedMorph20,Stimuli/BlurLevel5/BlurEditedMorph20.png,Stimuli/BlurLevel5/NumberedMorphs/BlurEditedMorph20.png,Stimuli/BlurLevel5/OriginalBlur/BlurEditedMorph20.png,Stimuli/BlurMorphTrio/EditedMorph20.png,010046right.gif,Stimuli/normal_thumbnails/20right.gif,,,,,0,0,0,0,0,13,13,19,,,,,,,,,,,,,,,,,,,,,,,80,14,1,358,2.4984770675477392,-0.08724874175625204,20,Experiment,,,,,,,,,99,18,2,2,,,,,,,,,,,,,,,220.28779313999985,221.02945839200038,220.28779313999985,221.02945839200038,97.27891156462584,1591225173.886933,1591225175.965569,2.0786359310150146,1591225170.801256,1591225173.870775,,,TCB_GOOD,001,,,,2020_Jun_03_1556,AdjustEyeTrack,3.1.5,59.777409133309924,
53,Stimuli/Morph53.JPG,Stimuli/Morph53.png,Stimuli/BlurLevel5/BlurEditedMorph53,Stimuli/BlurLevel5/BlurEditedMorph53.png,Stimuli/BlurLevel5/NumberedMorphs/BlurEditedMorph53.png,Stimuli/BlurLevel5/OriginalBlur/BlurEditedMorph53.png,Stimuli/BlurMorphTrio/EditedMorph53.png,010149right.gif,Stimuli/normal_thumbnails/53right.gif,,,,,0,0,0,0,0,14,14,52,,,,,,,,,,,,,,,,,,,,,,,29,15,1,285,0.6470476127563007,-2.414814565722671,53,Experiment,,,,,,,,,139,49,4,4,,,,,,,,,,,,,,,226.29534917599813,227.0755276029995,226.29534917599813,227.0755276029995,94.5578231292517,1591225179.950728,1591225183.549579,3.598850965499878,1591225176.483136,1591225179.9276822,,,TCB_GOOD,001,,,,2020_Jun_03_1556,AdjustEyeTrack,3.1.5,59.777409133309924,
94,Stimuli/Morph94.JPG,Stimuli/Morph94.png,Stimuli/BlurLevel5/BlurEditedMorph94,Stimuli/BlurLevel5/BlurEditedMorph94.png,Stimuli/BlurLevel5/NumberedMorphs/BlurEditedMorph94.png,Stimuli/BlurLevel5/OriginalBlur/BlurEditedMorph94.png,Stimuli/BlurMorphTrio/EditedMorph94.png,020286right.gif,Stimuli/normal_thumbnails/94right.gif,,,,,0,0,0,0,0,15,15,93,,,,,,,,,,,,,,,,,,,,,,,88,16,1,77,0.5623776358596623,2.435925161963088,94,Experiment,,,,,,,,,109,104,-10,-10,,,,,,,,,,,,,,,233.7020116809981,234.4485859239976,233.7020116809981,234.4485859239976,86.39455782312925,1591225187.3335612,1591225189.1333098,1.7997486591339111,1591225184.066238,1591225187.3125708,,,TCB_GOOD,001,,,,2020_Jun_03_1556,AdjustEyeTrack,3.1.5,59.777409133309924,
14,Stimuli/Morph14.JPG,Stimuli/Morph14.png,Stimuli/BlurLevel5/BlurEditedMorph14,Stimuli/BlurLevel5/BlurEditedMorph14.png,Stimuli/BlurLevel5/NumberedMorphs/BlurEditedMorph14.png,Stimuli/BlurLevel5/OriginalBlur/BlurEditedMorph14.png,Stimuli/BlurMorphTrio/EditedMorph14.png,010030right.gif,Stimuli/normal_thumbnails/14right.gif,,,,,0,0,0,0,0,16,16,13,,,,,,,,,,,,,,,,,,,,,,,49,17,1,42,1.8578620636934855,1.6728265158971456,14,Experiment,,,,,,,,,76,8,6,6,,,,,,,,,,,,,,,239.34061325699804,240.0698540029989,239.34061325699804,240.0698540029989,91.83673469387756,1591225192.933495,1591225195.1156201,2.1821250915527344,1591225189.733027,1591225192.91628,,,TCB_GOOD,001,,,,2020_Jun_03_1556,AdjustEyeTrack,3.1.5,59.777409133309924,
86,Stimuli/Morph86.JPG,Stimuli/Morph86.png,Stimuli/BlurLevel5/BlurEditedMorph86,Stimuli/BlurLevel5/BlurEditedMorph86.png,Stimuli/BlurLevel5/NumberedMorphs/BlurEditedMorph86.png,Stimuli/BlurLevel5/OriginalBlur/BlurEditedMorph86.png,Stimuli/BlurMorphTrio/EditedMorph86.png,020266right.gif,Stimuli/normal_thumbnails/86right.gif,,,,,0,0,0,0,0,17,17,85,,,,,,,,,,,,,,,,,,,,,,,10,18,1,241,-1.2120240506158422,-2.1865492678484895,86,Experiment,,,,,,,,,107,89,-3,-3,,,,,,,,,,,,,,,245.14831899499768,245.901362933997,245.14831899499768,245.901362933997,95.91836734693877,1591225198.8005278,1591225201.6152341,2.814706325531006,1591225195.652832,1591225198.773131,,,TCB_GOOD,001,,,,2020_Jun_03_1556,AdjustEyeTrack,3.1.5,59.777409133309924,
84,Stimuli/Morph84.JPG,Stimuli/Morph84.png,Stimuli/BlurLevel5/BlurEditedMorph84,Stimuli/BlurLevel5/BlurEditedMorph84.png,Stimuli/BlurLevel5/NumberedMorphs/BlurEditedMorph84.png,Stimuli/BlurLevel5/OriginalBlur/BlurEditedMorph84.png,Stimuli/BlurMorphTrio/EditedMorph84.png,020261right.gif,Stimuli/normal_thumbnails/84right.gif,,,,,0,0,0,0,0,18,18,83,,,,,,,,,,,,,,,,,,,,,,,25,19,1,113,-0.9768278212231846,2.3012621336311008,84,Experiment,,,,,,,,,7,87,-3,-3,,,,,,,,,,,,,,,251.63129018499967,252.3733396280004,251.63129018499967,252.3733396280004,95.91836734693877,1591225205.250677,1591225208.731924,3.4812469482421875,1591225202.1331651,1591225205.226583,,,TCB_GOOD,001,,,,2020_Jun_03_1556,AdjustEyeTrack,3.1.5,59.777409133309924,
51,Stimuli/Morph51.JPG,Stimuli/Morph51.png,Stimuli/BlurLevel5/BlurEditedMorph51,Stimuli/BlurLevel5/BlurEditedMorph51.png,Stimuli/BlurLevel5/NumberedMorphs/BlurEditedMorph51.png,Stimuli/BlurLevel5/OriginalBlur/BlurEditedMorph51.png,Stimuli/BlurMorphTrio/EditedMorph51.png,010146right.gif,Stimuli/normal_thumbnails/51right.gif,,,,,0,0,0,0,0,19,19,50,,,,,,,,,,,,,,,,,,,,,,,58,20,1,172,-2.475670171853926,0.34793275240016325,51,Experiment,,,,,,,,,94,46,5,5,,,,,,,,,,,,,,,258.8918974449989,259.6249043559983,258.8918974449989,259.6249043559983,93.19727891156462,1591225212.4866502,1591225216.866286,4.379635810852051,1591225209.250108,1591225212.4712691,,,TCB_GOOD,001,,,,2020_Jun_03_1556,AdjustEyeTrack,3.1.5,59.777409133309924,
75,Stimuli/Morph75.JPG,Stimuli/Morph75.png,Stimuli/BlurLevel5/BlurEditedMorph75,Stimuli/BlurLevel5/BlurEditedMorph75.png,Stimuli/BlurLevel5/NumberedMorphs/BlurEditedMorph75.png,Stimuli/BlurLevel5/OriginalBlur/BlurEditedMorph75.png,Stimuli/BlurMorphTrio/EditedMorph75.png,020233right.gif,Stimuli/normal_thumbnails/75right.gif,,,,,0,0,0,0,0,20,20,74,,,,,,,,,,,,,,,,,,,,,,,33,21,1,188,-2.475670171853926,-0.3479327524001638,75,Experiment,,,,,,,,,5,80,-5,-5,,,,,,,,,,,,,,,267.63036806200034,268.3754693150004,267.63036806200034,268.3754693150004,93.19727891156462,1591225221.252678,1591225224.199415,2.946737051010132,1591225217.3832011,1591225221.2337668,,,TCB_GOOD,001,,,,2020_Jun_03_1556,AdjustEyeTrack,3.1.5,59.777409133309924,
87,Stimuli/Morph87.JPG,Stimuli/Morph87.png,Stimuli/BlurLevel5/BlurEditedMorph87,Stimuli/BlurLevel5/BlurEditedMorph87.png,Stimuli/BlurLevel5/NumberedMorphs/BlurEditedMorph87.png,Stimuli/BlurLevel5/OriginalBlur/BlurEditedMorph87.png,Stimuli/BlurMorphTrio/EditedMorph87.png,020270right.gif,Stimuli/normal_thumbnails/87right.gif,,,,,0,0,0,0,0,21,21,86,,,,,,,,,,,,,,,,,,,,,,,85,22,1,20,2.3492315519647713,0.8550503583141718,87,Experiment,,,,,,,,,34,83,4,4,,,,,,,,,,,,,,,274.77623874599885,275.52925871299885,274.77623874599885,275.52925871299885,94.5578231292517,1591225228.401268,1591225230.851604,2.45033597946167,1591225224.7163332,1591225228.384165,,,TCB_GOOD,001,,,,2020_Jun_03_1556,AdjustEyeTrack,3.1.5,59.777409133309924,
66,Stimuli/Morph66.JPG,Stimuli/Morph66.png,Stimuli/BlurLevel5/BlurEditedMorph66,Stimuli/BlurLevel5/BlurEditedMorph66.png,Stimuli/BlurLevel5/NumberedMorphs/BlurEditedMorph66.png,Stimuli/BlurLevel5/OriginalBlur/BlurEditedMorph66.png,Stimuli/BlurMorphTrio/EditedMorph66.png,020212right.gif,Stimuli/normal_thumbnails/66right.gif,,,,,0,0,0,0,0,22,22,65,,,,,,,,,,,,,,,,,,,,,,,15,23,1,23,2.3012621336311008,0.9768278212231845,66,Experiment,,,,,,,,,88,40,26,26,,,,,,,,,,,,,,,280.8804082209972,281.60213682799804,280.8804082209972,281.60213682799804,64.62585034013605,1591225234.483528,1591225237.232903,2.749375104904175,1591225231.36831,1591225234.468572,,,TCB_GOOD,001,,,,2020_Jun_03_1556,AdjustEyeTrack,3.1.5,59.777409133309924,
144,Stimuli/Morph144.JPG,Stimuli/Morph144.png,Stimuli/BlurLevel5/BlurEditedMorph144,Stimuli/BlurLevel5/BlurEditedMorph144.png,Stimuli/BlurLevel5/NumberedMorphs/BlurEditedMorph144.png,Stimuli/BlurLevel5/OriginalBlur/BlurEditedMorph144.png,Stimuli/BlurMorphTrio/EditedMorph144.png,None,None,,,,,0,0,0,0,0,23,23,143,,,,,,,,,,,,,,,,,,,,,,,42,24,1,220,-1.9151111077974452,-1.6069690242163481,144,Experiment,,,,,,,,,143,145,-1,-1,,,,,,,,,,,,,,,287.80484553899805,288.5577991769969,287.80484553899805,288.5577991769969,98.63945578231292,1591225241.4333131,1591225243.7825541,2.349241018295288,1591225237.7672262,1591225241.416527,,,TCB_GOOD,001,,,,2020_Jun_03_1556,AdjustEyeTrack,3.1.5,59.777409133309924,
97,Stimuli/Morph97.JPG,Stimuli/Morph97.png,Stimuli/BlurLevel5/BlurEditedMorph97,Stimuli/BlurLevel5/BlurEditedMorph97.png,Stimuli/BlurLevel5/NumberedMorphs/BlurEditedMorph97.png,Stimuli/BlurLevel5/OriginalBlur/BlurEditedMorph97.png,Stimuli/BlurMorphTrio/EditedMorph97.png,020294right.gif,Stimuli/normal_thumbnails/97right.gif,,,,,0,0,0,0,0,24,24,96,,,,,,,,,,,,,,,,,,,,,,,85,25,1,51,1.5733009776245939,1.942864903642427,97,Experiment,,,,,,,,,49,102,-5,-5,,,,,,,,,,,,,,,293.72572323299755,294.4562352969988,293.72572323299755,294.4562352969988,93.19727891156462,1591225247.335814,1591225248.965853,1.6300389766693115,1591225244.300428,1591225247.3173518,,,TCB_GOOD,001,,,,2020_Jun_03_1556,AdjustEyeTrack,3.1.5,59.777409133309924,
72,Stimuli/Morph72.JPG,Stimuli/Morph72.png,Stimuli/BlurLevel5/BlurEditedMorph72,Stimuli/BlurLevel5/BlurEditedMorph72.png,Stimuli/BlurLevel5/NumberedMorphs/BlurEditedMorph72.png,Stimuli/BlurLevel5/OriginalBlur/BlurEditedMorph72.png,Stimuli/BlurMorphTrio/EditedMorph72.png,020227right.gif,Stimuli/normal_thumbnails/72right.gif,,,,,0,0,0,0,0,25,25,71,,,,,,,,,,,,,,,,,,,,,,,76,26,1,176,-2.4939101256495606,0.1743911843603138,72,Experiment,,,,,,,,,54,67,5,5,,,,,,,,,,,,,,,298.7441083069971,299.50529547899714,298.7441083069971,299.50529547899714,93.19727891156462,1591225252.416418,1591225254.0655649,1.6491467952728271,1591225249.5010839,1591225252.392434,,,TCB_GOOD,001,,,,2020_Jun_03_1556,AdjustEyeTrack,3.1.5,59.777409133309924,
96,Stimuli/Morph96.JPG,Stimuli/Morph96.png,Stimuli/BlurLevel5/BlurEditedMorph96,Stimuli/BlurLevel5/BlurEditedMorph96.png,Stimuli/BlurLevel5/NumberedMorphs/BlurEditedMorph96.png,Stimuli/BlurLevel5/OriginalBlur/BlurEditedMorph96.png,Stimuli/BlurMorphTrio/EditedMorph96.png,020292right.gif,Stimuli/normal_thumbnails/96right.gif,,,,,0,0,0,0,0,26,26,95,,,,,,,,,,,,,,,,,,,,,,,23,27,1,7,2.481365379103305,0.3046733585128687,96,Experiment,,,,,,,,,20,100,-4,-4,,,,,,,,,,,,,,,304.2947749779996,305.0567372669975,304.2947749779996,305.0567372669975,94.5578231292517,1591225257.949653,1591225260.215518,2.2658650875091553,1591225254.600909,1591225257.926827,,,TCB_GOOD,001,,,,2020_Jun_03_1556,AdjustEyeTrack,3.1.5,59.777409133309924,
35,Stimuli/Morph35.JPG,Stimuli/Morph35.png,Stimuli/BlurLevel5/BlurEditedMorph35,Stimuli/BlurLevel5/BlurEditedMorph35.png,Stimuli/BlurLevel5/NumberedMorphs/BlurEditedMorph35.png,Stimuli/BlurLevel5/OriginalBlur/BlurEditedMorph35.png,Stimuli/BlurMorphTrio/EditedMorph35.png,010094right.gif,Stimuli/normal_thumbnails/35right.gif,,,,,0,0,0,0,0,27,27,34,,,,,,,,,,,,,,,,,,,,,,,11,28,1,10,2.46201938253052,0.4341204441673258,35,Experiment,,,,,,,,,108,38,-3,-3,,,,,,,,,,,,,,,310.9153162829971,311.67942154299817,310.9153162829971,311.67942154299817,95.91836734693877,1591225264.566893,1591225268.1323981,3.565505027770996,1591225260.768343,1591225264.533642,,,TCB_GOOD,001,,,,2020_Jun_03_1556,AdjustEyeTrack,3.1.5,59.777409133309924,
6,Stimuli/Morph6.JPG,Stimuli/Morph6.png,Stimuli/BlurLevel5/BlurEditedMorph6,Stimuli/BlurLevel5/BlurEditedMorph6.png,Stimuli/BlurLevel5/NumberedMorphs/BlurEditedMorph6.png,Stimuli/BlurLevel5/OriginalBlur/BlurEditedMorph6.png,Stimuli/BlurMorphTrio/EditedMorph6.png,010012right.gif,Stimuli/normal_thumbnails/6right.gif,,,,,0,0,0,0,0,28,28,5,,,,,,,,,,,,,,,,,,,,,,,57,29,1,115,-1.0565456543517484,2.265769467591625,6,Experiment,,,,,,,,,78,1,5,5,,,,,,,,,,,,,,,318.51356581899745,319.2575133669998,318.51356581899745,319.2575133669998,93.19727891156462,1591225272.133118,1591225274.2320828,2.0989649295806885,1591225268.6670852,1591225272.116564,,,TCB_GOOD,001,,,,2020_Jun_03_1556,AdjustEyeTrack,3.1.5,59.777409133309924,
12,Stimuli/Morph12.JPG,Stimuli/Morph12.png,Stimuli/BlurLevel5/BlurEditedMorph12,Stimuli/BlurLevel5/BlurEditedMorph12.png,Stimuli/BlurLevel5/NumberedMorphs/BlurEditedMorph12.png,Stimuli/BlurLevel5/OriginalBlur/BlurEditedMorph12.png,Stimuli/BlurMorphTrio/EditedMorph12.png,010026right.gif,Stimuli/normal_thumbnails/12right.gif,,,,,0,0,0,0,0,29,29,11,,,,,,,,,,,,,,,,,,,,,,,32,30,1,324,2.022542485937368,-1.4694631307311832,12,Experiment,,,,,,,,,103,5,7,7,,,,,,,,,,,,,,,324.7605378970002,325.5349829739971,324.7605378970002,325.5349829739971,90.47619047619048,1591225278.4016619,1591225280.498069,2.096407175064087,1591225274.76695,1591225278.3825002,,,TCB_GOOD,001,,,,2020_Jun_03_1556,AdjustEyeTrack,3.1.5,59.777409133309924,
143,Stimuli/Morph143.JPG,Stimuli/Morph143.png,Stimuli/BlurLevel5/BlurEditedMorph143,Stimuli/BlurLevel5/BlurEditedMorph143.png,Stimuli/BlurLevel5/NumberedMorphs/BlurEditedMorph143.png,Stimuli/BlurLevel5/OriginalBlur/BlurEditedMorph143.png,Stimuli/BlurMorphTrio/EditedMorph143.png,None,None,,,,,0,0,0,0,0,30,30,142,,,,,,,,,,,,,,,,,,,,,,,72,31,1,214,-2.0725939313876047,-1.3979822586768667,143,Experiment,,,,,,,,,105,145,-2,-2,,,,,,,,,,,,,,,331.2966536379972,332.05669434099764,331.2966536379972,332.05669434099764,97.27891156462584,1591225284.916817,1591225287.615114,2.6982970237731934,1591225281.033185,1591225284.902142,,,TCB_GOOD,001,,,,2020_Jun_03_1556,AdjustEyeTrack,3.1.5,59.777409133309924,
22,Stimuli/Morph22.JPG,Stimuli/Morph22.png,Stimuli/BlurLevel5/BlurEditedMorph22,Stimuli/BlurLevel5/BlurEditedMorph22.png,Stimuli/BlurLevel5/NumberedMorphs/BlurEditedMorph22.png,Stimuli/BlurLevel5/OriginalBlur/BlurEditedMorph22.png,Stimuli/BlurMorphTrio/EditedMorph22.png,010055right.gif,Stimuli/normal_thumbnails/22right.gif,,,,,0,0,0,0,0,31,31,21,,,,,,,,,,,,,,,,,,,,,,,67,32,1,83,0.3046733585128687,2.481365379103305,22,Experiment,,,,,,,,,67,6,16,16,,,,,,,,,,,,,,,338.83723656099755,339.57513105399994,338.83723656099755,339.57513105399994,78.2312925170068,1591225292.849349,1591225295.882028,3.0326790809631348,1591225288.1502562,1591225292.8242419,,,TCB_GOOD,001,,,,2020_Jun_03_1556,AdjustEyeTrack,3.1.5,59.777409133309924,
36,Stimuli/Morph36.JPG,Stimuli/Morph36.png,Stimuli/BlurLevel5/BlurEditedMorph36,Stimuli/BlurLevel5/BlurEditedMorph36.png,Stimuli/BlurLevel5/NumberedMorphs/BlurEditedMorph36.png,Stimuli/BlurLevel5/OriginalBlur/BlurEditedMorph36.png,Stimuli/BlurMorphTrio/EditedMorph36.png,010095right.gif,Stimuli/normal_thumbnails/36right.gif,,,,,0,0,0,0,0,32,32,35,,,,,,,,,,,,,,,,,,,,,,,66,33,1,68,0.9365164835397799,2.3179596364169686,36,Experiment,,,,,,,,,46,34,2,2,,,,,,,,,,,,,,,345.9014184939988,346.65137710899944,345.9014184939988,346.65137710899944,97.27891156462584,1591225299.533176,1591225302.63214,3.098963975906372,1591225296.399555,1591225299.511969,,,TCB_GOOD,001,,,,2020_Jun_03_1556,AdjustEyeTrack,3.1.5,59.777409133309924,
88,Stimuli/Morph88.JPG,Stimuli/Morph88.png,Stimuli/BlurLevel5/BlurEditedMorph88,Stimuli/BlurLevel5/BlurEditedMorph88.png,Stimuli/BlurLevel5/NumberedMorphs/BlurEditedMorph88.png,Stimuli/BlurLevel5/OriginalBlur/BlurEditedMorph88.png,Stimuli/BlurMorphTrio/EditedMorph88.png,020271right.gif,Stimuli/normal_thumbnails/88right.gif,,,,,0,0,0,0,0,33,33,87,,,,,,,,,,,,,,,,,,,,,,,17,34,1,40,1.9151111077974452,1.6069690242163481,88,Experiment,,,,,,,,,69,103,-15,-15,,,,,,,,,,,,,,,353.1731138929972,353.9415419709985,353.1731138929972,353.9415419709985,79.59183673469387,1591225306.8327491,1591225308.067874,1.2351248264312744,1591225303.167199,1591225306.8052359,,,TCB_GOOD,001,,,,2020_Jun_03_1556,AdjustEyeTrack,3.1.5,59.777409133309924,
91,Stimuli/Morph91.JPG,Stimuli/Morph91.png,Stimuli/BlurLevel5/BlurEditedMorph91,Stimuli/BlurLevel5/BlurEditedMorph91.png,Stimuli/BlurLevel5/NumberedMorphs/BlurEditedMorph91.png,Stimuli/BlurLevel5/OriginalBlur/BlurEditedMorph91.png,Stimuli/BlurMorphTrio/EditedMorph91.png,020276right.gif,Stimuli/normal_thumbnails/91right.gif,,,,,0,0,0,0,0,34,34,90,,,,,,,,,,,,,,,,,,,,,,,66,35,1,78,0.5197792270443986,2.445369001834514,91,Experiment,,,,,,,,,5,90,1,1,,,,,,,,,,,,,,,358.0428364699983,358.7954361839984,358.0428364699983,358.7954361839984,98.63945578231292,1591225311.7172742,1591225314.869996,3.152721881866455,1591225308.632947,1591225311.7010949,,,TCB_GOOD,001,,,,2020_Jun_03_1556,AdjustEyeTrack,3.1.5,59.777409133309924,
93,Stimuli/Morph93.JPG,Stimuli/Morph93.png,Stimuli/BlurLevel5/BlurEditedMorph93,Stimuli/BlurLevel5/BlurEditedMorph93.png,Stimuli/BlurLevel5/NumberedMorphs/BlurEditedMorph93.png,Stimuli/BlurLevel5/OriginalBlur/BlurEditedMorph93.png,Stimuli/BlurMorphTrio/EditedMorph93.png,020280right.gif,Stimuli/normal_thumbnails/93right.gif,,,,,0,0,0,0,0,35,35,92,,,,,,,,,,,,,,,,,,,,,,,44,36,1,161,-2.363796438998292,0.8139203861428914,93,Experiment,,,,,,,,,126,109,-16,-16,,,,,,,,,,,,,,,365.3014061419999,366.0620536239985,365.3014061419999,366.0620536239985,78.2312925170068,1591225318.9839628,1591225321.299384,2.3154213428497314,1591225315.41869,1591225318.964573,,,TCB_GOOD,001,,,,2020_Jun_03_1556,AdjustEyeTrack,3.1.5,59.777409133309924,
128,Stimuli/Morph128.JPG,Stimuli/Morph128.png,Stimuli/BlurLevel5/BlurEditedMorph128,Stimuli/BlurLevel5/BlurEditedMorph128.png,Stimuli/BlurLevel5/NumberedMorphs/BlurEditedMorph128.png,Stimuli/BlurLevel5/OriginalBlur/BlurEditedMorph128.png,Stimuli/BlurMorphTrio/EditedMorph128.png,None,None,,,,,0,0,0,0,0,36,36,127,,,,,,,,,,,,,,,,,,,,,,,79,37,1,344,2.4031542398457972,-0.6890933895424973,128,Experiment,,,,,,,,,14,137,-9,-9,,,,,,,,,,,,,,,371.530720707,372.2806190029987,371.530720707,372.2806190029987,87.75510204081633,1591225325.2037709,1591225328.668396,3.464625120162964,1591225321.8328052,1591225325.184845,,,TCB_GOOD,001,,,,2020_Jun_03_1556,AdjustEyeTrack,3.1.5,59.777409133309924,
76,Stimuli/Morph76.JPG,Stimuli/Morph76.png,Stimuli/BlurLevel5/BlurEditedMorph76,Stimuli/BlurLevel5/BlurEditedMorph76.png,Stimuli/BlurLevel5/NumberedMorphs/BlurEditedMorph76.png,Stimuli/BlurLevel5/OriginalBlur/BlurEditedMorph76.png,Stimuli/BlurMorphTrio/EditedMorph76.png,020234right.gif,Stimuli/normal_thumbnails/76right.gif,,,,,0,0,0,0,0,37,37,75,,,,,,,,,,,,,,,,,,,,,,,27,38,1,55,1.4339410908776153,2.0478801107224793,76,Experiment,,,,,,,,,142,90,-14,-14,,,,,,,,,,,,,,,379.20174104099715,379.96356818300046,379.20174104099715,379.96356818300046,80.95238095238095,1591225332.866868,1591225338.015441,5.14857292175293,1591225329.218691,1591225332.849097,,,TCB_GOOD,001,,,,2020_Jun_03_1556,AdjustEyeTrack,3.1.5,59.777409133309924,
17,Stimuli/Morph17.JPG,Stimuli/Morph17.png,Stimuli/BlurLevel5/BlurEditedMorph17,Stimuli/BlurLevel5/BlurEditedMorph17.png,Stimuli/BlurLevel5/NumberedMorphs/BlurEditedMorph17.png,Stimuli/BlurLevel5/OriginalBlur/BlurEditedMorph17.png,Stimuli/BlurMorphTrio/EditedMorph17.png,010036right.gif,Stimuli/normal_thumbnails/17right.gif,,,,,0,0,0,0,0,38,38,16,,,,,,,,,,,,,,,,,,,,,,,91,39,1,219,-1.942864903642427,-1.573300977624594,17,Experiment,,,,,,,,,140,16,1,1,,,,,,,,,,,,,,,388.69829773699894,389.47218434899696,388.69829773699894,389.47218434899696,98.63945578231292,1591225342.3999748,1591225344.336576,1.936601161956787,1591225338.568334,1591225342.373663,,,TCB_GOOD,001,,,,2020_Jun_03_1556,AdjustEyeTrack,3.1.5,59.777409133309924,
101,Stimuli/Morph101.JPG,Stimuli/Morph101.png,Stimuli/BlurLevel5/BlurEditedMorph101,Stimuli/BlurLevel5/BlurEditedMorph101.png,Stimuli/BlurLevel5/NumberedMorphs/BlurEditedMorph101.png,Stimuli/BlurLevel5/OriginalBlur/BlurEditedMorph101.png,Stimuli/BlurMorphTrio/EditedMorph101.png,None,None,,,,,0,0,0,0,0,39,39,100,,,,,,,,,,,,,,,,,,,,,,,46,40,1,103,-0.5623776358596626,2.435925161963088,101,Experiment,,,,,,,,,140,104,-3,-3,,,,,,,,,,,,,,,394.50805003999994,395.2886441419978,394.50805003999994,395.2886441419978,95.91836734693877,1591225348.2485251,1591225351.053494,2.80496883392334,1591225344.883701,1591225348.203994,,,TCB_GOOD,001,,,,2020_Jun_03_1556,AdjustEyeTrack,3.1.5,59.777409133309924,
85,Stimuli/Morph85.JPG,Stimuli/Morph85.png,Stimuli/BlurLevel5/BlurEditedMorph85,Stimuli/BlurLevel5/BlurEditedMorph85.png,Stimuli/BlurLevel5/NumberedMorphs/BlurEditedMorph85.png,Stimuli/BlurLevel5/OriginalBlur/BlurEditedMorph85.png,Stimuli/BlurMorphTrio/EditedMorph85.png,020264right.gif,Stimuli/normal_thumbnails/85right.gif,,,,,0,0,0,0,0,40,40,84,,,,,,,,,,,,,,,,,,,,,,,14,41,1,249,-0.8959198738632518,-2.333951066243004,85,Experiment,,,,,,,,,143,93,-8,-8,,,,,,,,,,,,,,,401.745619248999,402.52159809399745,401.745619248999,402.52159809399745,89.1156462585034,1591225355.419074,1591225358.0675101,2.6484360694885254,1591225351.600252,1591225355.4028459,,,TCB_GOOD,001,,,,2020_Jun_03_1556,AdjustEyeTrack,3.1.5,59.777409133309924,
89,Stimuli/Morph89.JPG,Stimuli/Morph89.png,Stimuli/BlurLevel5/BlurEditedMorph89,Stimuli/BlurLevel5/BlurEditedMorph89.png,Stimuli/BlurLevel5/NumberedMorphs/BlurEditedMorph89.png,Stimuli/BlurLevel5/OriginalBlur/BlurEditedMorph89.png,Stimuli/BlurMorphTrio/EditedMorph89.png,020273right.gif,Stimuli/normal_thumbnails/89right.gif,,,,,0,0,0,0,0,41,41,88,,,,,,,,,,,,,,,,,,,,,,,80,42,1,49,1.6401475724762684,1.8867739505569299,89,Experiment,,,,,,,,,126,99,-10,-10,,,,,,,,,,,,,,,408.28379718699944,409.0621495189989,408.28379718699944,409.0621495189989,86.39455782312925,1591225362.000853,1591225365.867508,3.866654872894287,1591225358.651358,1591225361.974928,,,TCB_GOOD,001,,,,2020_Jun_03_1556,AdjustEyeTrack,3.1.5,59.777409133309924,
26,Stimuli/Morph26.JPG,Stimuli/Morph26.png,Stimuli/BlurLevel5/BlurEditedMorph26,Stimuli/BlurLevel5/BlurEditedMorph26.png,Stimuli/BlurLevel5/NumberedMorphs/BlurEditedMorph26.png,Stimuli/BlurLevel5/OriginalBlur/BlurEditedMorph26.png,Stimuli/BlurMorphTrio/EditedMorph26.png,010070right.gif,Stimuli/normal_thumbnails/26right.gif,,,,,0,0,0,0,0,42,42,25,,,,,,,,,,,,,,,,,,,,,,,90,43,1,143,-1.9965887751182323,1.5045375578801203,26,Experiment,,,,,,,,,84,30,-4,-4,,,,,,,,,,,,,,,416.2012230649998,416.9634325849984,416.2012230649998,416.9634325849984,94.5578231292517,1591225369.936542,1591225372.915481,2.9789390563964844,1591225366.4171278,1591225369.903021,,,TCB_GOOD,001,,,,2020_Jun_03_1556,AdjustEyeTrack,3.1.5,59.777409133309924,
57,Stimuli/Morph57.JPG,Stimuli/Morph57.png,Stimuli/BlurLevel5/BlurEditedMorph57,Stimuli/BlurLevel5/BlurEditedMorph57.png,Stimuli/BlurLevel5/NumberedMorphs/BlurEditedMorph57.png,Stimuli/BlurLevel5/OriginalBlur/BlurEditedMorph57.png,Stimuli/BlurMorphTrio/EditedMorph57.png,010158right.gif,Stimuli/normal_thumbnails/57right.gif,,,,,0,0,0,0,0,43,43,56,,,,,,,,,,,,,,,,,,,,,,,8,44,1,217,-1.996588775118232,-1.504537557880121,57,Experiment,,,,,,,,,49,64,-7,-7,,,,,,,,,,,,,,,423.3979999410003,424.17141155900026,423.3979999410003,424.17141155900026,90.47619047619048,1591225377.114784,1591225379.3993752,2.2845911979675293,1591225373.5047412,1591225377.06612,,,TCB_GOOD,001,,,,2020_Jun_03_1556,AdjustEyeTrack,3.1.5,59.777409133309924,
70,Stimuli/Morph70.JPG,Stimuli/Morph70.png,Stimuli/BlurLevel5/BlurEditedMorph70,Stimuli/BlurLevel5/BlurEditedMorph70.png,Stimuli/BlurLevel5/NumberedMorphs/BlurEditedMorph70.png,Stimuli/BlurLevel5/OriginalBlur/BlurEditedMorph70.png,Stimuli/BlurMorphTrio/EditedMorph70.png,020221right.gif,Stimuli/normal_thumbnails/70right.gif,,,,,0,0,0,0,0,44,44,69,,,,,,,,,,,,,,,,,,,,,,,49,45,1,248,-0.9365164835397808,-2.317959636416968,70,Experiment,,,,,,,,,90,59,11,11,,,,,,,,,,,,,,,429.97293495399936,430.74646487299833,429.97293495399936,430.74646487299833,85.03401360544218,1591225383.68514,1591225385.8335092,2.148369312286377,1591225379.9531279,1591225383.655894,,,TCB_GOOD,001,,,,2020_Jun_03_1556,AdjustEyeTrack,3.1.5,59.777409133309924,
104,Stimuli/Morph104.JPG,Stimuli/Morph104.png,Stimuli/BlurLevel5/BlurEditedMorph104,Stimuli/BlurLevel5/BlurEditedMorph104.png,Stimuli/BlurLevel5/NumberedMorphs/BlurEditedMorph104.png,Stimuli/BlurLevel5/OriginalBlur/BlurEditedMorph104.png,Stimuli/BlurMorphTrio/EditedMorph104.png,None,None,,,,,0,0,0,0,0,45,45,103,,,,,,,,,,,,,,,,,,,,,,,59,46,1,2,2.4984770675477392,0.08724874175625243,104,Experiment,,,,,,,,,64,100,4,4,,,,,,,,,,,,,,,435.9791437629974,436.7705857919973,435.9791437629974,436.7705857919973,94.5578231292517,1591225389.749166,1591225391.082137,1.3329710960388184,1591225386.452991,1591225389.726305,,,TCB_GOOD,001,,,,2020_Jun_03_1556,AdjustEyeTrack,3.1.5,59.777409133309924,
132,Stimuli/Morph132.JPG,Stimuli/Morph132.png,Stimuli/BlurLevel5/BlurEditedMorph132,Stimuli/BlurLevel5/BlurEditedMorph132.png,Stimuli/BlurLevel5/NumberedMorphs/BlurEditedMorph132.png,Stimuli/BlurLevel5/OriginalBlur/BlurEditedMorph132.png,Stimuli/BlurMorphTrio/EditedMorph132.png,None,None,,,,,0,0,0,0,0,46,46,131,,,,,,,,,,,,,,,,,,,,,,,78,47,1,2,2.4984770675477392,0.08724874175625243,132,Experiment,,,,,,,,,69,144,-12,-12,,,,,,,,,,,,,,,441.45778348800013,442.25863235699944,441.45778348800013,442.25863235699944,83.6734693877551,1591225395.266197,1591225399.048012,3.7818150520324707,1591225391.6850162,1591225395.22272,,,TCB_GOOD,001,,,,2020_Jun_03_1556,AdjustEyeTrack,3.1.5,59.777409133309924,
82,Stimuli/Morph82.JPG,Stimuli/Morph82.png,Stimuli/BlurLevel5/BlurEditedMorph82,Stimuli/BlurLevel5/BlurEditedMorph82.png,Stimuli/BlurLevel5/NumberedMorphs/BlurEditedMorph82.png,Stimuli/BlurLevel5/OriginalBlur/BlurEditedMorph82.png,Stimuli/BlurMorphTrio/EditedMorph82.png,020247right.gif,Stimuli/normal_thumbnails/82right.gif,,,,,0,0,0,0,0,47,47,81,,,,,,,,,,,,,,,,,,,,,,,57,48,1,357,2.4965738368864345,-0.13083989060736093,82,Experiment,,,,,,,,,54,80,2,2,,,,,,,,,,,,,,,449.94187501899796,450.7392375909985,449.94187501899796,450.7392375909985,97.27891156462584,1591225403.6861062,1591225405.28146,1.5953538417816162,1591225399.65102,1591225403.6694772,,,TCB_GOOD,001,,,,2020_Jun_03_1556,AdjustEyeTrack,3.1.5,59.777409133309924,
118,Stimuli/Morph118.JPG,Stimuli/Morph118.png,Stimuli/BlurLevel5/BlurEditedMorph118,Stimuli/BlurLevel5/BlurEditedMorph118.png,Stimuli/BlurLevel5/NumberedMorphs/BlurEditedMorph118.png,Stimuli/BlurLevel5/OriginalBlur/BlurEditedMorph118.png,Stimuli/BlurMorphTrio/EditedMorph118.png,None,None,,,,,0,0,0,0,0,48,48,117,,,,,,,,,,,,,,,,,,,,,,,46,49,1,176,-2.4939101256495606,0.1743911843603138,118,Experiment,,,,,,,,,27,128,-10,-10,,,,,,,,,,,,,,,455.4817143689979,456.26371898399884,455.4817143689979,456.26371898399884,86.39455782312925,1591225409.2983959,1591225411.9500349,2.651638984680176,1591225405.8849,1591225409.2734048,,,TCB_GOOD,001,,,,2020_Jun_03_1556,AdjustEyeTrack,3.1.5,59.777409133309924,
41,Stimuli/Morph41.JPG,Stimuli/Morph41.png,Stimuli/BlurLevel5/BlurEditedMorph41,Stimuli/BlurLevel5/BlurEditedMorph41.png,Stimuli/BlurLevel5/NumberedMorphs/BlurEditedMorph41.png,Stimuli/BlurLevel5/OriginalBlur/BlurEditedMorph41.png,Stimuli/BlurMorphTrio/EditedMorph41.png,010112right.gif,Stimuli/normal_thumbnails/41right.gif,,,,,0,0,0,0,0,49,49,40,,,,,,,,,,,,,,,,,,,,,,,57,50,1,330,2.165063509461096,-1.250000000000001,41,Experiment,,,,,,,,,64,46,-5,-5,,,,,,,,,,,,,,,462.41874570099753,463.2206514159989,462.41874570099753,463.2206514159989,93.19727891156462,1591225416.202837,1591225419.8823,3.6794629096984863,1591225412.6038342,1591225416.1832478,,,TCB_GOOD,001,,,,2020_Jun_03_1556,AdjustEyeTrack,3.1.5,59.777409133309924,
45,Stimuli/Morph45.JPG,Stimuli/Morph45.png,Stimuli/BlurLevel5/BlurEditedMorph45,Stimuli/BlurLevel5/BlurEditedMorph45.png,Stimuli/BlurLevel5/NumberedMorphs/BlurEditedMorph45.png,Stimuli/BlurLevel5/OriginalBlur/BlurEditedMorph45.png,Stimuli/BlurMorphTrio/EditedMorph45.png,010127right.gif,Stimuli/normal_thumbnails/45right.gif,,,,,0,0,0,0,0,50,50,44,,,,,,,,,,,,,,,,,,,,,,,21,51,1,328,2.1201202403910644,-1.3247981605830126,45,Experiment,,,,,,,,,11,44,1,1,,,,,,,,,,,,,,,470.2586079350003,471.0742657619994,470.2586079350003,471.0742657619994,98.63945578231292,1591225424.031981,1591225425.3994,1.3674190044403076,1591225420.467757,1591225424.0103412,,,TCB_GOOD,001,,,,2020_Jun_03_1556,AdjustEyeTrack,3.1.5,59.777409133309924,
141,Stimuli/Morph141.JPG,Stimuli/Morph141.png,Stimuli/BlurLevel5/BlurEditedMorph141,Stimuli/BlurLevel5/BlurEditedMorph141.png,Stimuli/BlurLevel5/NumberedMorphs/BlurEditedMorph141.png,Stimuli/BlurLevel5/OriginalBlur/BlurEditedMorph141.png,Stimuli/BlurMorphTrio/EditedMorph141.png,None,None,,,,,0,0,0,0,0,51,51,140,,,,,,,,,,,,,,,,,,,,,,,40,52,1,231,-1.5733009776245945,-1.9428649036424264,141,Experiment,,,,,,,,,29,147,-6,-6,,,,,,,,,,,,,,,476.2486785049987,477.0424523749971,476.2486785049987,477.0424523749971,91.83673469387756,1591225430.049928,1591225435.547982,5.498054027557373,1591225426.0351338,1591225430.024071,,,TCB_GOOD,001,,,,2020_Jun_03_1556,AdjustEyeTrack,3.1.5,59.777409133309924,
71,Stimuli/Morph71.JPG,Stimuli/Morph71.png,Stimuli/BlurLevel5/BlurEditedMorph71,Stimuli/BlurLevel5/BlurEditedMorph71.png,Stimuli/BlurLevel5/NumberedMorphs/BlurEditedMorph71.png,Stimuli/BlurLevel5/OriginalBlur/BlurEditedMorph71.png,Stimuli/BlurMorphTrio/EditedMorph71.png,020225right.gif,Stimuli/normal_thumbnails/71right.gif,,,,,0,0,0,0,0,52,52,70,,,,,,,,,,,,,,,,,,,,,,,23,53,1,166,-2.425739315689991,0.6048047389991693,71,Experiment,,,,,,,,,96,67,4,4,,,,,,,,,,,,,,,486.05100691199914,486.8280256319995,486.05100691199914,486.8280256319995,94.5578231292517,1591225439.780834,1591225443.44844,3.6676061153411865,1591225436.186666,1591225439.7573812,,,TCB_GOOD,001,,,,2020_Jun_03_1556,AdjustEyeTrack,3.1.5,59.777409133309924,
31,Stimuli/Morph31.JPG,Stimuli/Morph31.png,Stimuli/BlurLevel5/BlurEditedMorph31,Stimuli/BlurLevel5/BlurEditedMorph31.png,Stimuli/BlurLevel5/NumberedMorphs/BlurEditedMorph31.png,Stimuli/BlurLevel5/OriginalBlur/BlurEditedMorph31.png,Stimuli/BlurMorphTrio/EditedMorph31.png,010079right.gif,Stimuli/normal_thumbnails/31right.gif,,,,,0,0,0,0,0,53,53,30,,,,,,,,,,,,,,,,,,,,,,,33,54,1,329,2.1429182517552805,-1.2875951872751363,31,Experiment,,,,,,,,,59,35,-4,-4,,,,,,,,,,,,,,,494.06467744600013,494.9145523979969,494.06467744600013,494.9145523979969,94.5578231292517,1591225447.899214,1591225451.081169,3.181954860687256,1591225444.0676138,1591225447.8711948,,,TCB_GOOD,001,,,,2020_Jun_03_1556,AdjustEyeTrack,3.1.5,59.777409133309924,
21,Stimuli/Morph21.JPG,Stimuli/Morph21.png,Stimuli/BlurLevel5/BlurEditedMorph21,Stimuli/BlurLevel5/BlurEditedMorph21.png,Stimuli/BlurLevel5/NumberedMorphs/BlurEditedMorph21.png,Stimuli/BlurLevel5/OriginalBlur/BlurEditedMorph21.png,Stimuli/BlurMorphTrio/EditedMorph21.png,010049right.gif,Stimuli/normal_thumbnails/21right.gif,,,,,0,0,0,0,0,54,54,20,,,,,,,,,,,,,,,,,,,,,,,44,55,1,351,2.469220851487844,-0.3910861626005778,21,Experiment,,,,,,,,,139,21,0,0,,,,,,,,,,,,,,,501.941877407,502.75878669699887,501.941877407,502.75878669699887,100.0,1591225455.781973,1591225457.467606,1.6856331825256348,1591225451.70084,1591225455.732419,,,TCB_GOOD,001,,,,2020_Jun_03_1556,AdjustEyeTrack,3.1.5,59.777409133309924,
117,Stimuli/Morph117.JPG,Stimuli/Morph117.png,Stimuli/BlurLevel5/BlurEditedMorph117,Stimuli/BlurLevel5/BlurEditedMorph117.png,Stimuli/BlurLevel5/NumberedMorphs/BlurEditedMorph117.png,Stimuli/BlurLevel5/OriginalBlur/BlurEditedMorph117.png,Stimuli/BlurMorphTrio/EditedMorph117.png,None,None,,,,,0,0,0,0,0,55,55,116,,,,,,,,,,,,,,,,,,,,,,,47,56,1,181,-2.499619237890978,-0.04363101609320909,117,Experiment,,,,,,,,,120,130,-13,-13,,,,,,,,,,,,,,,508.81007581299855,509.59224152099705,508.81007581299855,509.59224152099705,82.31292517006803,1591225462.56922,1591225463.614146,1.0449259281158447,1591225458.1067069,1591225462.551179,,,TCB_GOOD,001,,,,2020_Jun_03_1556,AdjustEyeTrack,3.1.5,59.777409133309924,
3,Stimuli/Morph3.JPG,Stimuli/Morph3.png,Stimuli/BlurLevel5/BlurEditedMorph3,Stimuli/BlurLevel5/BlurEditedMorph3.png,Stimuli/BlurLevel5/NumberedMorphs/BlurEditedMorph3.png,Stimuli/BlurLevel5/OriginalBlur/BlurEditedMorph3.png,Stimuli/BlurMorphTrio/EditedMorph3.png,010009right.gif,Stimuli/normal_thumbnails/3right.gif,,,,,0,0,0,0,0,56,56,2,,,,,,,,,,,,,,,,,,,,,,,58,57,1,184,-2.4939101256495606,-0.1743911843603132,3,Experiment,,,,,,,,,7,8,-5,-5,,,,,,,,,,,,,,,514.3868451199996,515.2029899609988,514.3868451199996,515.2029899609988,93.19727891156462,1591225468.23226,1591225470.1142259,1.8819658756256104,1591225464.199198,1591225468.202868,,,TCB_GOOD,001,,,,2020_Jun_03_1556,AdjustEyeTrack,3.1.5,59.777409133309924,
129,Stimuli/Morph129.JPG,Stimuli/Morph129.png,Stimuli/BlurLevel5/BlurEditedMorph129,Stimuli/BlurLevel5/BlurEditedMorph129.png,Stimuli/BlurLevel5/NumberedMorphs/BlurEditedMorph129.png,Stimuli/BlurLevel5/OriginalBlur/BlurEditedMorph129.png,Stimuli/BlurMorphTrio/EditedMorph129.png,None,None,,,,,0,0,0,0,0,57,57,128,,,,,,,,,,,,,,,,,,,,,,,19,58,1,267,-0.13083989060736076,-2.4965738368864345,129,Experiment,,,,,,,,,110,137,-8,-8,,,,,,,,,,,,,,,522.2911395929987,523.0700722389993,522.2911395929987,523.0700722389993,89.1156462585034,1591225475.966055,1591225479.015636,3.0495810508728027,1591225470.734455,1591225475.9489899,,,TCB_GOOD,001,,,,2020_Jun_03_1556,AdjustEyeTrack,3.1.5,59.777409133309924,
43,Stimuli/Morph43.JPG,Stimuli/Morph43.png,Stimuli/BlurLevel5/BlurEditedMorph43,Stimuli/BlurLevel5/BlurEditedMorph43.png,Stimuli/BlurLevel5/NumberedMorphs/BlurEditedMorph43.png,Stimuli/BlurLevel5/OriginalBlur/BlurEditedMorph43.png,Stimuli/BlurMorphTrio/EditedMorph43.png,010124right.gif,Stimuli/normal_thumbnails/43right.gif,,,,,0,0,0,0,0,58,58,42,,,,,,,,,,,,,,,,,,,,,,,59,59,1,98,-0.3479327524001634,2.475670171853926,43,Experiment,,,,,,,,,43,37,6,6,,,,,,,,,,,,,,,529.2321154639976,530.0282190059988,529.2321154639976,530.0282190059988,91.83673469387756,1591225483.082443,1591225486.683313,3.60086989402771,1591225479.618301,1591225483.049674,,,TCB_GOOD,001,,,,2020_Jun_03_1556,AdjustEyeTrack,3.1.5,59.777409133309924,
5,Stimuli/Morph5.JPG,Stimuli/Morph5.png,Stimuli/BlurLevel5/BlurEditedMorph5,Stimuli/BlurLevel5/BlurEditedMorph5.png,Stimuli/BlurLevel5/NumberedMorphs/BlurEditedMorph5.png,Stimuli/BlurLevel5/OriginalBlur/BlurEditedMorph5.png,Stimuli/BlurMorphTrio/EditedMorph5.png,010011right.gif,Stimuli/normal_thumbnails/5right.gif,,,,,0,0,0,0,0,59,59,4,,,,,,,,,,,,,,,,,,,,,,,8,60,1,18,2.3776412907378837,0.7725424859373685,5,Experiment,,,,,,,,,26,142,-137,10,,,,,,,,,,,,,,,537.5407493919993,538.3775677599988,537.5407493919993,538.3775677599988,86.39455782312925,1591225491.414128,1591225494.432472,3.018343925476074,1591225487.321146,1591225491.391996,,,TCB_GOOD,001,,,,2020_Jun_03_1556,AdjustEyeTrack,3.1.5,59.777409133309924,
47,Stimuli/Morph47.JPG,Stimuli/Morph47.png,Stimuli/BlurLevel5/BlurEditedMorph47,Stimuli/BlurLevel5/BlurEditedMorph47.png,Stimuli/BlurLevel5/NumberedMorphs/BlurEditedMorph47.png,Stimuli/BlurLevel5/OriginalBlur/BlurEditedMorph47.png,Stimuli/BlurMorphTrio/EditedMorph47.png,010130right.gif,Stimuli/normal_thumbnails/47right.gif,,,,,0,0,0,0,0,60,60,46,,,,,,,,,,,,,,,,,,,,,,,79,61,1,119,-1.2120240506158424,2.1865492678484895,47,Experiment,,,,,,,,,55,55,-8,-8,,,,,,,,,,,,,,,545.157038538,545.9891102549991,545.157038538,545.9891102549991,89.1156462585034,1591225499.015893,1591225500.916296,1.9004030227661133,1591225495.10533,1591225498.995747,,,TCB_GOOD,001,,,,2020_Jun_03_1556,AdjustEyeTrack,3.1.5,59.777409133309924,
63,Stimuli/Morph63.JPG,Stimuli/Morph63.png,Stimuli/BlurLevel5/BlurEditedMorph63,Stimuli/BlurLevel5/BlurEditedMorph63.png,Stimuli/BlurLevel5/NumberedMorphs/BlurEditedMorph63.png,Stimuli/BlurLevel5/OriginalBlur/BlurEditedMorph63.png,Stimuli/BlurMorphTrio/EditedMorph63.png,020206right.gif,Stimuli/normal_thumbnails/63right.gif,,,,,0,0,0,0,0,61,61,62,,,,,,,,,,,,,,,,,,,,,,,48,62,1,358,2.4984770675477392,-0.08724874175625204,63,Experiment,,,,,,,,,129,68,-5,-5,,,,,,,,,,,,,,,551.6962724429977,552.4920759359993,551.6962724429977,552.4920759359993,93.19727891156462,1591225505.554541,1591225509.281607,3.7270658016204834,1591225501.5496309,1591225505.532402,,,TCB_GOOD,001,,,,2020_Jun_03_1556,AdjustEyeTrack,3.1.5,59.777409133309924,
1,Stimuli/Morph1.JPG,Stimuli/Morph1.png,Stimuli/BlurLevel5/BlurEditedMorph1,Stimuli/BlurLevel5/BlurEditedMorph1.png,Stimuli/BlurLevel5/NumberedMorphs/BlurEditedMorph1.png,Stimuli/BlurLevel5/OriginalBlur/BlurEditedMorph1.png,Stimuli/BlurMorphTrio/EditedMorph1.png,010003right.gif,Stimuli/normal_thumbnails/1right.gif,,,,,0,0,0,0,0,62,62,0,,,,,,,,,,,,,,,,,,,,,,,26,63,1,269,-0.04363101609320874,-2.499619237890978,1,Experiment,,,,,,,,,43,145,-144,3,,,,,,,,,,,,,,,559.8485317009981,560.7016260059972,559.8485317009981,560.7016260059972,95.91836734693877,1591225513.765006,1591225516.6156778,2.8506717681884766,1591225509.885346,1591225513.741485,,,TCB_GOOD,001,,,,2020_Jun_03_1556,AdjustEyeTrack,3.1.5,59.777409133309924,
34,Stimuli/Morph34.JPG,Stimuli/Morph34.png,Stimuli/BlurLevel5/BlurEditedMorph34,Stimuli/BlurLevel5/BlurEditedMorph34.png,Stimuli/BlurLevel5/NumberedMorphs/BlurEditedMorph34.png,Stimuli/BlurLevel5/OriginalBlur/BlurEditedMorph34.png,Stimuli/BlurMorphTrio/EditedMorph34.png,010090right.gif,Stimuli/normal_thumbnails/34right.gif,,,,,0,0,0,0,0,63,63,33,,,,,,,,,,,,,,,,,,,,,,,71,64,1,236,-1.3979822586768664,-2.0725939313876047,34,Experiment,,,,,,,,,65,36,-2,-2,,,,,,,,,,,,,,,567.2292329929987,568.0365747769974,567.2292329929987,568.0365747769974,97.27891156462584,1591225521.064287,1591225524.0650828,3.000795841217041,1591225517.250998,1591225521.040719,,,TCB_GOOD,001,,,,2020_Jun_03_1556,AdjustEyeTrack,3.1.5,59.777409133309924,
135,Stimuli/Morph135.JPG,Stimuli/Morph135.png,Stimuli/BlurLevel5/BlurEditedMorph135,Stimuli/BlurLevel5/BlurEditedMorph135.png,Stimuli/BlurLevel5/NumberedMorphs/BlurEditedMorph135.png,Stimuli/BlurLevel5/OriginalBlur/BlurEditedMorph135.png,Stimuli/BlurMorphTrio/EditedMorph135.png,None,None,,,,,0,0,0,0,0,64,64,134,,,,,,,,,,,,,,,,,,,,,,,44,65,1,260,-0.4341204441673258,-2.46201938253052,135,Experiment,,,,,,,,,7,133,2,2,,,,,,,,,,,,,,,574.9082649829979,575.7115287999986,574.9082649829979,575.7115287999986,97.27891156462584,1591225528.765279,1591225533.1834219,4.418142795562744,1591225524.733973,1591225528.736303,,,TCB_GOOD,001,,,,2020_Jun_03_1556,AdjustEyeTrack,3.1.5,59.777409133309924,
74,Stimuli/Morph74.JPG,Stimuli/Morph74.png,Stimuli/BlurLevel5/BlurEditedMorph74,Stimuli/BlurLevel5/BlurEditedMorph74.png,Stimuli/BlurLevel5/NumberedMorphs/BlurEditedMorph74.png,Stimuli/BlurLevel5/OriginalBlur/BlurEditedMorph74.png,Stimuli/BlurMorphTrio/EditedMorph74.png,020232right.gif,Stimuli/normal_thumbnails/74right.gif,,,,,0,0,0,0,0,65,65,73,,,,,,,,,,,,,,,,,,,,,,,21,66,1,191,-2.45406795861916,-0.47702248844136186,74,Experiment,,,,,,,,,28,82,-8,-8,,,,,,,,,,,,,,,584.0578908179996,584.8567707119983,584.0578908179996,584.8567707119983,89.1156462585034,1591225537.9656,1591225540.452047,2.4864470958709717,1591225534.170805,1591225537.9412658,,,TCB_GOOD,001,,,,2020_Jun_03_1556,AdjustEyeTrack,3.1.5,59.777409133309924,
55,Stimuli/Morph55.JPG,Stimuli/Morph55.png,Stimuli/BlurLevel5/BlurEditedMorph55,Stimuli/BlurLevel5/BlurEditedMorph55.png,Stimuli/BlurLevel5/NumberedMorphs/BlurEditedMorph55.png,Stimuli/BlurLevel5/OriginalBlur/BlurEditedMorph55.png,Stimuli/BlurMorphTrio/EditedMorph55.png,010151right.gif,Stimuli/normal_thumbnails/55right.gif,,,,,0,0,0,0,0,66,66,54,,,,,,,,,,,,,,,,,,,,,,,50,67,1,276,0.2613211581691325,-2.4863047384206833,55,Experiment,,,,,,,,,26,58,-3,-3,,,,,,,,,,,,,,,591.6024721159993,592.4536426159975,591.6024721159993,592.4536426159975,95.91836734693877,1591225545.5690482,1591225547.5147882,1.945739984512329,1591225541.132461,1591225545.550022,,,TCB_GOOD,001,,,,2020_Jun_03_1556,AdjustEyeTrack,3.1.5,59.777409133309924,
121,Stimuli/Morph121.JPG,Stimuli/Morph121.png,Stimuli/BlurLevel5/BlurEditedMorph121,Stimuli/BlurLevel5/BlurEditedMorph121.png,Stimuli/BlurLevel5/NumberedMorphs/BlurEditedMorph121.png,Stimuli/BlurLevel5/OriginalBlur/BlurEditedMorph121.png,Stimuli/BlurMorphTrio/EditedMorph121.png,None,None,,,,,0,0,0,0,0,67,67,120,,,,,,,,,,,,,,,,,,,,,,,30,68,1,213,-2.0966764198635603,-1.3615975875375677,121,Experiment,,,,,,,,,84,134,-13,-13,,,,,,,,,,,,,,,599.0728931039994,599.9871829699987,599.0728931039994,599.9871829699987,82.31292517006803,1591225553.150133,1591225556.180856,3.0307230949401855,1591225548.2497978,1591225553.132232,,,TCB_GOOD,001,,,,2020_Jun_03_1556,AdjustEyeTrack,3.1.5,59.777409133309924,
110,Stimuli/Morph110.JPG,Stimuli/Morph110.png,Stimuli/BlurLevel5/BlurEditedMorph110,Stimuli/BlurLevel5/BlurEditedMorph110.png,Stimuli/BlurLevel5/NumberedMorphs/BlurEditedMorph110.png,Stimuli/BlurLevel5/OriginalBlur/BlurEditedMorph110.png,Stimuli/BlurMorphTrio/EditedMorph110.png,None,None,,,,,0,0,0,0,0,68,68,109,,,,,,,,,,,,,,,,,,,,,,,56,69,1,117,-1.1349762493488669,2.2275163104709197,110,Experiment,,,,,,,,,106,93,17,17,,,,,,,,,,,,,,,607.9011844609995,608.7428664500003,607.9011844609995,608.7428664500003,76.87074829931973,1591225561.818161,1591225565.2313778,3.4132168292999268,1591225556.8686159,1591225561.79734,,,TCB_GOOD,001,,,,2020_Jun_03_1556,AdjustEyeTrack,3.1.5,59.777409133309924,
147,Stimuli/Morph147.JPG,Stimuli/Morph147.png,Stimuli/BlurLevel5/BlurEditedMorph147,Stimuli/BlurLevel5/BlurEditedMorph147.png,Stimuli/BlurLevel5/NumberedMorphs/BlurEditedMorph147.png,Stimuli/BlurLevel5/OriginalBlur/BlurEditedMorph147.png,Stimuli/BlurMorphTrio/EditedMorph147.png,None,None,,,,,0,0,0,0,0,69,69,146,,,,,,,,,,,,,,,,,,,,,,,76,70,1,69,0.895919873863251,2.3339510662430043,147,Experiment,,,,,,,,,95,136,11,11,,,,,,,,,,,,,,,615.6269245740004,616.4712995419977,615.6269245740004,616.4712995419977,85.03401360544218,1591225569.597729,1591225571.114269,1.5165400505065918,1591225565.9002008,1591225569.567035,,,TCB_GOOD,001,,,,2020_Jun_03_1556,AdjustEyeTrack,3.1.5,59.777409133309924,
107,Stimuli/Morph107.JPG,Stimuli/Morph107.png,Stimuli/BlurLevel5/BlurEditedMorph107,Stimuli/BlurLevel5/BlurEditedMorph107.png,Stimuli/BlurLevel5/NumberedMorphs/BlurEditedMorph107.png,Stimuli/BlurLevel5/OriginalBlur/BlurEditedMorph107.png,Stimuli/BlurMorphTrio/EditedMorph107.png,None,None,,,,,0,0,0,0,0,70,70,106,,,,,,,,,,,,,,,,,,,,,,,44,71,1,76,0.6048047389991692,2.425739315689991,107,Experiment,,,,,,,,,89,93,14,14,,,,,,,,,,,,,,,622.1283772429997,623.0076076559999,622.1283772429997,623.0076076559999,80.95238095238095,1591225576.1372879,1591225577.514285,1.3769972324371338,1591225571.8034,1591225576.106121,,,TCB_GOOD,001,,,,2020_Jun_03_1556,AdjustEyeTrack,3.1.5,59.777409133309924,
114,Stimuli/Morph114.JPG,Stimuli/Morph114.png,Stimuli/BlurLevel5/BlurEditedMorph114,Stimuli/BlurLevel5/BlurEditedMorph114.png,Stimuli/BlurLevel5/NumberedMorphs/BlurEditedMorph114.png,Stimuli/BlurLevel5/OriginalBlur/BlurEditedMorph114.png,Stimuli/BlurMorphTrio/EditedMorph114.png,None,None,,,,,0,0,0,0,0,71,71,113,,,,,,,,,,,,,,,,,,,,,,,52,72,1,63,1.134976249348867,2.2275163104709197,114,Experiment,,,,,,,,,135,97,17,17,,,,,,,,,,,,,,,628.9267997939969,629.9151966219979,628.9267997939969,629.9151966219979,76.87074829931973,1591225583.2311811,1591225587.481608,4.250426769256592,1591225578.266578,1591225583.199682,,,TCB_GOOD,001,,,,2020_Jun_03_1556,AdjustEyeTrack,3.1.5,59.777409133309924,
61,Stimuli/Morph61.JPG,Stimuli/Morph61.png,Stimuli/BlurLevel5/BlurEditedMorph61,Stimuli/BlurLevel5/BlurEditedMorph61.png,Stimuli/BlurLevel5/NumberedMorphs/BlurEditedMorph61.png,Stimuli/BlurLevel5/OriginalBlur/BlurEditedMorph61.png,Stimuli/BlurMorphTrio/EditedMorph61.png,020201right.gif,Stimuli/normal_thumbnails/61right.gif,,,,,0,0,0,0,0,72,72,60,,,,,,,,,,,,,,,,,,,,,,,63,73,1,74,0.6890933895424979,2.4031542398457972,61,Experiment,,,,,,,,,112,57,4,4,,,,,,,,,,,,,,,638.6196306589991,639.5531976499988,638.6196306589991,639.5531976499988,94.5578231292517,1591225592.716467,1591225596.797628,4.081161022186279,1591225588.206183,1591225592.685041,,,TCB_GOOD,001,,,,2020_Jun_03_1556,AdjustEyeTrack,3.1.5,59.777409133309924,
131,Stimuli/Morph131.JPG,Stimuli/Morph131.png,Stimuli/BlurLevel5/BlurEditedMorph131,Stimuli/BlurLevel5/BlurEditedMorph131.png,Stimuli/BlurLevel5/NumberedMorphs/BlurEditedMorph131.png,Stimuli/BlurLevel5/OriginalBlur/BlurEditedMorph131.png,Stimuli/BlurMorphTrio/EditedMorph131.png,None,None,,,,,0,0,0,0,0,73,73,130,,,,,,,,,,,,,,,,,,,,,,,34,74,1,212,-2.1201202403910653,-1.324798160583012,131,Experiment,,,,,,,,,135,132,-1,-1,,,,,,,,,,,,,,,648.2457335199979,649.1095356769983,648.2457335199979,649.1095356769983,98.63945578231292,1591225602.235893,1591225603.981313,1.745419979095459,1591225597.481857,1591225602.209578,,,TCB_GOOD,001,,,,2020_Jun_03_1556,AdjustEyeTrack,3.1.5,59.777409133309924,
127,Stimuli/Morph127.JPG,Stimuli/Morph127.png,Stimuli/BlurLevel5/BlurEditedMorph127,Stimuli/BlurLevel5/BlurEditedMorph127.png,Stimuli/BlurLevel5/NumberedMorphs/BlurEditedMorph127.png,Stimuli/BlurLevel5/OriginalBlur/BlurEditedMorph127.png,Stimuli/BlurMorphTrio/EditedMorph127.png,None,None,,,,,0,0,0,0,0,74,74,126,,,,,,,,,,,,,,,,,,,,,,,30,75,1,269,-0.04363101609320874,-2.499619237890978,127,Experiment,,,,,,,,,119,129,-2,-2,,,,,,,,,,,,,,,655.8493485340005,656.6718098860001,655.8493485340005,656.6718098860001,97.27891156462584,1591225609.764649,1591225612.480882,2.716233015060425,1591225604.734027,1591225609.73196,,,TCB_GOOD,001,,,,2020_Jun_03_1556,AdjustEyeTrack,3.1.5,59.777409133309924,
120,Stimuli/Morph120.JPG,Stimuli/Morph120.png,Stimuli/BlurLevel5/BlurEditedMorph120,Stimuli/BlurLevel5/BlurEditedMorph120.png,Stimuli/BlurLevel5/NumberedMorphs/BlurEditedMorph120.png,Stimuli/BlurLevel5/OriginalBlur/BlurEditedMorph120.png,Stimuli/BlurMorphTrio/EditedMorph120.png,None,None,,,,,0,0,0,0,0,75,75,119,,,,,,,,,,,,,,,,,,,,,,,52,76,1,46,1.7366459261474934,1.7983495008466277,120,Experiment,,,,,,,,,89,124,-4,-4,,,,,,,,,,,,,,,663.5864694359989,664.4097278150002,663.5864694359989,664.4097278150002,94.5578231292517,1591225617.4815402,1591225619.9807942,2.499253988265991,1591225613.170115,1591225617.458314,,,TCB_GOOD,001,,,,2020_Jun_03_1556,AdjustEyeTrack,3.1.5,59.777409133309924,
8,Stimuli/Morph8.JPG,Stimuli/Morph8.png,Stimuli/BlurLevel5/BlurEditedMorph8,Stimuli/BlurLevel5/BlurEditedMorph8.png,Stimuli/BlurLevel5/NumberedMorphs/BlurEditedMorph8.png,Stimuli/BlurLevel5/OriginalBlur/BlurEditedMorph8.png,Stimuli/BlurMorphTrio/EditedMorph8.png,010014right.gif,Stimuli/normal_thumbnails/8right.gif,,,,,0,0,0,0,0,76,76,7,,,,,,,,,,,,,,,,,,,,,,,47,77,1,256,-0.6048047389991695,-2.425739315689991,8,Experiment,,,,,,,,,18,16,-8,-8,,,,,,,,,,,,,,,671.540715264,672.3511342689999,671.540715264,672.3511342689999,89.1156462585034,1591225625.456259,1591225627.0981061,1.6418471336364746,1591225620.635742,1591225625.427812,,,TCB_GOOD,001,,,,2020_Jun_03_1556,AdjustEyeTrack,3.1.5,59.777409133309924,
138,Stimuli/Morph138.JPG,Stimuli/Morph138.png,Stimuli/BlurLevel5/BlurEditedMorph138,Stimuli/BlurLevel5/BlurEditedMorph138.png,Stimuli/BlurLevel5/NumberedMorphs/BlurEditedMorph138.png,Stimuli/BlurLevel5/OriginalBlur/BlurEditedMorph138.png,Stimuli/BlurMorphTrio/EditedMorph138.png,None,None,,,,,0,0,0,0,0,77,77,137,,,,,,,,,,,,,,,,,,,,,,,100,78,1,34,2.072593931387604,1.3979822586768673,138,Experiment,,,,,,,,,127,140,-2,-2,,,,,,,,,,,,,,,678.2122188299982,679.0876794920005,678.2122188299982,679.0876794920005,97.27891156462584,1591225632.1523259,1591225633.567913,1.4155871868133545,1591225627.8744519,1591225632.131685,,,TCB_GOOD,001,,,,2020_Jun_03_1556,AdjustEyeTrack,3.1.5,59.777409133309924,
100,Stimuli/Morph100.JPG,Stimuli/Morph100.png,Stimuli/BlurLevel5/BlurEditedMorph100,Stimuli/BlurLevel5/BlurEditedMorph100.png,Stimuli/BlurLevel5/NumberedMorphs/BlurEditedMorph100.png,Stimuli/BlurLevel5/OriginalBlur/BlurEditedMorph100.png,Stimuli/BlurMorphTrio/EditedMorph100.png,020297right.gif,Stimuli/normal_thumbnails/100right.gif,,,,,0,0,0,0,0,78,78,99,,,,,,,,,,,,,,,,,,,,,,,3,79,1,89,0.043631016093209,2.499619237890978,100,Experiment,,,,,,,,,126,104,-4,-4,,,,,,,,,,,,,,,685.0567278629969,686.0644676009979,685.0567278629969,686.0644676009979,94.5578231292517,1591225639.549376,1591225641.615437,2.066061019897461,1591225634.4178,1591225639.5227652,,,TCB_GOOD,001,,,,2020_Jun_03_1556,AdjustEyeTrack,3.1.5,59.777409133309924,
60,Stimuli/Morph60.JPG,Stimuli/Morph60.png,Stimuli/BlurLevel5/BlurEditedMorph60,Stimuli/BlurLevel5/BlurEditedMorph60.png,Stimuli/BlurLevel5/NumberedMorphs/BlurEditedMorph60.png,Stimuli/BlurLevel5/OriginalBlur/BlurEditedMorph60.png,Stimuli/BlurMorphTrio/EditedMorph60.png,020200right.gif,Stimuli/normal_thumbnails/60right.gif,,,,,0,0,0,0,0,79,79,59,,,,,,,,,,,,,,,,,,,,,,,14,80,1,201,-2.333951066243004,-0.8959198738632511,60,Experiment,,,,,,,,,14,60,0,0,,,,,,,,,,,,,,,692.8656091550001,693.6859177879996,692.8656091550001,693.6859177879996,100.0,1591225646.8321018,1591225649.364177,2.5320751667022705,1591225642.251637,1591225646.799511,,,TCB_GOOD,001,,,,2020_Jun_03_1556,AdjustEyeTrack,3.1.5,59.777409133309924,
102,Stimuli/Morph102.JPG,Stimuli/Morph102.png,Stimuli/BlurLevel5/BlurEditedMorph102,Stimuli/BlurLevel5/BlurEditedMorph102.png,Stimuli/BlurLevel5/NumberedMorphs/BlurEditedMorph102.png,Stimuli/BlurLevel5/OriginalBlur/BlurEditedMorph102.png,Stimuli/BlurMorphTrio/EditedMorph102.png,None,None,,,,,0,0,0,0,0,80,80,101,,,,,,,,,,,,,,,,,,,,,,,13,81,1,84,0.2613211581691336,2.4863047384206833,102,Experiment,,,,,,,,,44,95,7,7,,,,,,,,,,,,,,,701.8687141609989,702.7025996369994,701.8687141609989,702.7025996369994,90.47619047619048,1591225656.148976,1591225658.313793,2.1648168563842773,1591225650.048585,1591225656.13185,,,TCB_GOOD,001,,,,2020_Jun_03_1556,AdjustEyeTrack,3.1.5,59.777409133309924,
15,Stimuli/Morph15.JPG,Stimuli/Morph15.png,Stimuli/BlurLevel5/BlurEditedMorph15,Stimuli/BlurLevel5/BlurEditedMorph15.png,Stimuli/BlurLevel5/NumberedMorphs/BlurEditedMorph15.png,Stimuli/BlurLevel5/OriginalBlur/BlurEditedMorph15.png,Stimuli/BlurMorphTrio/EditedMorph15.png,010031right.gif,Stimuli/normal_thumbnails/15right.gif,,,,,0,0,0,0,0,81,81,14,,,,,,,,,,,,,,,,,,,,,,,42,82,1,78,0.5197792270443986,2.445369001834514,15,Experiment,,,,,,,,,121,12,3,3,,,,,,,,,,,,,,,709.9967580899975,711.012735510998,709.9967580899975,711.012735510998,95.91836734693877,1591225664.297528,1591225666.246806,1.9492778778076172,1591225659.0171578,1591225664.266618,,,TCB_GOOD,001,,,,2020_Jun_03_1556,AdjustEyeTrack,3.1.5,59.777409133309924,
78,Stimuli/Morph78.JPG,Stimuli/Morph78.png,Stimuli/BlurLevel5/BlurEditedMorph78,Stimuli/BlurLevel5/BlurEditedMorph78.png,Stimuli/BlurLevel5/NumberedMorphs/BlurEditedMorph78.png,Stimuli/BlurLevel5/OriginalBlur/BlurEditedMorph78.png,Stimuli/BlurMorphTrio/EditedMorph78.png,020238right.gif,Stimuli/normal_thumbnails/78right.gif,,,,,0,0,0,0,0,82,82,77,,,,,,,,,,,,,,,,,,,,,,,65,83,1,346,2.425739315689991,-0.6048047389991696,78,Experiment,,,,,,,,,20,80,-2,-2,,,,,,,,,,,,,,,717.3154683229986,718.1952530029994,717.3154683229986,718.1952530029994,97.27891156462584,1591225671.31679,1591225674.0478668,2.731076717376709,1591225666.882029,1591225671.29154,,,TCB_GOOD,001,,,,2020_Jun_03_1556,AdjustEyeTrack,3.1.5,59.777409133309924,
29,Stimuli/Morph29.JPG,Stimuli/Morph29.png,Stimuli/BlurLevel5/BlurEditedMorph29,Stimuli/BlurLevel5/BlurEditedMorph29.png,Stimuli/BlurLevel5/NumberedMorphs/BlurEditedMorph29.png,Stimuli/BlurLevel5/OriginalBlur/BlurEditedMorph29.png,Stimuli/BlurMorphTrio/EditedMorph29.png,010074right.gif,Stimuli/normal_thumbnails/29right.gif,,,,,0,0,0,0,0,83,83,28,,,,,,,,,,,,,,,,,,,,,,,69,84,1,175,-2.4904867452293638,0.21788935686914548,29,Experiment,,,,,,,,,116,27,2,2,,,,,,,,,,,,,,,726.6403453120001,727.517813860999,726.6403453120001,727.517813860999,97.27891156462584,1591225680.6985579,1591225685.146981,4.448423147201538,1591225674.9558558,1591225680.671113,,,TCB_GOOD,001,,,,2020_Jun_03_1556,AdjustEyeTrack,3.1.5,59.777409133309924,
116,Stimuli/Morph116.JPG,Stimuli/Morph116.png,Stimuli/BlurLevel5/BlurEditedMorph116,Stimuli/BlurLevel5/BlurEditedMorph116.png,Stimuli/BlurLevel5/NumberedMorphs/BlurEditedMorph116.png,Stimuli/BlurLevel5/OriginalBlur/BlurEditedMorph116.png,Stimuli/BlurMorphTrio/EditedMorph116.png,None,None,,,,,0,0,0,0,0,84,84,115,,,,,,,,,,,,,,,,,,,,,,,73,85,1,134,-1.7366459261474934,1.7983495008466277,116,Experiment,,,,,,,,,117,112,4,4,,,,,,,,,,,,,,,736.8843752270004,737.7934956619974,736.8843752270004,737.7934956619974,94.5578231292517,1591225691.0000792,1591225693.331004,2.3309247493743896,1591225685.904841,1591225690.9670558,,,TCB_GOOD,001,,,,2020_Jun_03_1556,AdjustEyeTrack,3.1.5,59.777409133309924,
60,Stimuli/Morph60.JPG,Stimuli/Morph60.png,Stimuli/BlurLevel5/BlurEditedMorph60,Stimuli/BlurLevel5/BlurEditedMorph60.png,Stimuli/BlurLevel5/NumberedMorphs/BlurEditedMorph60.png,Stimuli/BlurLevel5/OriginalBlur/BlurEditedMorph60.png,Stimuli/BlurMorphTrio/EditedMorph60.png,020200right.gif,Stimuli/normal_thumbnails/60right.gif,,,,,1,0,1,0,0,0,0,59,,,,,,,,,,,,,,,,,,,,,,,33,1,2,125,-1.4339410908776153,2.0478801107224793,60,Experiment,,,,,,,,,16,60,0,0,,,,,,,,,,,,,,,879.2419382769986,880.0684119849975,879.2419382769986,880.0684119849975,100.0,1591225833.258374,1591225835.765385,2.5070109367370605,1591225828.91557,1591225833.2267032,space,132.37566720199902,TCB_GOOD,001,,,,2020_Jun_03_1556,AdjustEyeTrack,3.1.5,59.777409133309924,
87,Stimuli/Morph87.JPG,Stimuli/Morph87.png,Stimuli/BlurLevel5/BlurEditedMorph87,Stimuli/BlurLevel5/BlurEditedMorph87.png,Stimuli/BlurLevel5/NumberedMorphs/BlurEditedMorph87.png,Stimuli/BlurLevel5/OriginalBlur/BlurEditedMorph87.png,Stimuli/BlurMorphTrio/EditedMorph87.png,020270right.gif,Stimuli/normal_thumbnails/87right.gif,,,,,1,0,1,0,0,1,1,86,,,,,,,,,,,,,,,,,,,,,,,70,2,2,77,0.5623776358596623,2.435925161963088,87,Experiment,,,,,,,,,119,86,1,1,,,,,,,,,,,,,,,886.7318427809987,887.5758160099977,886.7318427809987,887.5758160099977,98.63945578231292,1591225840.7666402,1591225845.496657,4.730016708374023,1591225836.463274,1591225840.738684,,,TCB_GOOD,001,,,,2020_Jun_03_1556,AdjustEyeTrack,3.1.5,59.777409133309924,
63,Stimuli/Morph63.JPG,Stimuli/Morph63.png,Stimuli/BlurLevel5/BlurEditedMorph63,Stimuli/BlurLevel5/BlurEditedMorph63.png,Stimuli/BlurLevel5/NumberedMorphs/BlurEditedMorph63.png,Stimuli/BlurLevel5/OriginalBlur/BlurEditedMorph63.png,Stimuli/BlurMorphTrio/EditedMorph63.png,020206right.gif,Stimuli/normal_thumbnails/63right.gif,,,,,1,0,1,0,0,2,2,62,,,,,,,,,,,,,,,,,,,,,,,95,3,2,331,2.1865492678484895,-1.2120240506158422,63,Experiment,,,,,,,,,76,56,7,7,,,,,,,,,,,,,,,897.4469180609995,898.3035877859984,897.4469180609995,898.3035877859984,90.47619047619048,1591225851.478213,1591225856.514907,5.036693811416626,1591225846.262437,1591225851.449347,,,TCB_GOOD,001,,,,2020_Jun_03_1556,AdjustEyeTrack,3.1.5,59.777409133309924,
133,Stimuli/Morph133.JPG,Stimuli/Morph133.png,Stimuli/BlurLevel5/BlurEditedMorph133,Stimuli/BlurLevel5/BlurEditedMorph133.png,Stimuli/BlurLevel5/NumberedMorphs/BlurEditedMorph133.png,Stimuli/BlurLevel5/OriginalBlur/BlurEditedMorph133.png,Stimuli/BlurMorphTrio/EditedMorph133.png,None,None,,,,,1,0,1,0,0,3,3,132,,,,,,,,,,,,,,,,,,,,,,,89,4,2,182,-2.4984770675477392,-0.08724874175625223,133,Experiment,,,,,,,,,55,128,5,5,,,,,,,,,,,,,,,908.0763203219976,908.9318934529983,908.0763203219976,908.9318934529983,93.19727891156462,1591225862.123189,1591225866.362047,4.238857984542847,1591225857.2336159,1591225862.095686,,,TCB_GOOD,001,,,,2020_Jun_03_1556,AdjustEyeTrack,3.1.5,59.777409133309924,
61,Stimuli/Morph61.JPG,Stimuli/Morph61.png,Stimuli/BlurLevel5/BlurEditedMorph61,Stimuli/BlurLevel5/BlurEditedMorph61.png,Stimuli/BlurLevel5/NumberedMorphs/BlurEditedMorph61.png,Stimuli/BlurLevel5/OriginalBlur/BlurEditedMorph61.png,Stimuli/BlurMorphTrio/EditedMorph61.png,020201right.gif,Stimuli/normal_thumbnails/61right.gif,,,,,1,0,1,0,0,4,4,60,,,,,,,,,,,,,,,,,,,,,,,69,5,2,42,1.8578620636934855,1.6728265158971456,61,Experiment,,,,,,,,,2,58,3,3,,,,,,,,,,,,,,,917.792855902997,918.6852950039975,917.792855902997,918.6852950039975,95.91836734693877,1591225871.954324,1591225875.145032,3.1907079219818115,1591225867.083968,1591225871.887981,,,TCB_GOOD,001,,,,2020_Jun_03_1556,AdjustEyeTrack,3.1.5,59.777409133309924,
11,Stimuli/Morph11.JPG,Stimuli/Morph11.png,Stimuli/BlurLevel5/BlurEditedMorph11,Stimuli/BlurLevel5/BlurEditedMorph11.png,Stimuli/BlurLevel5/NumberedMorphs/BlurEditedMorph11.png,Stimuli/BlurLevel5/OriginalBlur/BlurEditedMorph11.png,Stimuli/BlurMorphTrio/EditedMorph11.png,010024right.gif,Stimuli/normal_thumbnails/11right.gif,,,,,1,0,1,0,0,5,5,10,,,,,,,,,,,,,,,,,,,,,,,76,6,2,161,-2.363796438998292,0.8139203861428914,11,Experiment,,,,,,,,,1,11,0,0,,,,,,,,,,,,,,,925.657574814999,926.4932131819987,925.657574814999,926.4932131819987,100.0,1591225879.78576,1591225883.412344,3.626584053039551,1591225875.94848,1591225879.7350478,,,TCB_GOOD,001,,,,2020_Jun_03_1556,AdjustEyeTrack,3.1.5,59.777409133309924,
143,Stimuli/Morph143.JPG,Stimuli/Morph143.png,Stimuli/BlurLevel5/BlurEditedMorph143,Stimuli/BlurLevel5/BlurEditedMorph143.png,Stimuli/BlurLevel5/NumberedMorphs/BlurEditedMorph143.png,Stimuli/BlurLevel5/OriginalBlur/BlurEditedMorph143.png,Stimuli/BlurMorphTrio/EditedMorph143.png,None,None,,,,,1,0,1,0,0,6,6,142,,,,,,,,,,,,,,,,,,,,,,,15,7,2,162,-2.3776412907378837,0.7725424859373687,143,Experiment,,,,,,,,,3,3,140,-7,,,,,,,,,,,,,,,934.7951576399973,935.6718002259986,934.7951576399973,935.6718002259986,90.47619047619048,1591225888.849122,1591225890.136628,1.287505865097046,1591225884.26842,1591225888.8204951,,,TCB_GOOD,001,,,,2020_Jun_03_1556,AdjustEyeTrack,3.1.5,59.777409133309924,
71,Stimuli/Morph71.JPG,Stimuli/Morph71.png,Stimuli/BlurLevel5/BlurEditedMorph71,Stimuli/BlurLevel5/BlurEditedMorph71.png,Stimuli/BlurLevel5/NumberedMorphs/BlurEditedMorph71.png,Stimuli/BlurLevel5/OriginalBlur/BlurEditedMorph71.png,Stimuli/BlurMorphTrio/EditedMorph71.png,020225right.gif,Stimuli/normal_thumbnails/71right.gif,,,,,1,0,1,0,0,7,7,70,,,,,,,,,,,,,,,,,,,,,,,63,8,2,203,-2.3012621336311008,-0.9768278212231839,71,Experiment,,,,,,,,,89,83,-12,-12,,,,,,,,,,,,,,,941.7153466879972,942.575556552998,941.7153466879972,942.575556552998,83.6734693877551,1591225896.460617,1591225901.528554,5.067936897277832,1591225891.1179972,1591225896.435733,,,TCB_GOOD,001,,,,2020_Jun_03_1556,AdjustEyeTrack,3.1.5,59.777409133309924,
34,Stimuli/Morph34.JPG,Stimuli/Morph34.png,Stimuli/BlurLevel5/BlurEditedMorph34,Stimuli/BlurLevel5/BlurEditedMorph34.png,Stimuli/BlurLevel5/NumberedMorphs/BlurEditedMorph34.png,Stimuli/BlurLevel5/OriginalBlur/BlurEditedMorph34.png,Stimuli/BlurMorphTrio/EditedMorph34.png,010090right.gif,Stimuli/normal_thumbnails/34right.gif,,,,,1,0,1,0,0,8,8,33,,,,,,,,,,,,,,,,,,,,,,,92,9,2,336,2.2838636441065026,-1.0168416076895004,34,Experiment,,,,,,,,,65,33,1,1,,,,,,,,,,,,,,,954.0417684780004,954.8830155139985,954.0417684780004,954.8830155139985,98.63945578231292,1591225908.143754,1591225911.812765,3.669010877609253,1591225902.429653,1591225908.090174,,,TCB_GOOD,001,,,,2020_Jun_03_1556,AdjustEyeTrack,3.1.5,59.777409133309924,
53,Stimuli/Morph53.JPG,Stimuli/Morph53.png,Stimuli/BlurLevel5/BlurEditedMorph53,Stimuli/BlurLevel5/BlurEditedMorph53.png,Stimuli/BlurLevel5/NumberedMorphs/BlurEditedMorph53.png,Stimuli/BlurLevel5/OriginalBlur/BlurEditedMorph53.png,Stimuli/BlurMorphTrio/EditedMorph53.png,010149right.gif,Stimuli/normal_thumbnails/53right.gif,,,,,1,0,1,0,0,9,9,52,,,,,,,,,,,,,,,,,,,,,,,33,10,2,336,2.2838636441065026,-1.0168416076895004,53,Experiment,,,,,,,,,136,50,3,3,,,,,,,,,,,,,,,962.9554770699979,963.8285492430005,962.9554770699979,963.8285492430005,95.91836734693877,1591225917.158356,1591225920.316915,3.1585590839385986,1591225912.500631,1591225917.108685,,,TCB_GOOD,001,,,,2020_Jun_03_1556,AdjustEyeTrack,3.1.5,59.777409133309924,
8,Stimuli/Morph8.JPG,Stimuli/Morph8.png,Stimuli/BlurLevel5/BlurEditedMorph8,Stimuli/BlurLevel5/BlurEditedMorph8.png,Stimuli/BlurLevel5/NumberedMorphs/BlurEditedMorph8.png,Stimuli/BlurLevel5/OriginalBlur/BlurEditedMorph8.png,Stimuli/BlurMorphTrio/EditedMorph8.png,010014right.gif,Stimuli/normal_thumbnails/8right.gif,,,,,1,0,1,0,0,10,10,7,,,,,,,,,,,,,,,,,,,,,,,70,11,2,80,0.43412044416732604,2.46201938253052,8,Experiment,,,,,,,,,65,147,-139,8,,,,,,,,,,,,,,,971.2789201429987,972.1355022419993,971.2789201429987,972.1355022419993,89.1156462585034,1591225925.458196,1591225929.1772969,3.7191009521484375,1591225921.114401,1591225925.417601,,,TCB_GOOD,001,,,,2020_Jun_03_1556,AdjustEyeTrack,3.1.5,59.777409133309924,
44,Stimuli/Morph44.JPG,Stimuli/Morph44.png,Stimuli/BlurLevel5/BlurEditedMorph44,Stimuli/BlurLevel5/BlurEditedMorph44.png,Stimuli/BlurLevel5/NumberedMorphs/BlurEditedMorph44.png,Stimuli/BlurLevel5/OriginalBlur/BlurEditedMorph44.png,Stimuli/BlurMorphTrio/EditedMorph44.png,010126right.gif,Stimuli/normal_thumbnails/44right.gif,,,,,1,0,1,0,0,11,11,43,,,,,,,,,,,,,,,,,,,,,,,70,12,2,311,1.6401475724762675,-1.8867739505569305,44,Experiment,,,,,,,,,123,46,-2,-2,,,,,,,,,,,,,,,979.8871061389982,980.7336842169971,979.8871061389982,980.7336842169971,97.27891156462584,1591225934.332526,1591225939.277432,4.944905996322632,1591225929.865529,1591225934.2894201,,,TCB_GOOD,001,,,,2020_Jun_03_1556,AdjustEyeTrack,3.1.5,59.777409133309924,
123,Stimuli/Morph123.JPG,Stimuli/Morph123.png,Stimuli/BlurLevel5/BlurEditedMorph123,Stimuli/BlurLevel5/BlurEditedMorph123.png,Stimuli/BlurLevel5/NumberedMorphs/BlurEditedMorph123.png,Stimuli/BlurLevel5/OriginalBlur/BlurEditedMorph123.png,Stimuli/BlurMorphTrio/EditedMorph123.png,None,None,,,,,1,0,1,0,0,12,12,122,,,,,,,,,,,,,,,,,,,,,,,5,13,2,262,-0.3479327524001646,-2.475670171853926,123,Experiment,,,,,,,,,17,127,-4,-4,,,,,,,,,,,,,,,990.471416999997,991.3230914060005,990.471416999997,991.3230914060005,94.5578231292517,1591225944.7703831,1591225949.312202,4.541818857192993,1591225940.000407,1591225944.7164621,,,TCB_GOOD,001,,,,2020_Jun_03_1556,AdjustEyeTrack,3.1.5,59.777409133309924,
147,Stimuli/Morph147.JPG,Stimuli/Morph147.png,Stimuli/BlurLevel5/BlurEditedMorph147,Stimuli/BlurLevel5/BlurEditedMorph147.png,Stimuli/BlurLevel5/NumberedMorphs/BlurEditedMorph147.png,Stimuli/BlurLevel5/OriginalBlur/BlurEditedMorph147.png,Stimuli/BlurMorphTrio/EditedMorph147.png,None,None,,,,,1,0,1,0,0,13,13,146,,,,,,,,,,,,,,,,,,,,,,,49,14,2,283,0.5623776358596623,-2.435925161963088,147,Experiment,,,,,,,,,136,136,11,11,,,,,,,,,,,,,,,1000.9181610769992,1001.7696058759975,1000.9181610769992,1001.7696058759975,85.03401360544218,1591225955.1781352,1591225957.845175,2.6670398712158203,1591225950.0838661,1591225955.134696,,,TCB_GOOD,001,,,,2020_Jun_03_1556,AdjustEyeTrack,3.1.5,59.777409133309924,
31,Stimuli/Morph31.JPG,Stimuli/Morph31.png,Stimuli/BlurLevel5/BlurEditedMorph31,Stimuli/BlurLevel5/BlurEditedMorph31.png,Stimuli/BlurLevel5/NumberedMorphs/BlurEditedMorph31.png,Stimuli/BlurLevel5/OriginalBlur/BlurEditedMorph31.png,Stimuli/BlurMorphTrio/EditedMorph31.png,010079right.gif,Stimuli/normal_thumbnails/31right.gif,,,,,1,0,1,0,0,14,14,30,,,,,,,,,,,,,,,,,,,,,,,4,15,2,194,-2.425739315689991,-0.6048047389991688,31,Experiment,,,,,,,,,66,31,0,0,,,,,,,,,,,,,,,1009.8966863399983,1010.7356122919991,1009.8966863399983,1010.7356122919991,100.0,1591225964.190934,1591225966.6774678,2.4865338802337646,1591225958.633276,1591225964.1497788,,,TCB_GOOD,001,,,,2020_Jun_03_1556,AdjustEyeTrack,3.1.5,59.777409133309924,
55,Stimuli/Morph55.JPG,Stimuli/Morph55.png,Stimuli/BlurLevel5/BlurEditedMorph55,Stimuli/BlurLevel5/BlurEditedMorph55.png,Stimuli/BlurLevel5/NumberedMorphs/BlurEditedMorph55.png,Stimuli/BlurLevel5/OriginalBlur/BlurEditedMorph55.png,Stimuli/BlurMorphTrio/EditedMorph55.png,010151right.gif,Stimuli/normal_thumbnails/55right.gif,,,,,1,0,1,0,0,15,15,54,,,,,,,,,,,,,,,,,,,,,,,22,16,2,301,1.287595187275135,-2.142918251755281,55,Experiment,,,,,,,,,94,60,-5,-5,,,,,,,,,,,,,,,1018.0840116740001,1018.9634597160002,1018.0840116740001,1018.9634597160002,93.19727891156462,1591225972.218024,1591225977.426446,5.208421945571899,1591225967.51396,1591225972.1731179,,,TCB_GOOD,001,,,,2020_Jun_03_1556,AdjustEyeTrack,3.1.5,59.777409133309924,
66,Stimuli/Morph66.JPG,Stimuli/Morph66.png,Stimuli/BlurLevel5/BlurEditedMorph66,Stimuli/BlurLevel5/BlurEditedMorph66.png,Stimuli/BlurLevel5/NumberedMorphs/BlurEditedMorph66.png,Stimuli/BlurLevel5/OriginalBlur/BlurEditedMorph66.png,Stimuli/BlurMorphTrio/EditedMorph66.png,020212right.gif,Stimuli/normal_thumbnails/66right.gif,,,,,1,0,1,0,0,16,16,65,,,,,,,,,,,,,,,,,,,,,,,87,17,2,310,1.6069690242163481,-1.9151111077974452,66,Experiment,,,,,,,,,17,66,0,0,,,,,,,,,,,,,,,1028.9256371560004,1029.7841879259977,1028.9256371560004,1029.7841879259977,100.0,1591225983.337984,1591225986.279764,2.941779851913452,1591225978.1996748,1591225983.287696,,,TCB_GOOD,001,,,,2020_Jun_03_1556,AdjustEyeTrack,3.1.5,59.777409133309924,
35,Stimuli/Morph35.JPG,Stimuli/Morph35.png,Stimuli/BlurLevel5/BlurEditedMorph35,Stimuli/BlurLevel5/BlurEditedMorph35.png,Stimuli/BlurLevel5/NumberedMorphs/BlurEditedMorph35.png,Stimuli/BlurLevel5/OriginalBlur/BlurEditedMorph35.png,Stimuli/BlurMorphTrio/EditedMorph35.png,010094right.gif,Stimuli/normal_thumbnails/35right.gif,,,,,1,0,1,0,0,17,17,34,,,,,,,,,,,,,,,,,,,,,,,89,18,2,90,1.5308084989341916e-16,2.5,35,Experiment,,,,,,,,,135,43,-8,-8,,,,,,,,,,,,,,,1037.912228751,1038.767060195998,1037.912228751,1038.767060195998,89.1156462585034,1591225992.1053681,1591225995.344803,3.2394349575042725,1591225987.031553,1591225992.0552168,,,TCB_GOOD,001,,,,2020_Jun_03_1556,AdjustEyeTrack,3.1.5,59.777409133309924,
131,Stimuli/Morph131.JPG,Stimuli/Morph131.png,Stimuli/BlurLevel5/BlurEditedMorph131,Stimuli/BlurLevel5/BlurEditedMorph131.png,Stimuli/BlurLevel5/NumberedMorphs/BlurEditedMorph131.png,Stimuli/BlurLevel5/OriginalBlur/BlurEditedMorph131.png,Stimuli/BlurMorphTrio/EditedMorph131.png,None,None,,,,,1,0,1,0,0,18,18,130,,,,,,,,,,,,,,,,,,,,,,,16,19,2,27,2.2275163104709197,1.1349762493488669,131,Experiment,,,,,,,,,83,138,-7,-7,,,,,,,,,,,,,,,1047.1397260819977,1048.0385256959999,1047.1397260819977,1048.0385256959999,90.47619047619048,1591226001.496949,1591226004.794672,3.2977230548858643,1591225996.18344,1591226001.452645,,,TCB_GOOD,001,,,,2020_Jun_03_1556,AdjustEyeTrack,3.1.5,59.777409133309924,
144,Stimuli/Morph144.JPG,Stimuli/Morph144.png,Stimuli/BlurLevel5/BlurEditedMorph144,Stimuli/BlurLevel5/BlurEditedMorph144.png,Stimuli/BlurLevel5/NumberedMorphs/BlurEditedMorph144.png,Stimuli/BlurLevel5/OriginalBlur/BlurEditedMorph144.png,Stimuli/BlurMorphTrio/EditedMorph144.png,None,None,,,,,1,0,1,0,0,19,19,143,,,,,,,,,,,,,,,,,,,,,,,94,20,2,122,-1.324798160583012,2.1201202403910653,144,Experiment,,,,,,,,,49,138,6,6,,,,,,,,,,,,,,,1057.0753212179989,1057.9485882599984,1057.0753212179989,1057.9485882599984,91.83673469387756,1591226011.172395,1591226015.3445928,4.1721978187561035,1591226005.6506062,1591226011.123721,,,TCB_GOOD,001,,,,2020_Jun_03_1556,AdjustEyeTrack,3.1.5,59.777409133309924,
19,Stimuli/Morph19.JPG,Stimuli/Morph19.png,Stimuli/BlurLevel5/BlurEditedMorph19,Stimuli/BlurLevel5/BlurEditedMorph19.png,Stimuli/BlurLevel5/NumberedMorphs/BlurEditedMorph19.png,Stimuli/BlurLevel5/OriginalBlur/BlurEditedMorph19.png,Stimuli/BlurMorphTrio/EditedMorph19.png,010045right.gif,Stimuli/normal_thumbnails/19right.gif,,,,,1,0,1,0,0,20,20,18,,,,,,,,,,,,,,,,,,,,,,,15,21,2,164,-2.4031542398457972,0.689093389542498,19,Experiment,,,,,,,,,12,17,2,2,,,,,,,,,,,,,,,1066.7458047580003,1067.5987809420003,1066.7458047580003,1067.5987809420003,97.27891156462584,1591226021.003546,1591226022.267703,1.2641570568084717,1591226016.1813078,1591226020.9582012,,,TCB_GOOD,001,,,,2020_Jun_03_1556,AdjustEyeTrack,3.1.5,59.777409133309924,
30,Stimuli/Morph30.JPG,Stimuli/Morph30.png,Stimuli/BlurLevel5/BlurEditedMorph30,Stimuli/BlurLevel5/BlurEditedMorph30.png,Stimuli/BlurLevel5/NumberedMorphs/BlurEditedMorph30.png,Stimuli/BlurLevel5/OriginalBlur/BlurEditedMorph30.png,Stimuli/BlurMorphTrio/EditedMorph30.png,010076right.gif,Stimuli/normal_thumbnails/30right.gif,,,,,1,0,1,0,0,21,21,29,,,,,,,,,,,,,,,,,,,,,,,6,22,2,107,-0.7309292618068417,2.390761889907589,30,Experiment,,,,,,,,,51,29,1,1,,,,,,,,,,,,,,,1074.2896906049973,1075.137860556999,1074.2896906049973,1075.137860556999,98.63945578231292,1591226028.756926,1591226034.86306,6.106133937835693,1591226023.21256,1591226028.7141912,,,TCB_GOOD,001,,,,2020_Jun_03_1556,AdjustEyeTrack,3.1.5,59.777409133309924,
88,Stimuli/Morph88.JPG,Stimuli/Morph88.png,Stimuli/BlurLevel5/BlurEditedMorph88,Stimuli/BlurLevel5/BlurEditedMorph88.png,Stimuli/BlurLevel5/NumberedMorphs/BlurEditedMorph88.png,Stimuli/BlurLevel5/OriginalBlur/BlurEditedMorph88.png,Stimuli/BlurMorphTrio/EditedMorph88.png,020271right.gif,Stimuli/normal_thumbnails/88right.gif,,,,,1,0,1,0,0,22,22,87,,,,,,,,,,,,,,,,,,,,,,,70,23,2,151,-2.1865492678484895,1.2120240506158428,88,Experiment,,,,,,,,,13,86,2,2,,,,,,,,,,,,,,,1085.9312306389984,1086.7822207850004,1085.9312306389984,1086.7822207850004,97.27891156462584,1591226040.412599,1591226044.5766232,4.164024114608765,1591226035.644288,1591226040.369736,,,TCB_GOOD,001,,,,2020_Jun_03_1556,AdjustEyeTrack,3.1.5,59.777409133309924,
80,Stimuli/Morph80.JPG,Stimuli/Morph80.png,Stimuli/BlurLevel5/BlurEditedMorph80,Stimuli/BlurLevel5/BlurEditedMorph80.png,Stimuli/BlurLevel5/NumberedMorphs/BlurEditedMorph80.png,Stimuli/BlurLevel5/OriginalBlur/BlurEditedMorph80.png,Stimuli/BlurMorphTrio/EditedMorph80.png,020240right.gif,Stimuli/normal_thumbnails/80right.gif,,,,,1,0,1,0,0,23,23,79,,,,,,,,,,,,,,,,,,,,,,,41,24,2,334,2.246985115747917,-1.0959278669726944,80,Experiment,,,,,,,,,137,89,-9,-9,,,,,,,,,,,,,,,1096.2189962529992,1097.088387898999,1096.2189962529992,1097.088387898999,87.75510204081633,1591226050.4993112,1591226055.7866828,5.287371635437012,1591226045.401417,1591226050.4452,,,TCB_GOOD,001,,,,2020_Jun_03_1556,AdjustEyeTrack,3.1.5,59.777409133309924,
103,Stimuli/Morph103.JPG,Stimuli/Morph103.png,Stimuli/BlurLevel5/BlurEditedMorph103,Stimuli/BlurLevel5/BlurEditedMorph103.png,Stimuli/BlurLevel5/NumberedMorphs/BlurEditedMorph103.png,Stimuli/BlurLevel5/OriginalBlur/BlurEditedMorph103.png,Stimuli/BlurMorphTrio/EditedMorph103.png,None,None,,,,,1,0,1,0,0,24,24,102,,,,,,,,,,,,,,,,,,,,,,,7,25,2,67,0.9768278212231842,2.3012621336311008,103,Experiment,,,,,,,,,128,107,-4,-4,,,,,,,,,,,,,,,1107.400046085997,1108.258113926,1107.400046085997,1108.258113926,94.5578231292517,1591226061.69998,1591226064.177676,2.477695941925049,1591226056.647653,1591226061.65644,,,TCB_GOOD,001,,,,2020_Jun_03_1556,AdjustEyeTrack,3.1.5,59.777409133309924,
69,Stimuli/Morph69.JPG,Stimuli/Morph69.png,Stimuli/BlurLevel5/BlurEditedMorph69,Stimuli/BlurLevel5/BlurEditedMorph69.png,Stimuli/BlurLevel5/NumberedMorphs/BlurEditedMorph69.png,Stimuli/BlurLevel5/OriginalBlur/BlurEditedMorph69.png,Stimuli/BlurMorphTrio/EditedMorph69.png,020220right.gif,Stimuli/normal_thumbnails/69right.gif,,,,,1,0,1,0,0,25,25,68,,,,,,,,,,,,,,,,,,,,,,,32,26,2,277,0.3046733585128692,-2.481365379103305,69,Experiment,,,,,,,,,123,79,-10,-10,,,,,,,,,,,,,,,1116.2380313269969,1117.0985322359993,1116.2380313269969,1117.0985322359993,86.39455782312925,1591226070.5565078,1591226074.393148,3.8366401195526123,1591226064.978901,1591226070.513082,,,TCB_GOOD,001,,,,2020_Jun_03_1556,AdjustEyeTrack,3.1.5,59.777409133309924,
28,Stimuli/Morph28.JPG,Stimuli/Morph28.png,Stimuli/BlurLevel5/BlurEditedMorph28,Stimuli/BlurLevel5/BlurEditedMorph28.png,Stimuli/BlurLevel5/NumberedMorphs/BlurEditedMorph28.png,Stimuli/BlurLevel5/OriginalBlur/BlurEditedMorph28.png,Stimuli/BlurMorphTrio/EditedMorph28.png,010073right.gif,Stimuli/normal_thumbnails/28right.gif,,,,,1,0,1,0,0,26,26,27,,,,,,,,,,,,,,,,,,,,,,,25,27,2,266,-0.17439118436031395,-2.4939101256495606,28,Experiment,,,,,,,,,141,35,-7,-7,,,,,,,,,,,,,,,1126.2266159409992,1127.091821496997,1126.2266159409992,1127.091821496997,90.47619047619048,1591226080.605553,1591226085.930877,5.325324058532715,1591226075.15071,1591226080.5518432,,,TCB_GOOD,001,,,,2020_Jun_03_1556,AdjustEyeTrack,3.1.5,59.777409133309924,
117,Stimuli/Morph117.JPG,Stimuli/Morph117.png,Stimuli/BlurLevel5/BlurEditedMorph117,Stimuli/BlurLevel5/BlurEditedMorph117.png,Stimuli/BlurLevel5/NumberedMorphs/BlurEditedMorph117.png,Stimuli/BlurLevel5/OriginalBlur/BlurEditedMorph117.png,Stimuli/BlurMorphTrio/EditedMorph117.png,None,None,,,,,1,0,1,0,0,27,27,116,,,,,,,,,,,,,,,,,,,,,,,64,28,2,318,1.8578620636934855,-1.6728265158971454,117,Experiment,,,,,,,,,101,122,-5,-5,,,,,,,,,,,,,,,1137.5385812189998,1138.3976276159992,1137.5385812189998,1138.3976276159992,93.19727891156462,1591226091.871131,1591226094.8268611,2.9557301998138428,1591226086.7821922,1591226091.817238,,,TCB_GOOD,001,,,,2020_Jun_03_1556,AdjustEyeTrack,3.1.5,59.777409133309924,
48,Stimuli/Morph48.JPG,Stimuli/Morph48.png,Stimuli/BlurLevel5/BlurEditedMorph48,Stimuli/BlurLevel5/BlurEditedMorph48.png,Stimuli/BlurLevel5/NumberedMorphs/BlurEditedMorph48.png,Stimuli/BlurLevel5/OriginalBlur/BlurEditedMorph48.png,Stimuli/BlurMorphTrio/EditedMorph48.png,010131right.gif,Stimuli/normal_thumbnails/48right.gif,,,,,1,0,1,0,0,28,28,47,,,,,,,,,,,,,,,,,,,,,,,39,29,2,219,-1.942864903642427,-1.573300977624594,48,Experiment,,,,,,,,,105,51,-3,-3,,,,,,,,,,,,,,,1146.294638940999,1147.1292499849988,1146.294638940999,1147.1292499849988,95.91836734693877,1591226100.925877,1591226105.293225,4.367347955703735,1591226095.630852,1591226100.8662138,,,TCB_GOOD,001,,,,2020_Jun_03_1556,AdjustEyeTrack,3.1.5,59.777409133309924,
46,Stimuli/Morph46.JPG,Stimuli/Morph46.png,Stimuli/BlurLevel5/BlurEditedMorph46,Stimuli/BlurLevel5/BlurEditedMorph46.png,Stimuli/BlurLevel5/NumberedMorphs/BlurEditedMorph46.png,Stimuli/BlurLevel5/OriginalBlur/BlurEditedMorph46.png,Stimuli/BlurMorphTrio/EditedMorph46.png,010128right.gif,Stimuli/normal_thumbnails/46right.gif,,,,,1,0,1,0,0,29,29,45,,,,,,,,,,,,,,,,,,,,,,,19,30,2,104,-0.6048047389991694,2.425739315689991,46,Experiment,,,,,,,,,53,51,-5,-5,,,,,,,,,,,,,,,1157.4307545419979,1158.297262617998,1157.4307545419979,1158.297262617998,93.19727891156462,1591226112.584844,1591226113.710334,1.1254899501800537,1591226106.065523,1591226112.553903,,,TCB_GOOD,001,,,,2020_Jun_03_1556,AdjustEyeTrack,3.1.5,59.777409133309924,
38,Stimuli/Morph38.JPG,Stimuli/Morph38.png,Stimuli/BlurLevel5/BlurEditedMorph38,Stimuli/BlurLevel5/BlurEditedMorph38.png,Stimuli/BlurLevel5/NumberedMorphs/BlurEditedMorph38.png,Stimuli/BlurLevel5/OriginalBlur/BlurEditedMorph38.png,Stimuli/BlurMorphTrio/EditedMorph38.png,010108right.gif,Stimuli/normal_thumbnails/38right.gif,,,,,1,0,1,0,0,30,30,37,,,,,,,,,,,,,,,,,,,,,,,70,31,2,140,-1.9151111077974448,1.6069690242163488,38,Experiment,,,,,,,,,112,43,-5,-5,,,,,,,,,,,,,,,1164.8422357809977,1165.6994471199978,1164.8422357809977,1165.6994471199978,93.19727891156462,1591226119.2853398,1591226125.009439,5.724099159240723,1591226114.620696,1591226119.232317,,,TCB_GOOD,001,,,,2020_Jun_03_1556,AdjustEyeTrack,3.1.5,59.777409133309924,
62,Stimuli/Morph62.JPG,Stimuli/Morph62.png,Stimuli/BlurLevel5/BlurEditedMorph62,Stimuli/BlurLevel5/BlurEditedMorph62.png,Stimuli/BlurLevel5/NumberedMorphs/BlurEditedMorph62.png,Stimuli/BlurLevel5/OriginalBlur/BlurEditedMorph62.png,Stimuli/BlurMorphTrio/EditedMorph62.png,020205right.gif,Stimuli/normal_thumbnails/62right.gif,,,,,1,0,1,0,0,31,31,61,,,,,,,,,,,,,,,,,,,,,,,79,32,2,115,-1.0565456543517484,2.265769467591625,62,Experiment,,,,,,,,,76,61,1,1,,,,,,,,,,,,,,,1176.643814543997,1177.4661521989983,1176.643814543997,1177.4661521989983,98.63945578231292,1591226131.5793548,1591226133.445021,1.865666151046753,1591226125.866227,1591226131.469204,,,TCB_GOOD,001,,,,2020_Jun_03_1556,AdjustEyeTrack,3.1.5,59.777409133309924,
76,Stimuli/Morph76.JPG,Stimuli/Morph76.png,Stimuli/BlurLevel5/BlurEditedMorph76,Stimuli/BlurLevel5/BlurEditedMorph76.png,Stimuli/BlurLevel5/NumberedMorphs/BlurEditedMorph76.png,Stimuli/BlurLevel5/OriginalBlur/BlurEditedMorph76.png,Stimuli/BlurMorphTrio/EditedMorph76.png,020234right.gif,Stimuli/normal_thumbnails/76right.gif,,,,,1,0,1,0,0,32,32,75,,,,,,,,,,,,,,,,,,,,,,,28,33,2,174,-2.4863047384206833,0.2613211581691343,76,Experiment,,,,,,,,,38,81,-5,-5,,,,,,,,,,,,,,,1185.4216201799973,1186.5804223099985,1185.4216201799973,1186.5804223099985,93.19727891156462,1591226139.88848,1591226143.76146,3.8729801177978516,1591226134.3484201,1591226139.837882,,,TCB_GOOD,001,,,,2020_Jun_03_1556,AdjustEyeTrack,3.1.5,59.777409133309924,
81,Stimuli/Morph81.JPG,Stimuli/Morph81.png,Stimuli/BlurLevel5/BlurEditedMorph81,Stimuli/BlurLevel5/BlurEditedMorph81.png,Stimuli/BlurLevel5/NumberedMorphs/BlurEditedMorph81.png,Stimuli/BlurLevel5/OriginalBlur/BlurEditedMorph81.png,Stimuli/BlurMorphTrio/EditedMorph81.png,020245right.gif,Stimuli/normal_thumbnails/81right.gif,,,,,1,0,1,0,0,33,33,80,,,,,,,,,,,,,,,,,,,,,,,4,34,2,220,-1.9151111077974452,-1.6069690242163481,81,Experiment,,,,,,,,,98,88,-7,-7,,,,,,,,,,,,,,,1196.0971192479992,1196.9377657379991,1196.0971192479992,1196.9377657379991,90.47619047619048,1591226150.6733902,1591226152.133752,1.4603619575500488,1591226144.6149929,1591226150.6210198,,,TCB_GOOD,001,,,,2020_Jun_03_1556,AdjustEyeTrack,3.1.5,59.777409133309924,
102,Stimuli/Morph102.JPG,Stimuli/Morph102.png,Stimuli/BlurLevel5/BlurEditedMorph102,Stimuli/BlurLevel5/BlurEditedMorph102.png,Stimuli/BlurLevel5/NumberedMorphs/BlurEditedMorph102.png,Stimuli/BlurLevel5/OriginalBlur/BlurEditedMorph102.png,Stimuli/BlurMorphTrio/EditedMorph102.png,None,None,,,,,1,0,1,0,0,34,34,101,,,,,,,,,,,,,,,,,,,,,,,67,35,2,71,0.8139203861428919,2.3637964389982917,102,Experiment,,,,,,,,,45,89,13,13,,,,,,,,,,,,,,,1203.9520729670003,1204.8784071209993,1203.9520729670003,1204.8784071209993,82.31292517006803,1591226158.686305,1591226161.494393,2.8080880641937256,1591226153.134471,1591226158.58004,,,TCB_GOOD,001,,,,2020_Jun_03_1556,AdjustEyeTrack,3.1.5,59.777409133309924,
6,Stimuli/Morph6.JPG,Stimuli/Morph6.png,Stimuli/BlurLevel5/BlurEditedMorph6,Stimuli/BlurLevel5/BlurEditedMorph6.png,Stimuli/BlurLevel5/NumberedMorphs/BlurEditedMorph6.png,Stimuli/BlurLevel5/OriginalBlur/BlurEditedMorph6.png,Stimuli/BlurMorphTrio/EditedMorph6.png,010012right.gif,Stimuli/normal_thumbnails/6right.gif,,,,,1,0,1,0,0,35,35,5,,,,,,,,,,,,,,,,,,,,,,,19,36,2,173,-2.481365379103305,0.30467335851286886,6,Experiment,,,,,,,,,50,6,0,0,,,,,,,,,,,,,,,1213.3215294609981,1214.1903244919995,1213.3215294609981,1214.1903244919995,100.0,1591226167.806069,1591226173.778283,5.972214221954346,1591226162.263992,1591226167.7481978,,,TCB_GOOD,001,,,,2020_Jun_03_1556,AdjustEyeTrack,3.1.5,59.777409133309924,
77,Stimuli/Morph77.JPG,Stimuli/Morph77.png,Stimuli/BlurLevel5/BlurEditedMorph77,Stimuli/BlurLevel5/BlurEditedMorph77.png,Stimuli/BlurLevel5/NumberedMorphs/BlurEditedMorph77.png,Stimuli/BlurLevel5/OriginalBlur/BlurEditedMorph77.png,Stimuli/BlurMorphTrio/EditedMorph77.png,020235right.gif,Stimuli/normal_thumbnails/77right.gif,,,,,1,0,1,0,0,36,36,76,,,,,,,,,,,,,,,,,,,,,,,89,37,2,235,-1.433941090877616,-2.047880110722479,77,Experiment,,,,,,,,,93,83,-6,-6,,,,,,,,,,,,,,,1225.7504642869972,1226.6162021460004,1225.7504642869972,1226.6162021460004,91.83673469387756,1591226180.123737,1591226182.481993,2.3582558631896973,1591226174.68507,1591226180.0700622,,,TCB_GOOD,001,,,,2020_Jun_03_1556,AdjustEyeTrack,3.1.5,59.777409133309924,
10,Stimuli/Morph10.JPG,Stimuli/Morph10.png,Stimuli/BlurLevel5/BlurEditedMorph10,Stimuli/BlurLevel5/BlurEditedMorph10.png,Stimuli/BlurLevel5/NumberedMorphs/BlurEditedMorph10.png,Stimuli/BlurLevel5/OriginalBlur/BlurEditedMorph10.png,Stimuli/BlurMorphTrio/EditedMorph10.png,010016right.gif,Stimuli/normal_thumbnails/10right.gif,,,,,1,0,1,0,0,37,37,9,,,,,,,,,,,,,,,,,,,,,,,24,38,2,261,-0.39108616260057766,-2.469220851487844,10,Experiment,,,,,,,,,98,17,-7,-7,,,,,,,,,,,,,,,1234.1584308969977,1235.0024747259995,1234.1584308969977,1235.0024747259995,90.47619047619048,1591226188.7544,1591226193.4618921,4.707492113113403,1591226183.3441432,1591226188.700921,,,TCB_GOOD,001,,,,2020_Jun_03_1556,AdjustEyeTrack,3.1.5,59.777409133309924,
108,Stimuli/Morph108.JPG,Stimuli/Morph108.png,Stimuli/BlurLevel5/BlurEditedMorph108,Stimuli/BlurLevel5/BlurEditedMorph108.png,Stimuli/BlurLevel5/NumberedMorphs/BlurEditedMorph108.png,Stimuli/BlurLevel5/OriginalBlur/BlurEditedMorph108.png,Stimuli/BlurMorphTrio/EditedMorph108.png,None,None,,,,,1,0,1,0,0,38,38,107,,,,,,,,,,,,,,,,,,,,,,,90,39,2,290,0.8550503583141726,-2.349231551964771,108,Experiment,,,,,,,,,76,81,27,27,,,,,,,,,,,,,,,1245.099767599997,1245.9346336829985,1245.099767599997,1245.9346336829985,63.26530612244898,1591226200.297417,1591226201.216161,0.9187440872192383,1591226194.2995148,1591226200.221122,,,TCB_GOOD,001,,,,2020_Jun_03_1556,AdjustEyeTrack,3.1.5,59.777409133309924,
23,Stimuli/Morph23.JPG,Stimuli/Morph23.png,Stimuli/BlurLevel5/BlurEditedMorph23,Stimuli/BlurLevel5/BlurEditedMorph23.png,Stimuli/BlurLevel5/NumberedMorphs/BlurEditedMorph23.png,Stimuli/BlurLevel5/OriginalBlur/BlurEditedMorph23.png,Stimuli/BlurMorphTrio/EditedMorph23.png,010063right.gif,Stimuli/normal_thumbnails/23right.gif,,,,,1,0,1,0,0,39,39,22,,,,,,,,,,,,,,,,,,,,,,,85,40,2,277,0.3046733585128692,-2.481365379103305,23,Experiment,,,,,,,,,123,18,5,5,,,,,,,,,,,,,,,1252.8418402259995,1253.7050013499975,1252.8418402259995,1253.7050013499975,93.19727891156462,1591226207.359549,1591226210.207958,2.8484089374542236,1591226202.3522072,1591226207.315356,,,TCB_GOOD,001,,,,2020_Jun_03_1556,AdjustEyeTrack,3.1.5,59.777409133309924,
9,Stimuli/Morph9.JPG,Stimuli/Morph9.png,Stimuli/BlurLevel5/BlurEditedMorph9,Stimuli/BlurLevel5/BlurEditedMorph9.png,Stimuli/BlurLevel5/NumberedMorphs/BlurEditedMorph9.png,Stimuli/BlurLevel5/OriginalBlur/BlurEditedMorph9.png,Stimuli/BlurMorphTrio/EditedMorph9.png,010015right.gif,Stimuli/normal_thumbnails/9right.gif,,,,,1,0,1,0,0,40,40,8,,,,,,,,,,,,,,,,,,,,,,,37,41,2,289,0.8139203861428908,-2.3637964389982926,9,Experiment,,,,,,,,,43,9,0,0,,,,,,,,,,,,,,,1261.837752266998,1262.7048660419969,1261.837752266998,1262.7048660419969,100.0,1591226216.356533,1591226221.479616,5.123082876205444,1591226210.992126,1591226216.312881,,,TCB_GOOD,001,,,,2020_Jun_03_1556,AdjustEyeTrack,3.1.5,59.777409133309924,
110,Stimuli/Morph110.JPG,Stimuli/Morph110.png,Stimuli/BlurLevel5/BlurEditedMorph110,Stimuli/BlurLevel5/BlurEditedMorph110.png,Stimuli/BlurLevel5/NumberedMorphs/BlurEditedMorph110.png,Stimuli/BlurLevel5/OriginalBlur/BlurEditedMorph110.png,Stimuli/BlurMorphTrio/EditedMorph110.png,None,None,,,,,1,0,1,0,0,41,41,109,,,,,,,,,,,,,,,,,,,,,,,64,42,2,43,1.828384254047926,1.7049959001562462,110,Experiment,,,,,,,,,33,91,19,19,,,,,,,,,,,,,,,1273.053399532997,1273.9103818900003,1273.053399532997,1273.9103818900003,74.14965986394557,1591226227.6725628,1591226230.795717,3.1231541633605957,1591226222.3164349,1591226227.626564,,,TCB_GOOD,001,,,,2020_Jun_03_1556,AdjustEyeTrack,3.1.5,59.777409133309924,
